PacketId,Role,StatusWord,Qx,Qy,Qz,Qw,Gx,Gy,Gz,FreeAx,FreeAy,FreeAz,Ax,Ay,Az,DQx,DQy,DQz,DQw,DVx,DVy,DVz
403,Right,0,0.2025,-0.0775,-0.9672,0.1322,0.0140,0.0146,-0.0018,-0.0000,0.0000,-0.1021,-3.6072,1.9770,8.7964,0.0002,0.0002,-0.0000,1.0000,-0.0901,0.0494,0.2199
403,Left,0,0.2171,0.0442,-0.9685,-0.1139,0.0061,0.0043,0.0055,0.0000,-0.0000,-0.0562,-4.0054,-1.3161,8.7985,0.0001,0.0001,0.0001,1.0000,-0.1001,-0.0329,0.2200
403,Pelvis,0,0.3387,-0.5706,0.5042,0.5527,-0.2746,-0.4425,-0.1371,-0.0000,-0.0000,0.4050,9.9445,-2.0412,1.1595,-0.0034,-0.0055,-0.0017,1.0000,0.2484,-0.0514,0.0305
404,Right,0,0.2029,-0.0776,-0.9671,0.1322,0.0171,0.0262,-0.0024,-0.0102,0.0278,-0.0903,-3.6118,1.9509,8.8133,0.0002,0.0003,-0.0000,1.0000,-0.0902,0.0487,0.2204
404,Left,0,0.2172,0.0440,-0.9685,-0.1138,0.0067,0.0079,0.0092,0.0183,-0.0284,-0.0380,-4.0363,-1.2944,8.8078,0.0001,0.0001,0.0001,1.0000,-0.1009,-0.0324,0.2202
404,Pelvis,0,0.3438,-0.5691,0.5078,0.5478,0.5795,-0.2709,0.0844,-1.2181,-0.1697,1.0153,10.6980,-1.0697,1.7794,0.0072,-0.0034,0.0011,1.0000,0.2673,-0.0268,0.0452
405,Right,0,0.2033,-0.0778,-0.9670,0.1321,0.0171,0.0336,-0.0018,0.0126,0.0184,-0.1113,-3.6282,1.9642,8.7804,0.0002,0.0004,-0.0000,1.0000,-0.0906,0.0491,0.2196
405,Left,0,0.2173,0.0439,-0.9685,-0.1137,0.0085,0.0073,0.0085,0.0310,-0.0305,-0.0428,-4.0481,-1.2918,8.7975,0.0001,0.0001,0.0001,1.0000,-0.1012,-0.0323,0.2199
405,Pelvis,0,0.3479,-0.5695,0.5080,0.5446,0.2575,-0.2694,0.0022,-0.7358,-0.2137,0.0111,9.6486,-1.3198,1.5021,0.0032,-0.0034,0.0000,1.0000,0.2411,-0.0331,0.0383
406,Right,0,0.2038,-0.0779,-0.9669,0.1321,0.0177,0.0378,-0.0018,0.0086,0.0193,-0.1024,-3.6361,1.9679,8.7861,0.0002,0.0005,-0.0000,1.0000,-0.0908,0.0492,0.2197
406,Left,0,0.2173,0.0438,-0.9685,-0.1136,0.0104,-0.0000,0.0085,0.0292,-0.0430,-0.0225,-4.0589,-1.2791,8.8170,0.0001,-0.0000,0.0001,1.0000,-0.1015,-0.0320,0.2204
406,Pelvis,0,0.3496,-0.5676,0.5095,0.5441,0.2088,-0.0534,-0.0020,-0.3902,-0.0266,-0.0267,9.5889,-1.5758,1.2197,0.0026,-0.0007,-0.0000,1.0000,0.2397,-0.0395,0.0305
407,Right,0,0.2043,-0.0780,-0.9668,0.1321,0.0134,0.0360,0.0018,0.0194,0.0127,-0.0968,-3.6540,1.9811,8.7819,0.0002,0.0005,0.0000,1.0000,-0.0913,0.0495,0.2196
407,Left,0,0.2172,0.0437,-0.9685,-0.1135,0.0073,-0.0031,0.0079,0.0291,-0.0429,-0.0225,-4.0588,-1.2763,8.8174,0.0001,-0.0000,0.0001,1.0000,-0.1015,-0.0319,0.2204
407,Pelvis,0,0.3516,-0.5645,0.5119,0.5438,0.3044,0.0591,-0.0062,-0.4030,0.0485,0.0970,9.7244,-1.5474,1.1869,0.0038,0.0007,-0.0001,1.0000,0.2431,-0.0388,0.0293
408,Right,0,0.2047,-0.0781,-0.9667,0.1322,0.0116,0.0348,0.0024,0.0125,0.0182,-0.1113,-3.6519,1.9742,8.7684,0.0001,0.0004,0.0000,1.0000,-0.0912,0.0493,0.2193
408,Left,0,0.2173,0.0436,-0.9685,-0.1135,0.0012,0.0024,0.0031,0.0270,-0.0522,-0.0239,-4.0589,-1.2650,8.8176,0.0000,0.0000,0.0000,1.0000,-0.1015,-0.0316,0.2204
408,Pelvis,0,0.3529,-0.5634,0.5127,0.5433,0.1311,-0.0411,0.0294,-0.8223,0.0523,0.4209,10.1084,-1.1887,1.3465,0.0016,-0.0005,0.0004,1.0000,0.2527,-0.0297,0.0337
409,Right,0,0.2052,-0.0783,-0.9666,0.1323,0.0183,0.0391,0.0104,0.0145,0.0488,-0.1136,-3.6694,1.9488,8.7643,0.0002,0.0005,0.0001,1.0000,-0.0916,0.0487,0.2192
409,Left,0,0.2174,0.0437,-0.9685,-0.1135,-0.0049,0.0085,-0.0006,0.0206,-0.0617,-0.0164,-4.0602,-1.2555,8.8267,-0.0001,0.0001,-0.0000,1.0000,-0.1015,-0.0314,0.2207
409,Pelvis,0,0.3525,-0.5615,0.5138,0.5445,0.0516,0.1258,0.0677,-1.1356,-0.0514,0.2509,9.9734,-0.8631,1.5340,0.0006,0.0016,0.0008,1.0000,0.2494,-0.0214,0.0379
410,Right,0,0.2058,-0.0786,-0.9664,0.1326,0.0243,0.0470,0.0244,-0.0061,0.0709,-0.0821,-3.6783,1.9357,8.7984,0.0003,0.0006,0.0003,1.0000,-0.0918,0.0483,0.2200
410,Left,0,0.2176,0.0437,-0.9684,-0.1135,-0.0061,0.0134,-0.0012,0.0216,-0.0115,-0.0138,-4.0529,-1.3057,8.8255,-0.0001,0.0002,-0.0000,1.0000,-0.1013,-0.0326,0.2207
411,Right,0,0.2064,-0.0788,-0.9662,0.1329,0.0225,0.0452,0.0305,0.0346,0.0313,-0.0702,-3.7162,1.9922,8.7829,0.0003,0.0006,0.0004,1.0000,-0.0928,0.0497,0.2196
411,Left,0,0.2178,0.0437,-0.9684,-0.1135,-0.0037,0.0153,-0.0006,0.0127,-0.0086,-0.0178,-4.0462,-1.3069,8.8239,-0.0000,0.0002,-0.0000,1.0000,-0.1011,-0.0327,0.2206
411,Pelvis,0,0.3550,-0.5581,0.5162,0.5441,0.1625,0.0327,0.0319,-1.2256,-0.3300,-0.3844,9.3199,-0.6869,1.7810,0.0041,0.0008,0.0008,1.0000,0.4661,-0.0343,0.0885
412,Right,0,0.2067,-0.0789,-0.9661,0.1333,0.0103,0.0306,0.0287,0.0773,0.0847,-0.0564,-3.7817,1.9596,8.7782,0.0001,0.0004,0.0004,1.0000,-0.0945,0.0489,0.2195
412,Left,0,0.2180,0.0437,-0.9683,-0.1135,-0.0024,0.0134,-0.0024,0.0337,-0.0124,-0.0186,-4.0689,-1.3077,8.8125,-0.0000,0.0002,-0.0000,1.0000,-0.1017,-0.0327,0.2203
412,Pelvis,0,0.3614,-0.5522,0.5163,0.5458,0.0994,-0.0868,-0.0509,-0.6748,-0.3509,-0.7137,8.9165,-1.0286,1.6758,0.0012,-0.0011,-0.0006,1.0000,0.2229,-0.0259,0.0421
413,Right,0,0.2069,-0.0789,-0.9660,0.1335,-0.0031,0.0110,0.0171,0.0852,0.0642,-0.0613,-3.7850,1.9820,8.7662,-0.0000,0.0001,0.0002,1.0000,-0.0946,0.0495,0.2192
413,Left,0,0.2181,0.0436,-0.9683,-0.1136,0.0006,0.0104,-0.0037,0.0055,-0.0142,-0.0319,-4.0421,-1.2985,8.8113,0.0000,0.0001,-0.0000,1.0000,-0.1010,-0.0325,0.2203
413,Pelvis,0,0.3667,-0.5470,0.5193,0.5446,0.3282,-0.0173,-0.0588,-0.8142,-0.2288,-0.3860,9.2807,-0.8612,1.6446,0.0041,-0.0002,-0.0007,1.0000,0.2320,-0.0219,0.0411
414,Right,0,0.2068,-0.0787,-0.9660,0.1336,-0.0129,-0.0073,0.0097,0.0648,0.0667,-0.0705,-3.7653,1.9717,8.7666,-0.0002,-0.0001,0.0001,1.0000,-0.0942,0.0493,0.2191
414,Left,0,0.2183,0.0436,-0.9683,-0.1136,0.0012,0.0073,-0.0055,0.0221,-0.0183,-0.0239,-4.0634,-1.2987,8.8104,0.0000,0.0001,-0.0001,1.0000,-0.1016,-0.0325,0.2203
415,Right,0,0.2066,-0.0785,-0.9661,0.1336,-0.0183,-0.0201,0.0018,0.0592,0.0839,-0.0744,-3.7621,1.9493,8.7688,-0.0002,-0.0003,0.0000,1.0000,-0.0941,0.0488,0.2192
415,Left,0,0.2184,0.0436,-0.9682,-0.1138,0.0000,0.0079,-0.0116,0.0177,-0.0366,-0.0265,-4.0648,-1.2799,8.8097,0.0000,0.0001,-0.0001,1.0000,-0.1016,-0.0320,0.2203
415,Pelvis,0,0.3741,-0.5410,0.5222,0.5429,0.3994,-0.0475,-0.0605,-0.8410,-0.1878,-0.1476,9.5294,-0.7815,1.6539,0.0100,-0.0012,-0.0015,0.9999,0.4763,-0.0406,0.0829
416,Right,0,0.2064,-0.0781,-0.9662,0.1336,-0.0238,-0.0250,-0.0001,0.0325,0.0783,-0.0640,-3.7377,1.9447,8.7916,-0.0003,-0.0003,-0.0000,1.0000,-0.0935,0.0487,0.2197
416,Left,0,0.2185,0.0436,-0.9682,-0.1139,-0.0018,0.0067,-0.0147,0.0295,-0.0192,-0.0199,-4.0758,-1.3010,8.8089,-0.0000,0.0001,-0.0002,1.0000,-0.1019,-0.0325,0.2202
416,Pelvis,0,0.3862,-0.5321,0.5269,0.5386,0.4885,-0.2644,-0.0796,-0.5929,-0.0644,-0.0519,9.6233,-0.8599,1.5109,0.0061,-0.0033,-0.0010,1.0000,0.2404,-0.0220,0.0384
417,Right,0,0.2061,-0.0778,-0.9662,0.1337,-0.0239,-0.0299,0.0012,0.0200,0.0824,-0.0695,-3.7219,1.9298,8.7954,-0.0003,-0.0004,0.0000,1.0000,-0.0931,0.0483,0.2198
417,Left,0,0.2186,0.0437,-0.9681,-0.1141,-0.0042,0.0079,-0.0171,0.0332,-0.0396,-0.0185,-4.0866,-1.2837,8.8080,-0.0001,0.0001,-0.0002,1.0000,-0.1022,-0.0321,0.2202
417,Pelvis,0,0.3924,-0.5292,0.5276,0.5363,0.4340,-0.2596,-0.0928,-0.4833,-0.1251,-0.0976,9.5688,-0.8974,1.5050,0.0054,-0.0032,-0.0012,1.0000,0.2391,-0.0229,0.0383
418,Right,0,0.2057,-0.0775,-0.9663,0.1337,-0.0227,-0.0347,0.0073,0.0269,0.0605,-0.0744,-3.7145,1.9446,8.7897,-0.0003,-0.0004,0.0001,1.0000,-0.0930,0.0487,0.2197
418,Left,0,0.2187,0.0437,-0.9681,-0.1143,-0.0018,0.0024,-0.0159,0.0037,-0.0009,-0.0306,-4.0482,-1.3153,8.8075,-0.0000,0.0000,-0.0002,1.0000,-0.1012,-0.0329,0.2202
418,Pelvis,0,0.4003,-0.5245,0.5301,0.5326,0.5589,-0.2510,-0.0874,-0.3443,-0.1566,-0.1359,9.5234,-0.9544,1.4758,0.0070,-0.0031,-0.0011,1.0000,0.2379,-0.0244,0.0375
419,Right,0,0.2052,-0.0771,-0.9664,0.1338,-0.0275,-0.0372,0.0061,-0.0316,0.0342,-0.0765,-3.6477,1.9493,8.8141,-0.0003,-0.0005,0.0001,1.0000,-0.0913,0.0488,0.2203
419,Left,0,0.2188,0.0437,-0.9680,-0.1144,-0.0036,0.0079,-0.0140,0.0167,-0.0425,-0.0366,-4.0683,-1.2784,8.7970,-0.0000,0.0001,-0.0002,1.0000,-0.1017,-0.0319,0.2199
419,Pelvis,0,0.4073,-0.5194,0.5330,0.5294,0.5891,-0.1663,-0.0677,-0.5596,-0.1197,-0.0284,9.6685,-0.6757,1.4572,0.0074,-0.0021,-0.0008,1.0000,0.2416,-0.0174,0.0368
420,Right,0,0.2048,-0.0767,-0.9666,0.1339,-0.0330,-0.0347,-0.0013,-0.0109,0.0549,-0.0909,-3.6592,1.9233,8.7993,-0.0004,-0.0004,-0.0000,1.0000,-0.0916,0.0482,0.2199
420,Left,0,0.2191,0.0439,-0.9680,-0.1146,-0.0122,0.0159,-0.0165,0.0076,-0.0242,-0.0076,-4.0705,-1.3012,8.8249,-0.0002,0.0002,-0.0002,1.0000,-0.1017,-0.0325,0.2206
420,Pelvis,0,0.4144,-0.5145,0.5353,0.5263,0.5820,-0.1864,-0.0971,-1.0426,-0.1932,0.0332,9.7772,-0.1347,1.5668,0.0073,-0.0023,-0.0012,1.0000,0.2443,-0.0040,0.0397
421,Right,0,0.2044,-0.0761,-0.9667,0.1338,-0.0391,-0.0335,-0.0086,-0.0101,0.0425,-0.0889,-3.6519,1.9247,8.8041,-0.0005,-0.0004,-0.0001,1.0000,-0.0914,0.0482,0.2200
421,Left,0,0.2194,0.0441,-0.9679,-0.1148,-0.0152,0.0207,-0.0183,0.0274,-0.0058,-0.0185,-4.0837,-1.3256,8.8030,-0.0002,0.0003,-0.0002,1.0000,-0.1020,-0.0331,0.2201
421,Pelvis,0,0.4206,-0.5101,0.5369,0.5241,0.4562,-0.1588,-0.0895,-0.8598,-0.1756,0.1106,9.8437,-0.2401,1.5121,0.0057,-0.0020,-0.0011,1.0000,0.2460,-0.0065,0.0383
422,Right,0,0.2039,-0.0754,-0.9669,0.1336,-0.0470,-0.0402,-0.0196,0.0208,0.0559,-0.0977,-3.6737,1.9043,8.7899,-0.0006,-0.0005,-0.0002,1.0000,-0.0919,0.0478,0.2197
422,Left,0,0.2197,0.0442,-0.9678,-0.1150,-0.0165,0.0201,-0.0208,0.0179,0.0003,-0.0442,-4.0679,-1.3310,8.7809,-0.0002,0.0003,-0.0003,1.0000,-0.1017,-0.0332,0.2196
422,Pelvis,0,0.4272,-0.5060,0.5384,0.5211,0.4813,-0.2227,-0.0763,-1.2858,-0.1176,0.1460,9.9325,0.2616,1.4558,0.0060,-0.0028,-0.0010,1.0000,0.2482,0.0061,0.0371
423,Right,0,0.2034,-0.0747,-0.9671,0.1333,-0.0488,-0.0420,-0.0288,0.0206,0.0806,-0.0677,-3.6855,1.8720,8.8252,-0.0006,-0.0005,-0.0004,1.0000,-0.0922,0.0470,0.2206
423,Left,0,0.2201,0.0445,-0.9676,-0.1152,-0.0232,0.0287,-0.0251,-0.0081,-0.0134,-0.0460,-4.0531,-1.3181,8.7877,-0.0003,0.0004,-0.0003,1.0000,-0.1013,-0.0329,0.2197
424,Left,0,0.2206,0.0449,-0.9675,-0.1156,-0.0305,0.0366,-0.0361,-0.0093,0.0062,-0.0346,-4.0592,-1.3467,8.7932,-0.0004,0.0005,-0.0005,1.0000,-0.1014,-0.0335,0.2199
424,Pelvis,0,0.4387,-0.5020,0.5375,0.5163,0.3259,-0.2927,-0.1356,-1.3500,-0.0308,0.3246,10.1356,0.4207,1.2972,0.0081,-0.0073,-0.0034,0.9999,0.5064,0.0188,0.0687
425,Left,0,0.2210,0.0453,-0.9673,-0.1160,-0.0274,0.0311,-0.0379,0.0179,0.0121,-0.0429,-4.0847,-1.3666,8.7691,-0.0003,0.0004,-0.0005,1.0000,-0.1020,-0.0340,0.2193
425,Pelvis,0,0.4453,-0.4987,0.5341,0.5175,-0.0208,-0.2794,-0.1755,-1.3031,-0.0453,0.2275,10.0382,0.5547,1.1970,-0.0003,-0.0035,-0.0022,1.0000,0.2509,0.0133,0.0308
426,Right,0,0.2024,-0.0733,-0.9676,0.1323,-0.0340,-0.0294,-0.0314,-0.0143,0.1185,-0.0801,-3.6512,1.8008,8.8410,-0.0013,-0.0011,-0.0012,1.0000,-0.2744,0.1362,0.6626
426,Left,0,0.2213,0.0456,-0.9672,-0.1163,-0.0237,0.0171,-0.0373,0.0170,0.0313,-0.0314,-4.0887,-1.3956,8.7755,-0.0003,0.0002,-0.0005,1.0000,-0.1022,-0.0348,0.2194
426,Pelvis,0,0.4478,-0.4978,0.5309,0.5195,-0.1688,-0.1231,-0.1693,-1.1007,0.0799,0.1416,9.9540,0.4508,1.0105,-0.0021,-0.0015,-0.0021,1.0000,0.2488,0.0108,0.0256
427,Right,0,0.2023,-0.0726,-0.9677,0.1321,-0.0079,-0.0177,-0.0177,-0.0094,0.1080,-0.0847,-3.6453,1.7836,8.8418,-0.0001,-0.0002,-0.0002,1.0000,-0.0912,0.0446,0.2210
427,Left,0,0.2214,0.0460,-0.9671,-0.1168,-0.0243,0.0067,-0.0422,0.0018,0.0046,-0.0394,-4.0803,-1.3756,8.7736,-0.0003,0.0001,-0.0005,1.0000,-0.1020,-0.0343,0.2194
427,Pelvis,0,0.4483,-0.4970,0.5277,0.5231,-0.3022,0.0213,-0.1648,-0.6151,0.1175,0.1248,9.9122,0.0507,0.9442,-0.0038,0.0003,-0.0021,1.0000,0.2478,0.0008,0.0235
428,Right,0,0.2021,-0.0723,-0.9677,0.1319,-0.0031,-0.0183,-0.0147,-0.0001,0.0923,-0.1004,-3.6420,1.7908,8.8242,-0.0000,-0.0002,-0.0002,1.0000,-0.0911,0.0448,0.2206
428,Left,0,0.2215,0.0465,-0.9670,-0.1173,-0.0273,0.0055,-0.0483,0.0065,0.0550,-0.0456,-4.0699,-1.4345,8.7622,-0.0003,0.0001,-0.0006,1.0000,-0.1018,-0.0357,0.2191
428,Pelvis,0,0.4479,-0.4966,0.5239,0.5275,-0.3983,0.0571,-0.1754,-0.2669,0.1211,-0.0095,9.7617,-0.2139,0.9231,-0.0050,0.0007,-0.0022,1.0000,0.2440,-0.0058,0.0229
429,Right,0,0.2018,-0.0722,-0.9678,0.1318,-0.0030,-0.0213,-0.0141,-0.0139,0.0749,-0.1057,-3.6188,1.7986,8.8261,-0.0000,-0.0003,-0.0002,1.0000,-0.0905,0.0450,0.2206
429,Left,0,0.2216,0.0469,-0.9669,-0.1177,-0.0188,0.0055,-0.0434,0.0026,0.0535,-0.0368,-4.0695,-1.4443,8.7706,-0.0002,0.0001,-0.0005,1.0000,-0.1017,-0.0360,0.2193
429,Pelvis,0,0.4469,-0.4977,0.5193,0.5318,-0.4954,-0.0141,-0.1538,0.0843,0.2225,-0.1560,9.6148,-0.4860,0.7928,-0.0062,-0.0002,-0.0019,1.0000,0.2403,-0.0125,0.0199
430,Right,0,0.2016,-0.0719,-0.9679,0.1316,0.0000,-0.0207,-0.0141,-0.0351,0.0663,-0.1041,-3.5952,1.7969,8.8378,0.0000,-0.0003,-0.0002,1.0000,-0.0899,0.0449,0.2209
430,Left,0,0.2216,0.0471,-0.9668,-0.1180,-0.0072,0.0007,-0.0318,0.0209,0.0635,-0.0707,-4.0685,-1.4605,8.7307,-0.0001,0.0000,-0.0004,1.0000,-0.1017,-0.0365,0.2183
430,Pelvis,0,0.4444,-0.5005,0.5140,0.5365,-0.6626,-0.0254,-0.0998,0.0515,0.1899,-0.1839,9.5876,-0.4054,0.8156,-0.0083,-0.0003,-0.0012,1.0000,0.2397,-0.0103,0.0205
431,Right,0,0.2015,-0.0718,-0.9680,0.1315,0.0049,-0.0164,-0.0104,-0.0389,0.0630,-0.0952,-3.5917,1.7963,8.8492,0.0001,-0.0002,-0.0001,1.0000,-0.0898,0.0449,0.2212
431,Left,0,0.2214,0.0472,-0.9668,-0.1182,0.0074,-0.0115,-0.0153,0.0245,0.0563,-0.0363,-4.0862,-1.4632,8.7604,0.0001,-0.0001,-0.0002,1.0000,-0.1022,-0.0366,0.2190
431,Pelvis,0,0.4386,-0.5039,0.5077,0.5440,-0.9573,0.1626,-0.1286,-0.1957,0.3348,0.2870,10.0782,-0.1266,0.7545,-0.0120,0.0020,-0.0016,0.9999,0.2520,-0.0033,0.0184
432,Right,0,0.2014,-0.0718,-0.9680,0.1314,0.0128,-0.0055,-0.0049,-0.0383,0.0600,-0.0952,-3.5896,1.7976,8.8497,0.0002,-0.0001,-0.0001,1.0000,-0.0898,0.0449,0.2212
432,Left,0,0.2212,0.0471,-0.9669,-0.1183,0.0166,-0.0152,-0.0073,0.0250,0.0178,-0.0591,-4.0831,-1.4226,8.7428,0.0002,-0.0002,-0.0001,1.0000,-0.1021,-0.0356,0.2185
432,Pelvis,0,0.4302,-0.5080,0.5001,0.5539,-1.2325,0.2936,-0.1569,0.2399,0.1531,-0.0581,9.7027,-0.5307,0.8993,-0.0154,0.0037,-0.0020,0.9999,0.2426,-0.0134,0.0218
433,Right,0,0.2014,-0.0718,-0.9680,0.1315,0.0208,0.0000,0.0030,-0.0367,0.0784,-0.0865,-3.5987,1.7816,8.8589,0.0003,0.0000,0.0000,1.0000,-0.0900,0.0445,0.2215
433,Left,0,0.2210,0.0470,-0.9669,-0.1184,0.0209,-0.0182,-0.0042,0.0104,0.0056,-0.0340,-4.0796,-1.4095,8.7745,0.0003,-0.0002,-0.0001,1.0000,-0.1020,-0.0353,0.2193
433,Pelvis,0,0.4221,-0.5118,0.4933,0.5626,-1.1174,0.2719,-0.1184,1.0366,0.2070,0.0397,9.7925,-1.2891,0.7955,-0.0140,0.0034,-0.0015,0.9999,0.2448,-0.0323,0.0195
434,Right,0,0.2015,-0.0719,-0.9679,0.1316,0.0256,0.0024,0.0091,-0.0189,0.0581,-0.0879,-3.6086,1.8068,8.8481,0.0003,0.0000,0.0001,1.0000,-0.0902,0.0451,0.2212
434,Left,0,0.2206,0.0468,-0.9670,-0.1184,0.0282,-0.0237,0.0037,0.0318,-0.0001,-0.0348,-4.0944,-1.4043,8.7676,0.0004,-0.0003,0.0000,1.0000,-0.1024,-0.0352,0.2191
434,Pelvis,0,0.4168,-0.5140,0.4895,0.5679,-0.6790,0.2094,-0.0369,1.0254,0.0029,-0.1914,9.5371,-1.2918,0.9987,-0.0085,0.0026,-0.0005,1.0000,0.2385,-0.0322,0.0246
435,Right,0,0.2016,-0.0720,-0.9679,0.1318,0.0256,0.0067,0.0079,-0.0132,0.0576,-0.0753,-3.6189,1.8132,8.8564,0.0003,0.0001,0.0001,1.0000,-0.0905,0.0453,0.2214
435,Left,0,0.2202,0.0465,-0.9671,-0.1183,0.0343,-0.0304,0.0110,0.0144,-0.0002,-0.0212,-4.0791,-1.3966,8.7911,0.0004,-0.0004,0.0001,1.0000,-0.1021,-0.0350,0.2197
435,Pelvis,0,0.4139,-0.5133,0.4896,0.5705,-0.2001,0.2587,0.0307,0.9589,0.2539,0.1011,9.8555,-1.1944,0.8435,-0.0025,0.0032,0.0004,1.0000,0.2465,-0.0297,0.0204
436,Right,0,0.2018,-0.0721,-0.9678,0.1319,0.0262,0.0153,0.0049,-0.0297,0.0439,-0.1040,-3.5918,1.8197,8.8346,0.0003,0.0002,0.0001,1.0000,-0.0898,0.0454,0.2209
436,Left,0,0.2197,0.0461,-0.9673,-0.1182,0.0356,-0.0371,0.0086,0.0065,-0.0426,-0.0049,-4.0823,-1.3490,8.8153,0.0004,-0.0005,0.0001,1.0000,-0.1022,-0.0338,0.2203
436,Pelvis,0,0.4106,-0.5110,0.4916,0.5733,-0.0621,0.4258,0.0510,0.0845,0.2050,0.1159,9.8603,-0.3535,1.1294,-0.0008,0.0053,0.0006,1.0000,0.2467,-0.0087,0.0269
437,Right,0,0.2020,-0.0723,-0.9678,0.1318,0.0275,0.0189,0.0049,-0.0152,0.0712,-0.0791,-3.6246,1.8064,8.8514,0.0003,0.0002,0.0001,1.0000,-0.0906,0.0451,0.2213
437,Left,0,0.2192,0.0459,-0.9674,-0.1182,0.0295,-0.0371,0.0013,0.0124,-0.0148,-0.0009,-4.0740,-1.3707,8.8201,0.0004,-0.0005,0.0000,1.0000,-0.1020,-0.0343,0.2204
437,Pelvis,0,0.4046,-0.5144,0.4886,0.5771,-0.6608,0.1487,0.0821,0.0128,0.2958,0.5315,10.2766,-0.3045,1.1784,-0.0083,0.0019,0.0010,1.0000,0.2570,-0.0071,0.0290
438,Left,0,0.2188,0.0457,-0.9675,-0.1183,0.0289,-0.0371,-0.0036,0.0071,-0.0142,-0.0137,-4.0560,-1.3642,8.8152,0.0004,-0.0005,-0.0000,1.0000,-0.1015,-0.0342,0.2203
438,Pelvis,0,0.3977,-0.5180,0.4853,0.5814,-0.7585,0.1876,0.0835,0.1237,0.3092,0.3651,10.1081,-0.4439,1.1521,-0.0095,0.0023,0.0010,1.0000,0.2528,-0.0106,0.0283
439,Left,0,0.2183,0.0455,-0.9676,-0.1184,0.0264,-0.0389,-0.0049,0.0083,-0.0026,-0.0340,-4.0376,-1.3682,8.8005,0.0003,-0.0005,-0.0001,1.0000,-0.1010,-0.0343,0.2200
439,Pelvis,0,0.3937,-0.5209,0.4795,0.5863,-0.7421,0.0588,-0.2041,0.6337,0.8515,0.9447,10.7585,-0.8485,0.6188,-0.0093,0.0007,-0.0026,1.0000,0.2689,-0.0218,0.0155
440,Left,0,0.2178,0.0453,-0.9677,-0.1184,0.0289,-0.0346,-0.0036,-0.0416,0.0163,-0.0352,-3.9804,-1.3718,8.8247,0.0004,-0.0004,-0.0000,1.0000,-0.0996,-0.0344,0.2206
440,Pelvis,0,0.3935,-0.5231,0.4731,0.5897,-0.5100,-0.1277,-0.3469,0.4370,0.2374,-0.9104,8.8389,-0.6741,0.9577,-0.0064,-0.0016,-0.0043,1.0000,0.2209,-0.0177,0.0244
441,Left,0,0.2175,0.0452,-0.9678,-0.1185,0.0203,-0.0225,-0.0036,-0.0263,-0.0181,-0.0400,-3.9938,-1.3377,8.8186,0.0003,-0.0003,-0.0000,1.0000,-0.0999,-0.0335,0.2204
441,Pelvis,0,0.3877,-0.5223,0.4701,0.5966,-0.6531,0.4755,-0.2016,-0.0571,-0.4021,-1.2924,8.3615,-0.2976,1.6606,-0.0082,0.0059,-0.0025,0.9999,0.2093,-0.0076,0.0403
442,Right,0,0.2031,-0.0731,-0.9675,0.1320,0.0227,0.0162,0.0032,-0.0186,0.0640,-0.0938,-3.6254,1.8210,8.8319,0.0014,0.0010,0.0002,1.0000,-0.4521,0.2260,1.1048
442,Left,0,0.2172,0.0451,-0.9679,-0.1185,0.0178,-0.0200,-0.0006,-0.0195,0.0090,-0.0360,-3.9888,-1.3630,8.8214,0.0002,-0.0003,-0.0000,1.0000,-0.0998,-0.0341,0.2205
442,Pelvis,0,0.3813,-0.5235,0.4667,0.6022,-0.7760,0.3382,-0.0808,0.4910,0.4062,0.0360,9.7938,-0.6506,1.0303,-0.0097,0.0042,-0.0010,0.9999,0.2449,-0.0163,0.0249
443,Right,0,0.2031,-0.0725,-0.9675,0.1319,0.0067,0.0104,-0.0079,-0.0239,0.0545,-0.0970,-3.6256,1.8268,8.8269,0.0001,0.0001,-0.0001,1.0000,-0.0906,0.0457,0.2207
443,Left,0,0.2168,0.0451,-0.9680,-0.1184,0.0184,-0.0170,0.0012,0.0061,-0.0097,-0.0252,-4.0141,-1.3495,8.8238,0.0002,-0.0002,0.0000,1.0000,-0.1004,-0.0338,0.2206
443,Pelvis,0,0.3770,-0.5245,0.4649,0.6055,-0.5223,0.2268,-0.0228,0.3496,0.0827,0.0812,9.7765,-0.6122,1.4368,-0.0065,0.0028,-0.0003,1.0000,0.2445,-0.0151,0.0353
444,Right,0,0.2031,-0.0723,-0.9675,0.1320,0.0055,0.0092,-0.0061,-0.0281,0.0569,-0.1114,-3.6183,1.8178,8.8160,0.0001,0.0001,-0.0001,1.0000,-0.0904,0.0454,0.2204
444,Left,0,0.2165,0.0450,-0.9680,-0.1183,0.0159,-0.0152,0.0006,-0.0037,0.0029,-0.0407,-3.9909,-1.3552,8.8163,0.0002,-0.0002,0.0000,1.0000,-0.0998,-0.0339,0.2204
444,Pelvis,0,0.3726,-0.5261,0.4620,0.6091,-0.5748,0.1717,-0.0526,-0.0850,-0.1660,-0.1972,9.4462,-0.2716,1.7859,-0.0072,0.0021,-0.0007,1.0000,0.2362,-0.0066,0.0442
445,Right,0,0.2031,-0.0721,-0.9675,0.1322,0.0055,0.0104,-0.0031,-0.0004,0.0524,-0.0897,-3.6500,1.8283,8.8246,0.0001,0.0001,-0.0000,1.0000,-0.0912,0.0457,0.2206
445,Pelvis,0,0.3729,-0.5268,0.4610,0.6090,-0.1114,-0.0599,-0.0517,0.2930,0.2406,-0.4336,9.2881,-0.5087,1.2583,-0.0014,-0.0007,-0.0006,1.0000,0.2322,-0.0128,0.0316
446,Right,0,0.2033,-0.0720,-0.9675,0.1321,0.0055,0.0134,-0.0043,-0.0083,0.0693,-0.0846,-3.6527,1.8096,8.8331,0.0001,0.0002,-0.0001,1.0000,-0.0913,0.0452,0.2208
446,Left,0,0.2162,0.0449,-0.9681,-0.1182,0.0116,-0.0066,0.0031,-0.0138,-0.0027,-0.0410,-3.9782,-1.3456,8.8232,0.0003,-0.0002,0.0001,1.0000,-0.1990,-0.0674,0.4411
446,Pelvis,0,0.3749,-0.5305,0.4586,0.6064,-0.0766,-0.4180,-0.0054,-0.1229,-0.0421,-0.4451,9.2313,-0.1934,1.5858,-0.0010,-0.0052,-0.0001,1.0000,0.2306,-0.0048,0.0409
447,Right,0,0.2034,-0.0719,-0.9675,0.1320,0.0043,0.0073,-0.0049,-0.0019,0.0792,-0.0828,-3.6650,1.8005,8.8319,0.0001,0.0001,-0.0001,1.0000,-0.0916,0.0450,0.2208
447,Left,0,0.2162,0.0448,-0.9681,-0.1182,0.0116,-0.0048,0.0024,0.0127,0.0095,-0.0658,-3.9860,-1.3562,8.7906,0.0001,-0.0001,0.0000,1.0000,-0.0997,-0.0339,0.2198
447,Pelvis,0,0.3704,-0.5374,0.4576,0.6039,-0.4475,-0.2870,0.4385,-0.9834,2.0315,0.8635,10.8523,1.1422,0.0107,-0.0056,-0.0036,0.0055,1.0000,0.2711,0.0300,0.0011
448,Right,0,0.2034,-0.0716,-0.9675,0.1320,-0.0018,0.0043,-0.0085,0.0162,0.0755,-0.0969,-3.6763,1.8001,8.8118,-0.0000,0.0001,-0.0001,1.0000,-0.0919,0.0450,0.2203
448,Left,0,0.2159,0.0447,-0.9682,-0.1181,0.0202,-0.0151,0.0049,0.0148,0.0134,-0.0429,-3.9936,-1.3621,8.8117,0.0003,-0.0002,0.0001,1.0000,-0.0999,-0.0341,0.2203
448,Pelvis,0,0.3562,-0.5321,0.4684,0.6088,-0.1897,1.3336,0.8026,0.2474,-0.4804,-1.4133,8.1906,-0.8413,1.7483,-0.0024,0.0167,0.0100,0.9998,0.2057,-0.0189,0.0403
449,Left,0,0.2157,0.0445,-0.9683,-0.1181,0.0190,-0.0152,0.0037,-0.0143,0.0010,-0.0576,-3.9613,-1.3375,8.8137,0.0002,-0.0002,0.0000,1.0000,-0.0991,-0.0335,0.2203
449,Pelvis,0,0.3507,-0.5272,0.4773,0.6093,0.2662,0.7425,0.5025,1.2533,-0.4349,-1.3470,8.1941,-1.9182,1.6145,0.0033,0.0093,0.0063,0.9999,0.2055,-0.0468,0.0383
450,Left,0,0.2155,0.0446,-0.9683,-0.1180,0.0177,-0.0072,0.0055,-0.0293,0.0106,-0.0642,-3.9393,-1.3426,8.8155,0.0002,-0.0001,0.0001,1.0000,-0.0985,-0.0336,0.2204
450,Pelvis,0,0.3488,-0.5259,0.4780,0.6110,-0.0752,0.2452,0.0139,0.9668,-0.9859,0.2176,9.5745,-1.9798,2.6313,-0.0009,0.0031,0.0002,1.0000,0.2396,-0.0494,0.0651
451,Left,0,0.2155,0.0444,-0.9683,-0.1180,0.0134,0.0013,0.0073,-0.0247,-0.0136,-0.0413,-3.9586,-1.3191,8.8357,0.0002,0.0000,0.0001,1.0000,-0.0990,-0.0330,0.2209
451,Pelvis,0,0.3500,-0.5276,0.4731,0.6126,-0.2551,-0.1879,-0.3242,0.0515,-0.9541,1.7460,11.0871,-1.1902,3.1900,-0.0032,-0.0023,-0.0041,1.0000,0.2769,-0.0306,0.0805
452,Left,0,0.2156,0.0443,-0.9683,-0.1179,0.0091,0.0080,0.0073,-0.0181,0.0101,-0.0157,-3.9693,-1.3451,8.8554,0.0001,0.0001,0.0001,1.0000,-0.0992,-0.0337,0.2214
452,Pelvis,0,0.3558,-0.5327,0.4653,0.6109,-0.1821,-0.7502,-0.4280,-0.3577,-0.4329,0.2805,9.8040,-0.4604,2.4208,-0.0023,-0.0094,-0.0053,0.9999,0.2445,-0.0127,0.0628
453,Right,0,0.2045,-0.0713,-0.9674,0.1312,0.0078,0.0172,-0.0156,-0.0218,0.0730,-0.0887,-3.6570,1.7926,8.8303,0.0005,0.0011,-0.0010,1.0000,-0.4557,0.2240,1.1044
453,Left,0,0.2157,0.0440,-0.9683,-0.1179,0.0073,0.0086,0.0042,0.0142,-0.0022,-0.0226,-4.0007,-1.3334,8.8353,0.0001,0.0001,0.0001,1.0000,-0.1000,-0.0334,0.2209
453,Pelvis,0,0.3597,-0.5400,0.4561,0.6091,-0.4175,-0.8429,-0.3510,-0.0785,0.0233,-0.1988,9.4641,-0.4755,1.6256,-0.0052,-0.0105,-0.0044,0.9999,0.2361,-0.0127,0.0432
454,Left,0,0.2159,0.0440,-0.9683,-0.1179,0.0067,0.0092,0.0036,0.0152,-0.0124,-0.0327,-4.0029,-1.3217,8.8248,0.0001,0.0001,0.0000,1.0000,-0.1000,-0.0331,0.2206
454,Pelvis,0,0.3594,-0.5454,0.4496,0.6093,-0.4837,-0.4291,-0.1676,0.2506,0.3173,0.8531,10.5773,-0.7025,1.2459,-0.0060,-0.0054,-0.0021,1.0000,0.2642,-0.0179,0.0327
455,Right,0,0.2052,-0.0709,-0.9673,0.1308,0.0171,0.0266,-0.0095,-0.0214,0.0725,-0.0741,-3.6814,1.7845,8.8379,0.0004,0.0007,-0.0002,1.0000,-0.1838,0.0891,0.4421
455,Left,0,0.2159,0.0438,-0.9683,-0.1179,0.0085,0.0056,0.0067,0.0011,-0.0016,-0.0178,-3.9948,-1.3291,8.8439,0.0001,0.0001,0.0001,1.0000,-0.0999,-0.0333,0.2211
455,Pelvis,0,0.3532,-0.5461,0.4478,0.6135,-0.5275,0.3247,0.0448,-0.1404,0.4605,0.2004,9.9579,-0.2527,1.1276,-0.0066,0.0041,0.0006,1.0000,0.2491,-0.0060,0.0272
456,Right,0,0.2056,-0.0708,-0.9673,0.1307,0.0189,0.0263,-0.0085,-0.0207,0.0826,-0.0973,-3.6857,1.7695,8.8136,0.0002,0.0003,-0.0001,1.0000,-0.0921,0.0442,0.2204
456,Left,0,0.2159,0.0436,-0.9683,-0.1178,0.0140,0.0019,0.0061,0.0265,0.0163,-0.0375,-4.0055,-1.3458,8.8148,0.0002,0.0000,0.0001,1.0000,-0.1001,-0.0337,0.2204
456,Pelvis,0,0.3411,-0.5526,0.4425,0.6185,-1.1948,0.1895,0.2645,-0.7571,-0.2742,-0.2361,9.3964,0.0161,2.0168,-0.0149,0.0024,0.0033,0.9999,0.2350,0.0019,0.0498
457,Right,0,0.2057,-0.0709,-0.9673,0.1307,0.0238,0.0275,-0.0061,-0.0310,0.0868,-0.0939,-3.6822,1.7638,8.8201,0.0003,0.0003,-0.0001,1.0000,-0.0920,0.0440,0.2205
457,Left,0,0.2155,0.0435,-0.9684,-0.1177,0.0226,-0.0127,0.0110,0.0010,0.0335,-0.0610,-3.9655,-1.3504,8.8061,0.0003,-0.0002,0.0001,1.0000,-0.0992,-0.0338,0.2201
457,Pelvis,0,0.3188,-0.5517,0.4400,0.6328,-1.5763,1.4019,0.3327,0.6758,0.5409,1.6863,11.3970,-1.2627,1.2258,-0.0197,0.0175,0.0042,0.9996,0.2855,-0.0298,0.0262
458,Right,0,0.2062,-0.0710,-0.9672,0.1306,0.0298,0.0330,-0.0042,-0.0243,0.0912,-0.1135,-3.6889,1.7594,8.7966,0.0004,0.0004,-0.0001,1.0000,-0.0921,0.0439,0.2200
458,Left,0,0.2154,0.0432,-0.9685,-0.1175,0.0214,-0.0090,0.0147,-0.0180,-0.0279,-0.0298,-3.9737,-1.2854,8.8466,0.0003,-0.0001,0.0002,1.0000,-0.0994,-0.0322,0.2211
458,Pelvis,0,0.3094,-0.5533,0.4381,0.6374,-0.7347,0.4087,0.1904,0.9462,-0.6667,-1.8187,7.6780,-1.8238,1.7223,-0.0092,0.0051,0.0024,0.9999,0.1923,-0.0447,0.0425
459,Left,0,0.2154,0.0429,-0.9685,-0.1175,0.0202,-0.0078,0.0122,-0.0083,0.0105,-0.0333,-3.9720,-1.3186,8.8387,0.0003,-0.0001,0.0002,1.0000,-0.0993,-0.0330,0.2209
459,Pelvis,0,0.3041,-0.5533,0.4358,0.6415,-0.4732,0.3205,-0.0365,1.0653,-0.7151,0.3535,9.7677,-2.1929,2.1867,-0.0059,0.0040,-0.0005,1.0000,0.2444,-0.0546,0.0540
460,Right,0,0.2075,-0.0713,-0.9669,0.1304,0.0368,0.0413,-0.0030,-0.0262,0.0514,-0.1044,-3.6972,1.8045,8.7937,0.0009,0.0010,-0.0001,1.0000,-0.1844,0.0898,0.4400
460,Left,0,0.2151,0.0426,-0.9686,-0.1174,0.0184,-0.0078,0.0128,-0.0127,0.0045,-0.0474,-3.9610,-1.3034,8.8302,0.0002,-0.0001,0.0002,1.0000,-0.0990,-0.0327,0.2207
460,Pelvis,0,0.3034,-0.5531,0.4318,0.6447,-0.2681,0.0751,-0.3063,1.6504,-0.9448,0.3498,9.7178,-2.7988,2.1502,-0.0034,0.0009,-0.0038,1.0000,0.2427,-0.0707,0.0538
461,Left,0,0.2151,0.0425,-0.9686,-0.1172,0.0165,-0.0023,0.0116,0.0029,-0.0139,-0.0191,-3.9896,-1.2886,8.8508,0.0002,-0.0000,0.0001,1.0000,-0.0997,-0.0323,0.2213
461,Pelvis,0,0.3117,-0.5546,0.4278,0.6421,0.2804,-0.5760,-0.4599,1.9766,-0.5025,-0.4309,9.0931,-2.7440,1.4018,0.0035,-0.0072,-0.0057,1.0000,0.2267,-0.0700,0.0364
462,Right,0,0.2088,-0.0715,-0.9666,0.1301,0.0317,0.0458,-0.0092,-0.0263,0.0307,-0.0927,-3.7170,1.8332,8.7922,0.0008,0.0011,-0.0002,1.0000,-0.1853,0.0914,0.4399
462,Left,0,0.2151,0.0422,-0.9686,-0.1172,0.0134,0.0007,0.0097,0.0025,-0.0134,-0.0191,-3.9898,-1.2842,8.8513,0.0002,0.0000,0.0001,1.0000,-0.0997,-0.0322,0.2213
462,Pelvis,0,0.3199,-0.5570,0.4212,0.6403,0.1186,-0.6413,-0.6090,-0.0938,-0.4567,-0.1234,9.4139,-0.7686,2.2114,0.0015,-0.0080,-0.0076,0.9999,0.2347,-0.0211,0.0571
463,Left,0,0.2152,0.0422,-0.9686,-0.1171,0.0122,0.0080,0.0091,0.0068,0.0040,-0.0164,-3.9909,-1.3000,8.8515,0.0002,0.0001,0.0001,1.0000,-0.0997,-0.0325,0.2213
463,Pelvis,0,0.3284,-0.5551,0.4184,0.6395,0.4244,-0.2983,-0.5648,-1.3353,-0.2500,0.5078,10.0708,0.5494,2.5766,0.0053,-0.0037,-0.0071,1.0000,0.2516,0.0116,0.0654
464,Left,0,0.2152,0.0422,-0.9686,-0.1169,0.0091,0.0129,0.0109,0.0041,-0.0178,-0.0191,-3.9937,-1.2771,8.8506,0.0001,0.0002,0.0001,1.0000,-0.0998,-0.0320,0.2213
464,Pelvis,0,0.3390,-0.5473,0.4229,0.6377,1.0754,0.0828,-0.3969,-0.5480,0.3877,0.0393,9.7469,0.2878,1.5580,0.0134,0.0010,-0.0050,0.9999,0.2437,0.0055,0.0388
465,Left,0,0.2154,0.0421,-0.9686,-0.1168,0.0097,0.0099,0.0115,0.0055,-0.0095,-0.0178,-3.9965,-1.2836,8.8499,0.0001,0.0001,0.0001,1.0000,-0.0999,-0.0321,0.2213
465,Pelvis,0,0.3444,-0.5429,0.4283,0.6350,0.7578,0.0623,-0.0050,-1.1214,-0.0767,-0.4981,9.1100,0.7208,2.1245,0.0095,0.0008,-0.0001,1.0000,0.2278,0.0175,0.0531
466,Left,0,0.2154,0.0420,-0.9686,-0.1168,0.0110,0.0062,0.0055,0.0152,-0.0007,-0.0341,-3.9985,-1.2905,8.8300,0.0001,0.0001,0.0001,1.0000,-0.0999,-0.0323,0.2208
466,Pelvis,0,0.3431,-0.5443,0.4342,0.6305,0.2847,-0.0586,0.5380,-1.7841,0.9873,-0.9444,8.8338,1.7263,1.3374,0.0036,-0.0007,0.0067,1.0000,0.2205,0.0445,0.0338
467,Left,0,0.2155,0.0420,-0.9686,-0.1168,0.0085,0.0055,0.0012,-0.0034,-0.0109,-0.0218,-3.9902,-1.2780,8.8491,0.0001,0.0001,0.0000,1.0000,-0.0997,-0.0320,0.2212
467,Pelvis,0,0.3322,-0.5459,0.4479,0.6254,0.1385,0.4484,1.3877,-0.3903,0.6522,-0.2503,9.5097,0.0668,1.2600,0.0017,0.0056,0.0173,0.9998,0.2378,0.0057,0.0302
468,Left,0,0.2155,0.0421,-0.9686,-0.1168,0.0030,0.0055,-0.0061,0.0068,-0.0058,-0.0164,-4.0010,-1.2867,8.8489,0.0000,0.0001,-0.0001,1.0000,-0.1000,-0.0322,0.2212
468,Pelvis,0,0.3187,-0.5455,0.4487,0.6321,-0.8016,0.8219,0.3765,2.4121,-2.2293,0.2884,9.4203,-3.8856,2.9973,-0.0100,0.0103,0.0047,0.9999,0.2367,-0.0953,0.0735
469,Left,0,0.2155,0.0420,-0.9686,-0.1170,0.0018,0.0018,-0.0116,-0.0097,0.0009,-0.0245,-3.9820,-1.2870,8.8486,0.0000,0.0000,-0.0001,1.0000,-0.0995,-0.0322,0.2212
469,Pelvis,0,0.3190,-0.5546,0.4411,0.6294,-0.5472,-0.7906,-0.0710,1.4619,-0.8390,1.2146,10.6019,-2.6326,2.2617,-0.0068,-0.0099,-0.0009,0.9999,0.2644,-0.0657,0.0596
470,Left,0,0.2155,0.0421,-0.9685,-0.1172,0.0024,-0.0025,-0.0152,-0.0017,-0.0029,-0.0204,-3.9912,-1.2879,8.8487,0.0000,-0.0000,-0.0002,1.0000,-0.0998,-0.0322,0.2212
470,Pelvis,0,0.3239,-0.5580,0.4371,0.6267,0.0408,-0.5743,-0.2525,-0.1522,0.4193,-0.1964,9.5156,-0.5074,1.3673,0.0005,-0.0072,-0.0032,1.0000,0.2376,-0.0135,0.0359
471,Left,0,0.2154,0.0420,-0.9685,-0.1173,0.0055,-0.0086,-0.0146,0.0154,0.0141,-0.0225,-3.9992,-1.3082,8.8398,0.0001,-0.0001,-0.0002,1.0000,-0.1000,-0.0327,0.2210
471,Pelvis,0,0.3335,-0.5515,0.4421,0.6239,1.0280,-0.0094,-0.2610,-0.0320,0.0477,-0.4530,9.2069,-0.6700,1.5470,0.0128,-0.0001,-0.0033,0.9999,0.2301,-0.0180,0.0385
472,Right,0,0.2099,-0.0718,-0.9663,0.1305,0.0130,0.0093,0.0019,0.0032,0.0942,-0.0770,-3.7869,1.7957,8.7879,0.0016,0.0012,0.0002,1.0000,-0.9443,0.4451,2.1988
472,Left,0,0.2153,0.0420,-0.9685,-0.1176,0.0074,-0.0123,-0.0152,0.0140,-0.0070,-0.0124,-4.0063,-1.2887,8.8507,0.0001,-0.0002,-0.0002,1.0000,-0.1002,-0.0322,0.2212
472,Pelvis,0,0.3446,-0.5438,0.4495,0.6192,1.2945,-0.0215,-0.1639,-0.0929,-0.0952,-0.0392,9.5910,-0.6035,1.7857,0.0162,-0.0003,-0.0020,0.9999,0.2397,-0.0163,0.0445
473,Right,0,0.2094,-0.0715,-0.9664,0.1306,0.0103,-0.0358,0.0271,0.0349,0.1064,-0.0734,-3.8251,1.7838,8.7780,0.0001,-0.0004,0.0003,1.0000,-0.0957,0.0445,0.2194
473,Left,0,0.2150,0.0419,-0.9686,-0.1178,0.0080,-0.0141,-0.0158,0.0011,0.0084,-0.0191,-3.9833,-1.2982,8.8523,0.0001,-0.0002,-0.0002,1.0000,-0.0996,-0.0325,0.2213
473,Pelvis,0,0.3530,-0.5384,0.4551,0.6151,0.9857,-0.0657,-0.0981,-0.0436,-0.2503,-0.1240,9.4832,-0.6191,1.9028,0.0123,-0.0008,-0.0012,0.9999,0.2370,-0.0164,0.0476
474,Right,0,0.2088,-0.0716,-0.9665,0.1307,0.0072,-0.0480,0.0315,-0.0094,0.1031,-0.0720,-3.7757,1.7791,8.8018,0.0001,-0.0006,0.0004,1.0000,-0.0945,0.0444,0.2200
474,Left,0,0.2148,0.0418,-0.9686,-0.1179,0.0055,-0.0098,-0.0134,0.0082,0.0184,-0.0265,-3.9801,-1.3080,8.8440,0.0001,-0.0001,-0.0002,1.0000,-0.0995,-0.0327,0.2211
474,Pelvis,0,0.3513,-0.5392,0.4519,0.6178,-0.3220,0.0475,-0.1729,-0.9860,0.8037,0.3874,10.1703,0.6417,1.3464,-0.0040,0.0006,-0.0022,1.0000,0.2543,0.0156,0.0334
475,Right,0,0.2080,-0.0719,-0.9666,0.1311,0.0115,-0.0474,0.0364,-0.0248,0.0393,-0.1079,-3.7147,1.8330,8.7765,0.0001,-0.0006,0.0005,1.0000,-0.0930,0.0458,0.2194
475,Left,0,0.2145,0.0418,-0.9687,-0.1180,0.0061,-0.0098,-0.0097,0.0072,0.0212,-0.0394,-3.9678,-1.3079,8.8354,0.0001,-0.0001,-0.0001,1.0000,-0.0992,-0.0327,0.2209
475,Pelvis,0,0.3342,-0.5425,0.4416,0.6316,-1.7895,0.7590,-0.1803,-0.3761,-0.1907,0.0606,9.6554,-0.2643,2.0894,-0.0224,0.0095,-0.0023,0.9997,0.2419,-0.0060,0.0501
476,Right,0,0.2073,-0.0716,-0.9667,0.1317,0.0097,-0.0413,0.0302,-0.0267,0.0368,-0.1221,-3.6936,1.8286,8.7706,0.0001,-0.0005,0.0004,1.0000,-0.0925,0.0457,0.2192
476,Left,0,0.2143,0.0420,-0.9687,-0.1181,0.0061,-0.0055,-0.0073,-0.0227,-0.0046,-0.0554,-3.9368,-1.2779,8.8359,0.0001,-0.0001,-0.0001,1.0000,-0.0984,-0.0320,0.2209
476,Pelvis,0,0.3261,-0.5494,0.4336,0.6355,-1.0809,-0.1155,-0.0046,1.7074,-0.6629,-0.0640,9.4682,-2.4075,1.7176,-0.0135,-0.0014,-0.0001,0.9999,0.2366,-0.0596,0.0441
477,Right,0,0.2065,-0.0717,-0.9668,0.1322,0.0079,-0.0340,0.0247,-0.0194,0.0320,-0.0900,-3.6941,1.8431,8.8027,0.0001,-0.0004,0.0003,1.0000,-0.0925,0.0460,0.2200
477,Left,0,0.2139,0.0420,-0.9688,-0.1181,0.0024,-0.0007,-0.0098,0.0094,0.0061,-0.0319,-3.9649,-1.2974,8.8465,0.0000,-0.0000,-0.0001,1.0000,-0.0991,-0.0324,0.2212
477,Pelvis,0,0.3224,-0.5463,0.4362,0.6383,-0.0189,0.4765,0.1087,0.3809,0.3640,0.9338,10.6102,-0.8801,1.5544,-0.0002,0.0060,0.0014,1.0000,0.2655,-0.0216,0.0373
478,Right,0,0.2060,-0.0716,-0.9669,0.1325,0.0060,-0.0279,0.0197,-0.0011,0.0652,-0.0756,-3.7156,1.8175,8.8152,0.0001,-0.0003,0.0002,1.0000,-0.0930,0.0454,0.2204
478,Left,0,0.2138,0.0421,-0.9688,-0.1182,0.0012,0.0036,-0.0086,-0.0055,0.0087,-0.0399,-3.9454,-1.2978,8.8463,0.0000,0.0000,-0.0001,1.0000,-0.0986,-0.0324,0.2212
478,Pelvis,0,0.3187,-0.5414,0.4401,0.6416,0.0814,0.6194,0.1142,0.5816,-0.2527,-0.0063,9.5408,-1.2842,1.9732,0.0010,0.0077,0.0014,1.0000,0.2389,-0.0318,0.0474
479,Right,0,0.2058,-0.0716,-0.9669,0.1327,0.0091,-0.0206,0.0197,-0.0021,0.0827,-0.0665,-3.7192,1.8016,8.8270,0.0001,-0.0003,0.0002,1.0000,-0.0930,0.0450,0.2207
479,Left,0,0.2139,0.0422,-0.9687,-0.1183,0.0018,0.0061,-0.0061,0.0006,-0.0043,-0.0372,-3.9561,-1.2885,8.8458,0.0000,0.0001,-0.0001,1.0000,-0.0989,-0.0322,0.2212
479,Pelvis,0,0.3154,-0.5398,0.4407,0.6442,-0.1376,0.3286,0.0333,-0.7939,-1.0940,-1.0158,8.3045,-0.3322,3.1842,-0.0017,0.0041,0.0004,1.0000,0.2079,-0.0081,0.0788
480,Right,0,0.2054,-0.0716,-0.9670,0.1329,0.0140,-0.0200,0.0173,-0.0007,0.0840,-0.0897,-3.7039,1.7958,8.8091,0.0002,-0.0003,0.0002,1.0000,-0.0927,0.0448,0.2202
480,Left,0,0.2138,0.0422,-0.9688,-0.1183,0.0043,0.0006,-0.0025,0.0315,0.0083,-0.0442,-3.9761,-1.3082,8.8263,0.0001,0.0000,-0.0000,1.0000,-0.0994,-0.0327,0.2207
480,Pelvis,0,0.3243,-0.5409,0.4419,0.6380,0.6448,-0.6167,-0.0812,1.2052,0.5633,-0.3625,9.3707,-1.5025,1.0046,0.0081,-0.0077,-0.0010,0.9999,0.2340,-0.0380,0.0266
481,Right,0,0.2052,-0.0716,-0.9670,0.1332,0.0183,-0.0206,0.0179,-0.0000,0.0827,-0.0682,-3.7086,1.8013,8.8297,0.0002,-0.0003,0.0002,1.0000,-0.0928,0.0450,0.2207
481,Left,0,0.2137,0.0422,-0.9688,-0.1184,0.0135,-0.0085,-0.0030,0.0350,0.0259,-0.0414,-3.9750,-1.3260,8.8273,0.0002,-0.0001,-0.0000,1.0000,-0.0994,-0.0332,0.2207
481,Pelvis,0,0.3285,-0.5403,0.4461,0.6334,0.5497,-0.2056,0.1679,-0.3971,0.3594,-0.0885,9.5692,-0.1290,1.8056,0.0069,-0.0026,0.0021,1.0000,0.2391,-0.0030,0.0457
482,Right,0,0.2050,-0.0719,-0.9670,0.1333,0.0280,-0.0108,0.0215,-0.0249,0.0909,-0.0915,-3.6749,1.7885,8.8208,0.0004,-0.0001,0.0003,1.0000,-0.0919,0.0446,0.2205
482,Left,0,0.2134,0.0420,-0.9688,-0.1184,0.0141,-0.0128,-0.0024,0.0037,0.0135,-0.0473,-3.9434,-1.3033,8.8382,0.0002,-0.0002,-0.0000,1.0000,-0.0986,-0.0326,0.2209
482,Pelvis,0,0.3293,-0.5410,0.4468,0.6318,0.1018,-0.1195,0.0704,-0.4594,0.1708,-0.5742,9.0605,-0.1281,1.8654,0.0013,-0.0015,0.0009,1.0000,0.2264,-0.0031,0.0470
483,Right,0,0.2051,-0.0722,-0.9669,0.1335,0.0365,-0.0029,0.0264,-0.0356,0.0528,-0.0935,-3.6527,1.8271,8.8196,0.0005,-0.0000,0.0003,1.0000,-0.0913,0.0455,0.2205
483,Left,0,0.2132,0.0419,-0.9689,-0.1184,0.0159,-0.0127,-0.0006,0.0122,0.0127,-0.0649,-3.9406,-1.3004,8.8204,0.0002,-0.0002,-0.0000,1.0000,-0.0986,-0.0326,0.2205
483,Pelvis,0,0.3290,-0.5410,0.4482,0.6310,0.0750,0.0115,0.1058,0.1124,0.5577,0.7383,10.4350,-0.6145,1.5434,0.0009,0.0001,0.0013,1.0000,0.2609,-0.0151,0.0385
484,Right,2,0.2054,-0.0724,-0.9668,0.1336,0.0292,-0.0011,0.0208,-0.0210,-0.0007,-0.1025,-3.6510,1.8850,8.7980,0.0004,-0.0000,0.0003,1.0000,-0.0913,0.0470,0.2200
484,Left,2,0.2133,0.0418,-0.9689,-0.1185,0.0171,-0.0109,0.0031,-0.0287,0.0276,-0.0491,-3.9085,-1.3057,8.8514,0.0002,-0.0001,0.0000,1.0000,-0.0977,-0.0327,0.2213
484,Pelvis,2,0.3293,-0.5406,0.4501,0.6299,0.1462,0.0107,0.1046,0.2880,0.1765,-0.0408,9.5929,-0.8911,1.6689,0.0018,0.0001,0.0013,1.0000,0.2399,-0.0220,0.0417
485,Right,2,0.2056,-0.0725,-0.9668,0.1335,0.0195,0.0031,0.0104,-0.0308,0.0023,-0.1168,-3.6407,1.8819,8.7872,0.0002,0.0000,0.0001,1.0000,-0.0910,0.0470,0.2197
485,Left,2,0.2134,0.0416,-0.9689,-0.1185,0.0116,0.0007,0.0055,-0.0361,-0.0033,-0.0316,-3.9175,-1.2726,8.8715,0.0001,0.0000,0.0001,1.0000,-0.0979,-0.0319,0.2218
485,Pelvis,2,0.3297,-0.5394,0.4522,0.6292,0.1826,0.0681,0.0792,0.2342,0.0206,0.0966,9.6898,-0.9267,1.8706,0.0023,0.0009,0.0010,1.0000,0.2423,-0.0230,0.0465
486,Right,2,0.2059,-0.0724,-0.9667,0.1335,0.0147,0.0128,0.0012,-0.0523,0.0013,-0.1259,-3.6226,1.8763,8.7860,0.0002,0.0002,0.0000,1.0000,-0.0905,0.0469,0.2197
486,Left,2,0.2138,0.0416,-0.9688,-0.1184,0.0018,0.0178,0.0066,-0.0396,0.0173,-0.0417,-3.9098,-1.2901,8.8613,0.0000,0.0002,0.0001,1.0000,-0.0977,-0.0323,0.2216
486,Pelvis,2,0.3306,-0.5374,0.4549,0.6284,0.2637,0.1069,0.0644,0.4374,0.0381,0.3480,9.9349,-1.1355,1.8550,0.0033,0.0013,0.0008,1.0000,0.2485,-0.0283,0.0460
487,Right,2,0.2060,-0.0724,-0.9667,0.1333,0.0122,0.0140,-0.0044,-0.0152,0.0102,-0.1113,-3.6647,1.8792,8.7839,0.0002,0.0002,-0.0001,1.0000,-0.0916,0.0470,0.2196
487,Left,2,0.2140,0.0416,-0.9687,-0.1183,-0.0026,0.0300,0.0089,-0.0392,0.0034,-0.0214,-3.9252,-1.2795,8.8784,-0.0000,0.0004,0.0001,1.0000,-0.0980,-0.0320,0.2220
487,Pelvis,2,0.3325,-0.5347,0.4584,0.6272,0.3813,0.1103,0.0611,0.3322,-0.1550,0.0697,9.6133,-1.0900,2.0476,0.0048,0.0014,0.0008,1.0000,0.2404,-0.0273,0.0507
488,Left,2,0.2144,0.0416,-0.9687,-0.1182,-0.0069,0.0373,0.0095,-0.0218,-0.0106,-0.0148,-3.9525,-1.2701,8.8749,-0.0001,0.0005,0.0001,1.0000,-0.0987,-0.0317,0.2219
488,Pelvis,2,0.3352,-0.5317,0.4624,0.6254,0.4686,0.0787,0.0655,0.2922,-0.1630,0.0387,9.5743,-1.0485,2.0968,0.0059,0.0010,0.0008,1.0000,0.2394,-0.0263,0.0520
489,Right,2,0.2063,-0.0725,-0.9667,0.1330,0.0086,0.0182,-0.0075,-0.0252,0.0614,-0.0941,-3.6807,1.8332,8.8061,0.0002,0.0005,-0.0002,1.0000,-0.1838,0.0916,0.4404
489,Left,2,0.2149,0.0417,-0.9686,-0.1181,-0.0075,0.0379,0.0089,0.0170,0.0127,-0.0380,-3.9805,-1.3008,8.8323,-0.0001,0.0005,0.0001,1.0000,-0.0994,-0.0325,0.2209
489,Pelvis,2,0.3379,-0.5283,0.4669,0.6235,0.5136,0.1058,0.0835,0.3858,-0.2513,-0.0661,9.4460,-1.1528,2.1572,0.0064,0.0013,0.0010,1.0000,0.2363,-0.0289,0.0534
490,Right,2,0.2066,-0.0725,-0.9667,0.1328,0.0073,0.0140,-0.0025,0.0057,0.1101,-0.0784,-3.7356,1.7962,8.8084,0.0001,0.0002,-0.0000,1.0000,-0.0934,0.0449,0.2202
490,Left,2,0.2152,0.0416,-0.9685,-0.1180,-0.0001,0.0245,0.0084,0.0332,0.0096,-0.0300,-4.0072,-1.3009,8.8291,-0.0000,0.0003,0.0001,1.0000,-0.1001,-0.0325,0.2208
490,Pelvis,2,0.3407,-0.5249,0.4720,0.6210,0.5614,0.1029,0.1254,0.6400,-0.0852,-0.3199,9.2287,-1.3167,1.9046,0.0070,0.0013,0.0016,1.0000,0.2308,-0.0329,0.0471
491,Left,2,0.2155,0.0416,-0.9684,-0.1180,0.0024,0.0159,0.0072,0.0332,-0.0010,-0.0402,-4.0120,-1.2902,8.8172,0.0000,0.0002,0.0001,1.0000,-0.1003,-0.0323,0.2204
491,Pelvis,2,0.3433,-0.5206,0.4781,0.6185,0.6269,0.1707,0.1680,0.2079,0.2678,-0.2928,9.3241,-0.8063,1.7761,0.0078,0.0021,0.0021,1.0000,0.2332,-0.0200,0.0437
492,Right,2,0.2070,-0.0726,-0.9665,0.1330,0.0171,0.0122,0.0061,-0.0156,0.1091,-0.0873,-3.7202,1.7914,8.8060,0.0004,0.0003,0.0002,1.0000,-0.1859,0.0894,0.4404
492,Left,2,0.2158,0.0416,-0.9684,-0.1179,0.0048,0.0086,0.0079,0.0250,0.0185,-0.0414,-4.0050,-1.3081,8.8163,0.0001,0.0001,0.0001,1.0000,-0.1001,-0.0327,0.2204
492,Pelvis,2,0.3462,-0.5174,0.4831,0.6157,0.5485,0.0732,0.1355,-1.4759,0.6756,-0.0410,9.6575,0.8878,2.0162,0.0069,0.0009,0.0017,1.0000,0.2414,0.0223,0.0503
493,Right,2,0.2072,-0.0726,-0.9665,0.1333,0.0287,0.0209,0.0146,-0.0218,0.0682,-0.0894,-3.7049,1.8288,8.8021,0.0004,0.0003,0.0002,1.0000,-0.0926,0.0456,0.2201
493,Left,2,0.2159,0.0417,-0.9684,-0.1177,0.0005,0.0153,0.0097,-0.0082,0.0184,-0.0142,-3.9884,-1.3060,8.8543,0.0000,0.0002,0.0001,1.0000,-0.0997,-0.0327,0.2214
493,Pelvis,2,0.3489,-0.5155,0.4862,0.6132,0.4200,-0.0284,0.0825,-0.4584,0.3683,0.3568,9.9692,-0.2050,2.0827,0.0053,-0.0004,0.0010,1.0000,0.2492,-0.0051,0.0521
494,Right,2,0.2077,-0.0727,-0.9663,0.1335,0.0305,0.0276,0.0157,-0.0143,0.0678,-0.0857,-3.7193,1.8368,8.7984,0.0004,0.0003,0.0002,1.0000,-0.0929,0.0458,0.2200
494,Left,2,0.2162,0.0417,-0.9683,-0.1177,-0.0044,0.0220,0.0047,-0.0145,0.0083,-0.0067,-3.9929,-1.2958,8.8620,-0.0001,0.0003,0.0001,1.0000,-0.0998,-0.0324,0.2216
494,Pelvis,2,0.3520,-0.5137,0.4894,0.6105,0.4268,-0.0485,0.0730,-0.0785,0.0345,0.1628,9.7014,-0.6466,2.2325,0.0053,-0.0006,0.0009,1.0000,0.2425,-0.0162,0.0559
495,Right,2,0.2080,-0.0729,-0.9662,0.1336,0.0268,0.0251,0.0103,-0.0008,0.0485,-0.0786,-3.7342,1.8638,8.7941,0.0003,0.0003,0.0001,1.0000,-0.0933,0.0465,0.2199
495,Left,2,0.2166,0.0418,-0.9683,-0.1176,-0.0050,0.0275,0.0053,-0.0303,0.0433,-0.0234,-3.9690,-1.3255,8.8501,-0.0001,0.0003,0.0001,1.0000,-0.0991,-0.0331,0.2213
495,Pelvis,2,0.3550,-0.5116,0.4922,0.6082,0.4100,-0.0322,0.0426,-0.4244,0.0433,-0.0446,9.5057,-0.2889,2.2704,0.0051,-0.0004,0.0005,1.0000,0.2376,-0.0074,0.0568
496,Right,2,0.2081,-0.0728,-0.9662,0.1337,0.0122,0.0146,0.0017,0.0208,0.0595,-0.0819,-3.7578,1.8588,8.7816,0.0002,0.0002,0.0000,1.0000,-0.0939,0.0464,0.2196
496,Left,2,0.2169,0.0419,-0.9682,-0.1176,-0.0032,0.0299,0.0035,0.0045,0.0137,-0.0190,-4.0147,-1.3069,8.8370,-0.0000,0.0004,0.0000,1.0000,-0.1003,-0.0327,0.2210
496,Pelvis,2,0.3574,-0.5099,0.4946,0.6064,0.3437,-0.0183,0.0353,-0.6456,-0.0181,-0.2286,9.3155,-0.0678,2.3428,0.0043,-0.0002,0.0004,1.0000,0.2329,-0.0018,0.0586
497,Right,2,0.2081,-0.0726,-0.9662,0.1337,-0.0018,0.0042,-0.0049,0.0109,0.0635,-0.0872,-3.7502,1.8500,8.7808,-0.0000,0.0001,-0.0001,1.0000,-0.0937,0.0463,0.2195
497,Left,2,0.2172,0.0419,-0.9681,-0.1175,-0.0038,0.0269,0.0029,0.0177,0.0115,-0.0238,-4.0308,-1.3075,8.8242,-0.0000,0.0003,0.0000,1.0000,-0.1007,-0.0327,0.2206
498,Right,2,0.2080,-0.0724,-0.9663,0.1337,-0.0097,-0.0056,-0.0073,-0.0034,0.1054,-0.0549,-3.7606,1.8100,8.8209,-0.0001,-0.0001,-0.0001,1.0000,-0.0940,0.0453,0.2205
498,Left,2,0.2174,0.0418,-0.9681,-0.1175,-0.0007,0.0226,0.0005,0.0227,-0.0001,-0.0124,-4.0461,-1.2980,8.8312,-0.0000,0.0003,0.0000,1.0000,-0.1011,-0.0324,0.2208
498,Pelvis,2,0.3617,-0.5071,0.4980,0.6034,0.2700,-0.0301,0.0118,-0.2992,0.0495,-0.2860,9.2745,-0.3636,2.1682,0.0068,-0.0008,0.0003,1.0000,0.4636,-0.0188,0.1086
499,Right,2,0.2079,-0.0723,-0.9663,0.1335,-0.0055,-0.0085,-0.0012,-0.0113,0.1100,-0.0691,-3.7494,1.7979,8.8124,-0.0001,-0.0001,-0.0000,1.0000,-0.0938,0.0450,0.2203
499,Left,2,0.2176,0.0417,-0.9680,-0.1176,0.0006,0.0128,-0.0019,0.0245,-0.0077,-0.0225,-4.0501,-1.2885,8.8195,0.0000,0.0002,-0.0000,1.0000,-0.1012,-0.0322,0.2205
499,Pelvis,2,0.3642,-0.5058,0.4994,0.6017,0.2848,-0.0629,-0.0100,0.0269,-0.0419,-0.2428,9.2950,-0.6856,2.1724,0.0036,-0.0008,-0.0001,1.0000,0.2323,-0.0174,0.0544
500,Right,2,0.2078,-0.0719,-0.9663,0.1338,-0.0013,-0.0109,0.0074,-0.0039,0.0933,-0.0762,-3.7470,1.8070,8.8035,-0.0000,-0.0001,0.0001,1.0000,-0.0937,0.0452,0.2201
500,Left,2,0.2177,0.0419,-0.9680,-0.1176,0.0043,0.0024,-0.0037,0.0285,-0.0014,-0.0300,-4.0515,-1.2981,8.8092,0.0001,0.0000,-0.0000,1.0000,-0.1013,-0.0325,0.2202
500,Pelvis,2,0.3672,-0.5049,0.5010,0.5994,0.3300,-0.1302,0.0155,0.1543,-0.0695,-0.0974,9.4335,-0.8105,2.1834,0.0041,-0.0016,0.0002,1.0000,0.2358,-0.0204,0.0549
501,Right,2,0.2075,-0.0717,-0.9663,0.1342,-0.0007,-0.0164,0.0105,-0.0214,0.0749,-0.0729,-3.7242,1.8175,8.8146,-0.0000,-0.0002,0.0001,1.0000,-0.0932,0.0454,0.2203
501,Left,2,0.2176,0.0419,-0.9680,-0.1177,0.0074,-0.0037,-0.0061,0.0252,-0.0228,-0.0327,-4.0514,-1.2778,8.8092,0.0001,-0.0000,-0.0001,1.0000,-0.1013,-0.0320,0.2202
501,Pelvis,2,0.3707,-0.5042,0.5028,0.5962,0.3630,-0.1850,0.0492,0.1246,-0.0304,-0.1373,9.4117,-0.7603,2.1144,0.0045,-0.0023,0.0006,1.0000,0.2352,-0.0191,0.0533
502,Right,2,0.2073,-0.0716,-0.9664,0.1343,0.0042,-0.0157,0.0142,-0.0155,0.0741,-0.0603,-3.7299,1.8193,8.8257,0.0001,-0.0002,0.0002,1.0000,-0.0933,0.0455,0.2206
502,Left,2,0.2174,0.0420,-0.9680,-0.1178,0.0111,-0.0147,-0.0109,0.0131,-0.0139,-0.0265,-4.0393,-1.2862,8.8204,0.0001,-0.0002,-0.0001,1.0000,-0.1010,-0.0322,0.2205
502,Pelvis,2,0.3743,-0.5035,0.5049,0.5928,0.3871,-0.1890,0.0691,0.1224,0.0361,-0.1108,9.4610,-0.7408,2.0208,0.0048,-0.0024,0.0009,1.0000,0.2364,-0.0186,0.0510
503,Right,2,0.2070,-0.0717,-0.9664,0.1345,0.0103,-0.0108,0.0173,-0.0043,0.0905,-0.0904,-3.7261,1.8022,8.7977,0.0001,-0.0001,0.0002,1.0000,-0.0932,0.0450,0.2199
503,Left,2,0.2170,0.0419,-0.9681,-0.1179,0.0141,-0.0159,-0.0108,0.0061,0.0158,-0.0088,-4.0256,-1.3135,8.8423,0.0002,-0.0002,-0.0001,1.0000,-0.1007,-0.0329,0.2210
503,Pelvis,2,0.3780,-0.5027,0.5072,0.5893,0.4076,-0.1817,0.0725,0.1261,0.0481,-0.0428,9.5377,-0.7441,1.9864,0.0051,-0.0023,0.0009,1.0000,0.2383,-0.0186,0.0501
504,Right,2,0.2066,-0.0718,-0.9664,0.1349,0.0103,-0.0114,0.0221,0.0187,0.0982,-0.0616,-3.7522,1.8068,8.8176,0.0001,-0.0001,0.0003,1.0000,-0.0938,0.0451,0.2204
504,Left,2,0.2166,0.0418,-0.9682,-0.1180,0.0147,-0.0147,-0.0090,0.0119,0.0083,-0.0406,-4.0122,-1.3018,8.8149,0.0002,-0.0002,-0.0001,1.0000,-0.1003,-0.0326,0.2203
504,Pelvis,2,0.3817,-0.5018,0.5095,0.5856,0.4174,-0.1845,0.0763,0.0273,-0.0249,0.0044,9.5778,-0.6629,2.0500,0.0052,-0.0023,0.0010,1.0000,0.2393,-0.0166,0.0517
505,Right,2,0.2065,-0.0719,-0.9664,0.1351,0.0145,-0.0132,0.0203,-0.0390,0.0456,-0.0946,-3.6702,1.8403,8.8084,0.0002,-0.0002,0.0003,1.0000,-0.0918,0.0459,0.2202
505,Left,2,0.2165,0.0417,-0.9682,-0.1181,0.0123,-0.0085,-0.0054,-0.0569,0.0242,-0.0508,-3.9411,-1.2987,8.8362,0.0002,-0.0001,-0.0001,1.0000,-0.0986,-0.0325,0.2209
506,Right,2,0.2062,-0.0721,-0.9664,0.1354,0.0170,-0.0024,0.0123,-0.0227,0.0651,-0.1121,-3.6774,1.8253,8.7892,0.0002,-0.0000,0.0002,1.0000,-0.0919,0.0456,0.2197
506,Left,2,0.2162,0.0417,-0.9683,-0.1182,0.0049,0.0006,-0.0043,0.0093,0.0198,-0.0432,-3.9985,-1.3079,8.8173,0.0001,0.0000,-0.0001,1.0000,-0.1000,-0.0327,0.2204
506,Pelvis,2,0.3885,-0.4999,0.5138,0.5789,0.3861,-0.1642,0.0740,-0.0724,-0.0421,0.1052,9.6864,-0.5719,2.0541,0.0097,-0.0041,0.0019,0.9999,0.4839,-0.0287,0.1044
507,Right,2,0.2063,-0.0722,-0.9664,0.1355,0.0152,0.0007,0.0123,-0.0186,0.0699,-0.0781,-3.6965,1.8308,8.8177,0.0002,0.0000,0.0002,1.0000,-0.0924,0.0457,0.2205
507,Left,2,0.2164,0.0416,-0.9682,-0.1182,0.0030,0.0043,-0.0043,-0.0002,0.0015,-0.0371,-3.9991,-1.2878,8.8267,0.0000,0.0001,-0.0001,1.0000,-0.1000,-0.0322,0.2207
507,Pelvis,2,0.3912,-0.4988,0.5159,0.5762,0.3387,-0.0990,0.0591,-0.1442,-0.0491,0.2361,9.8244,-0.5087,2.0554,0.0042,-0.0012,0.0007,1.0000,0.2456,-0.0128,0.0516
508,Right,2,0.2064,-0.0722,-0.9663,0.1356,0.0103,-0.0005,0.0104,-0.0105,0.0438,-0.1051,-3.6858,1.8534,8.7875,0.0001,-0.0000,0.0001,1.0000,-0.0922,0.0463,0.2197
508,Left,2,0.2164,0.0416,-0.9682,-0.1183,0.0006,0.0067,-0.0049,0.0083,-0.0015,-0.0331,-4.0099,-1.2879,8.8262,0.0000,0.0001,-0.0001,1.0000,-0.1002,-0.0322,0.2207
509,Right,2,0.2064,-0.0723,-0.9663,0.1356,0.0146,0.0062,0.0085,-0.0062,0.0993,-0.0758,-3.7159,1.8091,8.8168,0.0002,0.0001,0.0001,1.0000,-0.0929,0.0452,0.2204
509,Left,2,0.2165,0.0416,-0.9682,-0.1183,-0.0031,0.0140,-0.0019,-0.0028,0.0185,-0.0167,-4.0022,-1.3077,8.8450,-0.0000,0.0002,-0.0000,1.0000,-0.1000,-0.0327,0.2211
509,Pelvis,2,0.3952,-0.4952,0.5203,0.5726,0.3127,-0.0051,0.0396,0.0299,0.0390,0.2417,9.8443,-0.6600,1.9355,0.0078,-0.0001,0.0010,1.0000,0.4922,-0.0333,0.0966
510,Right,2,0.2065,-0.0723,-0.9663,0.1358,0.0177,0.0110,0.0079,-0.0160,0.0627,-0.0780,-3.6977,1.8426,8.8147,0.0002,0.0001,0.0001,1.0000,-0.0924,0.0460,0.2204
510,Left,2,0.2167,0.0417,-0.9681,-0.1183,-0.0025,0.0171,0.0017,-0.0095,0.0296,-0.0193,-3.9958,-1.3180,8.8435,-0.0000,0.0002,0.0000,1.0000,-0.0998,-0.0329,0.2211
510,Pelvis,2,0.3972,-0.4930,0.5229,0.5708,0.3411,0.0290,0.0379,0.1234,-0.0125,0.1194,9.7097,-0.7439,1.9572,0.0043,0.0004,0.0005,1.0000,0.2428,-0.0187,0.0488
511,Right,2,0.2065,-0.0723,-0.9663,0.1359,0.0140,0.0098,0.0085,0.0010,0.0707,-0.0939,-3.7092,1.8367,8.7937,0.0002,0.0001,0.0001,1.0000,-0.0927,0.0459,0.2199
511,Left,2,0.2167,0.0417,-0.9681,-0.1183,0.0006,0.0122,-0.0001,0.0118,0.0171,-0.0432,-4.0088,-1.3089,8.8125,0.0000,0.0002,-0.0000,1.0000,-0.1002,-0.0327,0.2203
511,Pelvis,2,0.3991,-0.4907,0.5255,0.5690,0.3433,0.0366,0.0487,-0.0016,0.0634,0.0147,9.6246,-0.5978,1.8949,0.0043,0.0005,0.0006,1.0000,0.2406,-0.0150,0.0472
512,Right,2,0.2068,-0.0723,-0.9662,0.1359,0.0183,0.0086,0.0104,-0.0003,0.0881,-0.0846,-3.7208,1.8219,8.8022,0.0002,0.0001,0.0001,1.0000,-0.0930,0.0455,0.2201
512,Left,2,0.2170,0.0418,-0.9681,-0.1183,0.0024,0.0061,-0.0007,0.0023,0.0050,-0.0357,-4.0109,-1.2987,8.8213,0.0000,0.0001,-0.0000,1.0000,-0.1003,-0.0325,0.2205
512,Pelvis,2,0.4007,-0.4885,0.5283,0.5673,0.3288,0.0575,0.0621,-0.0771,0.0446,-0.0572,9.5500,-0.5187,1.9252,0.0041,0.0007,0.0008,1.0000,0.2388,-0.0130,0.0479
513,Right,2,0.2069,-0.0724,-0.9662,0.1360,0.0189,0.0080,0.0110,-0.0127,0.0823,-0.0793,-3.7125,1.8271,8.8104,0.0002,0.0001,0.0001,1.0000,-0.0928,0.0456,0.2203
513,Left,2,0.2170,0.0418,-0.9681,-0.1183,0.0030,0.0031,0.0012,0.0078,0.0107,-0.0216,-4.0217,-1.3078,8.8308,0.0000,0.0000,0.0000,1.0000,-0.1005,-0.0327,0.2208
513,Pelvis,2,0.4021,-0.4863,0.5310,0.5656,0.3172,0.0628,0.0624,-0.0272,0.0101,-0.0264,9.5674,-0.5737,1.9772,0.0040,0.0008,0.0008,1.0000,0.2392,-0.0144,0.0492
514,Right,2,0.2069,-0.0723,-0.9661,0.1363,0.0164,0.0056,0.0116,0.0026,0.0848,-0.0631,-3.7331,1.8325,8.8186,0.0002,0.0001,0.0001,1.0000,-0.0933,0.0458,0.2205
514,Left,2,0.2170,0.0419,-0.9681,-0.1183,0.0036,0.0043,-0.0000,-0.0085,0.0132,-0.0295,-4.0030,-1.3068,8.8306,0.0000,0.0001,-0.0000,1.0000,-0.1001,-0.0327,0.2208
514,Pelvis,2,0.4036,-0.4841,0.5336,0.5640,0.3124,0.0578,0.0619,0.0124,-0.0209,0.0129,9.5938,-0.6184,2.0294,0.0039,0.0007,0.0008,1.0000,0.2399,-0.0155,0.0505
515,Right,2,0.2069,-0.0724,-0.9661,0.1366,0.0177,0.0092,0.0116,-0.0264,0.0621,-0.0760,-3.6951,1.8468,8.8172,0.0002,0.0001,0.0001,1.0000,-0.0924,0.0461,0.2205
515,Left,2,0.2170,0.0420,-0.9681,-0.1182,0.0012,0.0079,0.0012,0.0022,0.0310,-0.0355,-4.0041,-1.3259,8.8206,0.0000,0.0001,0.0000,1.0000,-0.1001,-0.0332,0.2205
515,Pelvis,2,0.4049,-0.4822,0.5361,0.5623,0.2956,0.0424,0.0654,-0.0961,-0.0282,0.0760,9.6546,-0.5155,2.0784,0.0037,0.0005,0.0008,1.0000,0.2414,-0.0129,0.0518
516,Right,2,0.2072,-0.0725,-0.9660,0.1366,0.0214,0.0165,0.0090,-0.0160,0.0748,-0.0614,-3.7171,1.8427,8.8250,0.0003,0.0002,0.0001,1.0000,-0.0929,0.0460,0.2207
516,Left,2,0.2172,0.0420,-0.9680,-0.1182,-0.0019,0.0183,0.0017,-0.0025,0.0084,-0.0167,-4.0171,-1.3061,8.8385,-0.0000,0.0002,0.0000,1.0000,-0.1004,-0.0326,0.2210
516,Pelvis,2,0.4059,-0.4805,0.5383,0.5609,0.2435,0.0527,0.0674,-0.3371,-0.0778,0.0976,9.6715,-0.2843,2.1714,0.0030,0.0007,0.0008,1.0000,0.2418,-0.0071,0.0541
517,Right,2,0.2074,-0.0725,-0.9659,0.1368,0.0202,0.0171,0.0072,-0.0152,0.0846,-0.0951,-3.7106,1.8276,8.7938,0.0003,0.0002,0.0001,1.0000,-0.0927,0.0456,0.2199
517,Left,2,0.2175,0.0421,-0.9680,-0.1182,-0.0013,0.0189,0.0035,0.0132,0.0252,-0.0403,-4.0210,-1.3261,8.8075,-0.0000,0.0002,0.0000,1.0000,-0.1005,-0.0332,0.2202
517,Pelvis,2,0.4064,-0.4796,0.5397,0.5600,0.1481,0.0280,0.0547,-0.5053,-0.1780,-0.0749,9.4861,-0.1196,2.2608,0.0019,0.0003,0.0007,1.0000,0.2372,-0.0029,0.0564
518,Right,2,0.2075,-0.0725,-0.9659,0.1370,0.0183,0.0122,0.0073,0.0079,0.0908,-0.0752,-3.7428,1.8330,8.8010,0.0002,0.0002,0.0001,1.0000,-0.0935,0.0458,0.2200
518,Left,2,0.2176,0.0421,-0.9679,-0.1182,0.0060,0.0129,0.0018,0.0178,0.0211,-0.0276,-4.0344,-1.3253,8.8157,0.0001,0.0002,0.0000,1.0000,-0.1008,-0.0332,0.2204
518,Pelvis,2,0.4065,-0.4795,0.5401,0.5595,0.0425,-0.0052,0.0325,-0.5102,-0.1642,-0.2778,9.2905,-0.1059,2.2084,0.0005,-0.0001,0.0004,1.0000,0.2323,-0.0026,0.0552
519,Right,2,0.2075,-0.0725,-0.9658,0.1372,0.0195,0.0043,0.0080,0.0135,0.1042,-0.0963,-3.7443,1.8179,8.7804,0.0002,0.0001,0.0001,1.0000,-0.0936,0.0454,0.2195
519,Left,2,0.2176,0.0421,-0.9679,-0.1181,0.0116,0.0038,0.0049,0.0212,0.0408,-0.0463,-4.0263,-1.3428,8.7960,0.0001,0.0000,0.0001,1.0000,-0.1006,-0.0336,0.2199
519,Pelvis,2,0.4061,-0.4801,0.5398,0.5597,-0.0653,-0.0103,0.0096,-0.4640,-0.0863,-0.3000,9.2839,-0.1492,2.1217,-0.0008,-0.0001,0.0001,1.0000,0.2321,-0.0037,0.0531
520,Right,2,0.2077,-0.0727,-0.9658,0.1371,0.0195,0.0012,0.0080,0.0072,0.0981,-0.1088,-3.7346,1.8225,8.7696,0.0002,0.0000,0.0001,1.0000,-0.0934,0.0455,0.2193
520,Left,2,0.2177,0.0419,-0.9679,-0.1182,0.0171,-0.0048,0.0044,0.0173,0.0097,-0.0378,-4.0364,-1.3098,8.8058,0.0002,-0.0001,0.0001,1.0000,-0.1009,-0.0328,0.2201
520,Pelvis,2,0.4052,-0.4812,0.5388,0.5604,-0.1458,-0.0149,0.0004,-0.4312,0.0131,-0.1676,9.4335,-0.1880,2.0462,-0.0018,-0.0002,0.0000,1.0000,0.2358,-0.0046,0.0512
521,Right,2,0.2075,-0.0726,-0.9658,0.1374,0.0183,-0.0024,0.0093,-0.0089,0.0713,-0.0950,-3.7146,1.8474,8.7879,0.0002,-0.0000,0.0001,1.0000,-0.0929,0.0461,0.2197
521,Left,2,0.2174,0.0419,-0.9680,-0.1181,0.0190,-0.0115,0.0026,0.0008,0.0011,-0.0471,-4.0153,-1.2955,8.8071,0.0002,-0.0001,0.0000,1.0000,-0.1004,-0.0324,0.2202
521,Pelvis,2,0.4038,-0.4825,0.5376,0.5613,-0.1937,-0.0045,0.0018,-0.2919,0.1673,-0.0082,9.6164,-0.3310,1.9119,-0.0024,-0.0001,0.0000,1.0000,0.2404,-0.0082,0.0478
522,Right,2,0.2077,-0.0727,-0.9658,0.1373,0.0195,0.0030,0.0056,-0.0217,0.0563,-0.0880,-3.7046,1.8622,8.7966,0.0002,0.0000,0.0001,1.0000,-0.0926,0.0465,0.2199
522,Left,2,0.2175,0.0418,-0.9680,-0.1181,0.0110,-0.0030,0.0025,-0.0241,0.0017,-0.0247,-4.0041,-1.2914,8.8377,0.0001,-0.0000,0.0000,1.0000,-0.1001,-0.0323,0.2209
522,Pelvis,2,0.4024,-0.4836,0.5367,0.5623,-0.1805,0.0178,0.0040,-0.1037,0.1178,0.1960,9.7965,-0.5455,1.9821,-0.0023,0.0002,0.0001,1.0000,0.2449,-0.0135,0.0495
523,Right,2,0.2078,-0.0729,-0.9658,0.1371,0.0184,0.0097,0.0012,-0.0086,0.0394,-0.0811,-3.7154,1.8863,8.7945,0.0002,0.0001,0.0000,1.0000,-0.0929,0.0471,0.2199
523,Left,2,0.2176,0.0417,-0.9680,-0.1182,0.0030,0.0073,0.0006,-0.0217,-0.0096,-0.0133,-4.0146,-1.2799,8.8473,0.0000,0.0001,0.0000,1.0000,-0.1003,-0.0320,0.2212
523,Pelvis,2,0.4015,-0.4843,0.5361,0.5629,-0.1157,0.0133,0.0074,0.0363,0.0401,0.2523,9.8278,-0.7044,2.0553,-0.0014,0.0002,0.0001,1.0000,0.2457,-0.0175,0.0514
524,Right,2,0.2080,-0.0730,-0.9657,0.1370,0.0141,0.0115,-0.0001,-0.0238,0.0400,-0.0989,-3.6982,1.8796,8.7835,0.0002,0.0001,-0.0000,1.0000,-0.0924,0.0470,0.2196
524,Left,2,0.2178,0.0417,-0.9679,-0.1182,-0.0001,0.0134,0.0011,-0.0045,0.0189,-0.0355,-4.0165,-1.3092,8.8175,-0.0000,0.0002,0.0000,1.0000,-0.1004,-0.0327,0.2205
524,Pelvis,2,0.4012,-0.4846,0.5359,0.5630,-0.0324,-0.0044,0.0084,0.1395,0.0092,0.0866,9.6546,-0.8043,2.0388,-0.0004,-0.0001,0.0001,1.0000,0.2414,-0.0201,0.0510
525,Right,2,0.2083,-0.0728,-0.9657,0.1371,0.0080,0.0121,-0.0044,-0.0073,0.0629,-0.0823,-3.7305,1.8629,8.7919,0.0001,0.0002,-0.0001,1.0000,-0.0932,0.0466,0.2198
525,Left,2,0.2182,0.0418,-0.9678,-0.1181,-0.0013,0.0208,0.0029,-0.0253,-0.0098,-0.0349,-4.0109,-1.2796,8.8250,-0.0000,0.0003,0.0000,1.0000,-0.1002,-0.0320,0.2207
525,Pelvis,2,0.4016,-0.4843,0.5362,0.5627,0.0477,-0.0083,0.0051,0.0835,0.0125,-0.1182,9.4582,-0.7355,1.9981,0.0006,-0.0001,0.0001,1.0000,0.2365,-0.0184,0.0500
526,Right,2,0.2084,-0.0728,-0.9657,0.1369,0.0037,0.0067,-0.0019,0.0175,0.0881,-0.0836,-3.7621,1.8443,8.7812,0.0000,0.0001,-0.0000,1.0000,-0.0940,0.0461,0.2195
526,Left,2,0.2184,0.0418,-0.9678,-0.1182,-0.0031,0.0207,0.0004,0.0105,-0.0055,-0.0392,-4.0446,-1.2903,8.8033,-0.0000,0.0003,0.0000,1.0000,-0.1011,-0.0322,0.2201
526,Pelvis,2,0.4024,-0.4838,0.5367,0.5621,0.0956,-0.0236,0.0026,-0.1407,-0.0225,-0.2182,9.3638,-0.5069,2.0343,0.0012,-0.0003,0.0000,1.0000,0.2341,-0.0127,0.0509
527,Right,2,0.2083,-0.0726,-0.9657,0.1370,-0.0012,-0.0030,0.0019,0.0002,0.0940,-0.0710,-3.7530,1.8354,8.8009,-0.0000,-0.0000,0.0000,1.0000,-0.0938,0.0459,0.2200
527,Left,2,0.2186,0.0418,-0.9677,-0.1182,-0.0043,0.0158,-0.0038,0.0012,-0.0163,-0.0230,-4.0488,-1.2812,8.8207,-0.0001,0.0002,-0.0000,1.0000,-0.1012,-0.0320,0.2205
527,Pelvis,2,0.4034,-0.4836,0.5370,0.5613,0.0899,-0.0542,0.0038,-0.3130,-0.0726,-0.1812,9.3987,-0.3390,2.1018,0.0011,-0.0007,0.0000,1.0000,0.2349,-0.0085,0.0527
528,Right,2,0.2082,-0.0724,-0.9657,0.1371,-0.0031,-0.0116,0.0014,-0.0007,0.1084,-0.0831,-3.7514,1.8152,8.7925,-0.0000,-0.0001,0.0000,1.0000,-0.0938,0.0454,0.2198
528,Left,2,0.2187,0.0419,-0.9677,-0.1183,-0.0006,0.0066,-0.0074,0.0153,-0.0101,-0.0264,-4.0607,-1.2923,8.8098,-0.0000,0.0001,-0.0001,1.0000,-0.1015,-0.0323,0.2203
528,Pelvis,2,0.4043,-0.4837,0.5370,0.5605,0.0603,-0.0743,0.0012,-0.2800,-0.1127,-0.0907,9.4804,-0.3780,2.1415,0.0008,-0.0009,0.0000,1.0000,0.2370,-0.0095,0.0538
529,Right,2,0.2078,-0.0722,-0.9658,0.1373,-0.0037,-0.0146,0.0008,-0.0074,0.0941,-0.0762,-3.7387,1.8245,8.8035,-0.0000,-0.0002,0.0000,1.0000,-0.0935,0.0456,0.2201
529,Left,2,0.2187,0.0420,-0.9677,-0.1183,-0.0006,0.0066,-0.0074,0.0100,0.0214,-0.0389,-4.0420,-1.3225,8.8000,-0.0000,0.0001,-0.0001,1.0000,-0.1010,-0.0331,0.2200
529,Pelvis,2,0.4051,-0.4840,0.5367,0.5600,0.0255,-0.0745,-0.0082,-0.2455,-0.1566,-0.0193,9.5435,-0.4177,2.1780,0.0003,-0.0009,-0.0001,1.0000,0.2385,-0.0105,0.0547
530,Right,2,0.2076,-0.0720,-0.9658,0.1373,-0.0019,-0.0177,0.0021,0.0034,0.1062,-0.0616,-3.7548,1.8148,8.8149,-0.0000,-0.0002,0.0000,1.0000,-0.0939,0.0454,0.2204
530,Left,2,0.2187,0.0421,-0.9677,-0.1185,0.0049,0.0018,-0.0085,-0.0019,0.0130,-0.0443,-4.0330,-1.3130,8.7996,0.0001,0.0000,-0.0001,1.0000,-0.1008,-0.0328,0.2200
530,Pelvis,2,0.4056,-0.4847,0.5360,0.5597,-0.0195,-0.0858,-0.0148,-0.3087,-0.1726,-0.0109,9.5556,-0.3536,2.1832,-0.0002,-0.0011,-0.0002,1.0000,0.2388,-0.0089,0.0548
531,Right,2,0.2073,-0.0718,-0.9659,0.1376,-0.0025,-0.0165,0.0008,-0.0114,0.0934,-0.0903,-3.7215,1.8135,8.7974,-0.0000,-0.0002,0.0000,1.0000,-0.0931,0.0453,0.2199
531,Left,2,0.2185,0.0422,-0.9677,-0.1185,0.0049,-0.0019,-0.0097,0.0052,0.0076,-0.0315,-4.0425,-1.3127,8.8094,0.0001,-0.0000,-0.0001,1.0000,-0.1011,-0.0328,0.2202
531,Pelvis,2,0.4059,-0.4857,0.5349,0.5597,-0.0737,-0.0931,-0.0241,-0.2769,-0.1700,-0.0189,9.5518,-0.3818,2.1540,-0.0009,-0.0012,-0.0003,1.0000,0.2387,-0.0096,0.0541
532,Right,2,0.2071,-0.0717,-0.9659,0.1377,0.0017,-0.0164,0.0070,-0.0019,0.0889,-0.0546,-3.7375,1.8246,8.8278,0.0000,-0.0002,0.0001,1.0000,-0.0935,0.0456,0.2207
532,Left,2,0.2184,0.0422,-0.9677,-0.1186,0.0062,-0.0025,-0.0103,0.0019,0.0092,-0.0443,-4.0319,-1.3126,8.8001,0.0001,-0.0000,-0.0001,1.0000,-0.1008,-0.0328,0.2200
532,Pelvis,2,0.4058,-0.4868,0.5336,0.5600,-0.1166,-0.0767,-0.0268,-0.2133,-0.1232,0.0264,9.6077,-0.4417,2.0894,-0.0015,-0.0010,-0.0003,1.0000,0.2401,-0.0110,0.0525
533,Right,2,0.2068,-0.0716,-0.9660,0.1379,0.0005,-0.0206,0.0113,0.0111,0.1108,-0.0506,-3.7527,1.8064,8.8298,0.0000,-0.0003,0.0001,1.0000,-0.0939,0.0451,0.2207
533,Left,2,0.2183,0.0422,-0.9677,-0.1188,0.0080,-0.0062,-0.0115,0.0131,-0.0059,-0.0290,-4.0503,-1.3024,8.8103,0.0001,-0.0001,-0.0001,1.0000,-0.1013,-0.0326,0.2202
534,Right,2,0.2063,-0.0715,-0.9660,0.1384,0.0004,-0.0302,0.0188,0.0254,0.1284,-0.0679,-3.7562,1.7879,8.8132,0.0000,-0.0004,0.0002,1.0000,-0.0940,0.0447,0.2203
534,Left,2,0.2181,0.0422,-0.9677,-0.1189,0.0080,-0.0080,-0.0115,0.0159,0.0019,-0.0275,-4.0483,-1.3116,8.8114,0.0001,-0.0001,-0.0001,1.0000,-0.1012,-0.0328,0.2203
535,Right,2,0.2058,-0.0716,-0.9661,0.1387,-0.0003,-0.0393,0.0232,0.0012,0.0787,-0.0761,-3.7081,1.8285,8.8156,-0.0000,-0.0005,0.0003,1.0000,-0.0928,0.0457,0.2203
535,Left,2,0.2179,0.0421,-0.9678,-0.1191,0.0105,-0.0135,-0.0157,0.0389,-0.0049,-0.0068,-4.0748,-1.3110,8.8223,0.0001,-0.0002,-0.0002,1.0000,-0.1019,-0.0328,0.2205
536,Right,2,0.2053,-0.0715,-0.9661,0.1390,0.0009,-0.0375,0.0207,-0.0386,0.0929,-0.0954,-3.6599,1.8009,8.8203,0.0000,-0.0005,0.0003,1.0000,-0.0916,0.0450,0.2205
536,Left,2,0.2176,0.0421,-0.9678,-0.1193,0.0111,-0.0160,-0.0187,-0.0038,0.0053,-0.0267,-4.0222,-1.3099,8.8245,0.0001,-0.0002,-0.0002,1.0000,-0.1006,-0.0328,0.2206
537,Right,2,0.2049,-0.0717,-0.9662,0.1392,0.0132,-0.0266,0.0218,-0.0230,0.1064,-0.0897,-3.6715,1.7949,8.8231,0.0002,-0.0003,0.0003,1.0000,-0.0919,0.0448,0.2206
537,Left,2,0.2174,0.0421,-0.9678,-0.1195,0.0087,-0.0160,-0.0163,-0.0007,-0.0041,-0.0369,-4.0181,-1.2999,8.8165,0.0001,-0.0002,-0.0002,1.0000,-0.1005,-0.0325,0.2204
538,Right,2,0.2045,-0.0718,-0.9662,0.1396,0.0181,-0.0254,0.0242,0.0082,0.0543,-0.1174,-3.6639,1.8480,8.7842,0.0002,-0.0003,0.0003,1.0000,-0.0917,0.0461,0.2196
538,Left,2,0.2171,0.0422,-0.9679,-0.1197,0.0062,-0.0123,-0.0139,-0.0212,0.0154,-0.0244,-3.9949,-1.3187,8.8382,0.0001,-0.0002,-0.0002,1.0000,-0.0999,-0.0330,0.2209
539,Right,2,0.2040,-0.0720,-0.9662,0.1399,0.0175,-0.0278,0.0243,-0.0117,0.1058,-0.0771,-3.6676,1.8070,8.8361,0.0002,-0.0003,0.0003,1.0000,-0.0918,0.0451,0.2209
539,Left,2,0.2168,0.0423,-0.9679,-0.1198,0.0056,-0.0111,-0.0164,0.0078,0.0112,-0.0341,-4.0112,-1.3195,8.8199,0.0001,-0.0001,-0.0002,1.0000,-0.1003,-0.0330,0.2205
540,Right,2,0.2038,-0.0723,-0.9662,0.1400,0.0187,-0.0223,0.0236,-0.0318,0.0645,-0.1047,-3.6214,1.8413,8.8173,0.0002,-0.0003,0.0003,1.0000,-0.0906,0.0460,0.2204
540,Left,2,0.2167,0.0422,-0.9679,-0.1201,0.0044,-0.0099,-0.0170,-0.0170,0.0257,-0.0230,-3.9888,-1.3292,8.8410,0.0001,-0.0001,-0.0002,1.0000,-0.0998,-0.0332,0.2210
541,Right,2,0.2037,-0.0725,-0.9662,0.1402,0.0188,-0.0157,0.0204,-0.0261,0.0728,-0.1026,-3.6261,1.8378,8.8184,0.0002,-0.0002,0.0003,1.0000,-0.0907,0.0459,0.2205
541,Left,2,0.2168,0.0423,-0.9679,-0.1203,0.0037,-0.0050,-0.0140,-0.0107,0.0252,-0.0406,-3.9865,-1.3302,8.8223,0.0000,-0.0001,-0.0002,1.0000,-0.0997,-0.0332,0.2205
542,Right,2,0.2036,-0.0725,-0.9662,0.1403,0.0194,-0.0091,0.0142,-0.0263,0.0692,-0.1026,-3.6226,1.8436,8.8187,0.0002,-0.0001,0.0002,1.0000,-0.0906,0.0460,0.2205
542,Left,2,0.2168,0.0424,-0.9678,-0.1204,0.0037,0.0005,-0.0110,-0.0019,0.0304,-0.0352,-3.9953,-1.3405,8.8228,0.0000,0.0000,-0.0001,1.0000,-0.0999,-0.0335,0.2206
543,Right,2,0.2036,-0.0725,-0.9662,0.1407,0.0189,-0.0047,0.0172,-0.0032,0.0945,-0.0733,-3.6598,1.8310,8.8384,0.0002,-0.0001,0.0002,1.0000,-0.0915,0.0457,0.2210
543,Left,2,0.2168,0.0426,-0.9678,-0.1205,0.0074,-0.0019,-0.0079,-0.0028,0.0041,-0.0252,-4.0049,-1.3207,8.8324,0.0001,-0.0000,-0.0001,1.0000,-0.1001,-0.0330,0.2208
544,Right,2,0.2035,-0.0727,-0.9662,0.1407,0.0201,-0.0066,0.0172,0.0047,0.0913,-0.0911,-3.6577,1.8362,8.8185,0.0003,-0.0001,0.0002,1.0000,-0.0915,0.0458,0.2205
544,Left,2,0.2168,0.0425,-0.9678,-0.1207,0.0099,-0.0086,-0.0103,0.0005,-0.0148,-0.0457,-4.0036,-1.3005,8.8133,0.0001,-0.0001,-0.0001,1.0000,-0.1001,-0.0325,0.2203
545,Right,2,0.2034,-0.0728,-0.9661,0.1411,0.0201,-0.0053,0.0209,-0.0185,0.1061,-0.0711,-3.6461,1.8237,8.8481,0.0003,-0.0001,0.0003,1.0000,-0.0912,0.0455,0.2212
545,Left,2,0.2165,0.0426,-0.9679,-0.1208,0.0093,-0.0116,-0.0109,0.0263,-0.0186,-0.0020,-4.0401,-1.3092,8.8439,0.0001,-0.0001,-0.0001,1.0000,-0.1010,-0.0327,0.2211
546,Right,2,0.2034,-0.0729,-0.9661,0.1413,0.0219,-0.0077,0.0215,-0.0031,0.0727,-0.0842,-3.6432,1.8588,8.8272,0.0003,-0.0001,0.0003,1.0000,-0.0911,0.0464,0.2207
546,Left,2,0.2163,0.0427,-0.9679,-0.1209,0.0093,-0.0141,-0.0127,0.0070,0.0080,-0.0414,-3.9974,-1.3279,8.8168,0.0001,-0.0002,-0.0002,1.0000,-0.1000,-0.0332,0.2204
547,Right,2,0.2032,-0.0731,-0.9661,0.1416,0.0188,-0.0108,0.0191,-0.0022,0.0673,-0.1057,-3.6304,1.8643,8.8077,0.0002,-0.0001,0.0002,1.0000,-0.0908,0.0465,0.2202
547,Left,2,0.2161,0.0427,-0.9679,-0.1210,0.0105,-0.0135,-0.0102,-0.0287,0.0252,-0.0470,-3.9548,-1.3359,8.8286,0.0001,-0.0002,-0.0001,1.0000,-0.0989,-0.0334,0.2207
548,Right,2,0.2030,-0.0731,-0.9661,0.1417,0.0158,-0.0108,0.0155,-0.0257,0.0589,-0.0951,-3.6077,1.8701,8.8274,0.0002,-0.0001,0.0002,1.0000,-0.0902,0.0467,0.2207
548,Left,2,0.2160,0.0428,-0.9679,-0.1211,0.0086,-0.0092,-0.0066,-0.0158,-0.0017,-0.0420,-3.9718,-1.3154,8.8296,0.0001,-0.0001,-0.0001,1.0000,-0.0993,-0.0329,0.2207
549,Right,2,0.2029,-0.0734,-0.9661,0.1417,0.0164,-0.0078,0.0130,-0.0069,0.0918,-0.1104,-3.6249,1.8453,8.8090,0.0002,-0.0001,0.0002,1.0000,-0.0907,0.0461,0.2202
549,Left,2,0.2157,0.0426,-0.9680,-0.1212,0.0092,-0.0091,-0.0042,0.0009,0.0105,-0.0670,-3.9694,-1.3243,8.8017,0.0001,-0.0001,-0.0001,1.0000,-0.0993,-0.0331,0.2200
550,Right,2,0.2029,-0.0736,-0.9661,0.1419,0.0219,-0.0030,0.0141,-0.0286,0.0973,-0.0888,-3.6136,1.8419,8.8382,0.0003,-0.0000,0.0002,1.0000,-0.0904,0.0460,0.2210
550,Left,2,0.2156,0.0427,-0.9680,-0.1212,0.0086,-0.0079,-0.0036,-0.0050,0.0140,-0.0263,-3.9772,-1.3318,8.8420,0.0001,-0.0001,-0.0000,1.0000,-0.0995,-0.0333,0.2210
551,Right,2,0.2028,-0.0737,-0.9660,0.1421,0.0244,0.0042,0.0103,-0.0196,0.0631,-0.1055,-3.6028,1.8765,8.8165,0.0003,0.0001,0.0001,1.0000,-0.0901,0.0468,0.2204
551,Left,2,0.2154,0.0427,-0.9680,-0.1212,0.0055,-0.0049,-0.0024,-0.0139,0.0044,-0.0317,-3.9660,-1.3206,8.8427,0.0001,-0.0001,-0.0000,1.0000,-0.0992,-0.0330,0.2211
552,Right,2,0.2029,-0.0739,-0.9660,0.1421,0.0220,0.0048,0.0079,-0.0086,0.0766,-0.0909,-3.6231,1.8734,8.8251,0.0003,0.0001,0.0001,1.0000,-0.0906,0.0468,0.2206
552,Left,2,0.2154,0.0427,-0.9680,-0.1212,0.0067,-0.0006,-0.0012,-0.0094,0.0041,-0.0405,-3.9653,-1.3197,8.8334,0.0001,-0.0000,-0.0000,1.0000,-0.0991,-0.0330,0.2208
553,Right,2,0.2030,-0.0739,-0.9659,0.1424,0.0184,0.0048,0.0054,0.0086,0.0973,-0.0956,-3.6438,1.8589,8.8147,0.0002,0.0001,0.0001,1.0000,-0.0911,0.0464,0.2204
553,Left,2,0.2154,0.0428,-0.9680,-0.1212,0.0036,0.0037,-0.0031,-0.0106,-0.0106,-0.0204,-3.9756,-1.3087,8.8527,0.0000,0.0000,-0.0000,1.0000,-0.0994,-0.0327,0.2213
554,Right,2,0.2030,-0.0740,-0.9659,0.1425,0.0177,0.0030,0.0073,-0.0156,0.0812,-0.0745,-3.6247,1.8740,8.8424,0.0002,0.0000,0.0001,1.0000,-0.0906,0.0468,0.2211
554,Left,2,0.2154,0.0429,-0.9680,-0.1212,0.0030,0.0073,-0.0013,-0.0202,0.0015,-0.0357,-3.9570,-1.3179,8.8428,0.0000,0.0001,-0.0000,1.0000,-0.0989,-0.0330,0.2211
555,Right,2,0.2031,-0.0741,-0.9659,0.1424,0.0153,0.0030,0.0061,0.0129,0.0838,-0.0940,-3.6445,1.8774,8.8120,0.0002,0.0000,0.0001,1.0000,-0.0911,0.0469,0.2203
555,Left,2,0.2155,0.0428,-0.9680,-0.1213,0.0006,0.0073,-0.0031,-0.0060,-0.0125,-0.0292,-3.9782,-1.3082,8.8419,0.0000,0.0001,-0.0000,1.0000,-0.0994,-0.0327,0.2211
556,Right,2,0.2031,-0.0742,-0.9659,0.1424,0.0141,0.0036,0.0054,-0.0103,0.1077,-0.0844,-3.6358,1.8525,8.8317,0.0002,0.0000,0.0001,1.0000,-0.0909,0.0463,0.2208
556,Left,2,0.2156,0.0429,-0.9680,-0.1213,0.0024,0.0079,-0.0031,-0.0253,-0.0004,-0.0269,-3.9602,-1.3175,8.8512,0.0000,0.0001,-0.0000,1.0000,-0.0990,-0.0329,0.2213
557,Right,2,0.2032,-0.0742,-0.9659,0.1425,0.0141,0.0037,0.0067,-0.0073,0.0958,-0.0829,-3.6361,1.8659,8.8304,0.0002,0.0000,0.0001,1.0000,-0.0909,0.0466,0.2208
557,Left,2,0.2157,0.0430,-0.9679,-0.1213,0.0012,0.0073,-0.0025,0.0172,-0.0069,-0.0502,-3.9909,-1.3186,8.8113,0.0000,0.0001,-0.0000,1.0000,-0.0998,-0.0330,0.2203
557,Pelvis,2,0.3847,-0.5111,0.5034,0.5808,-0.1534,-0.0146,-0.0260,-0.0254,0.0165,0.0169,9.6343,-0.6254,1.8473,-0.0479,-0.0046,-0.0081,0.9988,6.0129,-0.3829,1.2006
558,Right,2,0.2033,-0.0743,-0.9658,0.1426,0.0141,0.0049,0.0060,-0.0078,0.0936,-0.0828,-3.6368,1.8696,8.8293,0.0002,0.0001,0.0001,1.0000,-0.0909,0.0467,0.2207
558,Left,2,0.2158,0.0430,-0.9679,-0.1214,0.0006,0.0067,-0.0037,0.0044,-0.0093,-0.0238,-3.9925,-1.3181,8.8400,0.0000,0.0001,-0.0000,1.0000,-0.0998,-0.0330,0.2210
558,Pelvis,2,0.3854,-0.5095,0.5017,0.5833,-0.0592,0.0801,-0.0330,0.0873,0.0742,-0.0258,9.6150,-0.6775,1.6993,-0.0007,0.0010,-0.0004,1.0000,0.2404,-0.0170,0.0423
559,Right,2,0.2034,-0.0744,-0.9658,0.1426,0.0128,0.0025,0.0073,-0.0202,0.1117,-0.0681,-3.6377,1.8545,8.8487,0.0002,0.0000,0.0001,1.0000,-0.0909,0.0463,0.2212
559,Left,2,0.2158,0.0430,-0.9679,-0.1214,0.0030,0.0061,-0.0049,0.0128,0.0102,-0.0297,-3.9934,-1.3379,8.8300,0.0000,0.0001,-0.0001,1.0000,-0.0998,-0.0334,0.2208
559,Pelvis,2,0.3848,-0.5092,0.5010,0.5845,-0.0528,0.0668,-0.0307,0.0855,0.0081,-0.0535,9.5731,-0.6752,1.7743,-0.0007,0.0008,-0.0004,1.0000,0.2394,-0.0169,0.0442
560,Right,2,0.2034,-0.0744,-0.9658,0.1428,0.0134,0.0025,0.0091,0.0077,0.1005,-0.0986,-3.6473,1.8665,8.8084,0.0002,0.0000,0.0001,1.0000,-0.0912,0.0466,0.2202
560,Left,2,0.2158,0.0430,-0.9679,-0.1215,0.0030,0.0030,-0.0037,-0.0082,-0.0057,-0.0405,-3.9750,-1.3178,8.8294,0.0000,0.0000,-0.0000,1.0000,-0.0994,-0.0329,0.2207
560,Pelvis,2,0.3857,-0.5077,0.5021,0.5843,-0.0457,0.0498,-0.0241,0.1224,-0.0022,-0.0488,9.5723,-0.7003,1.7967,-0.0006,0.0006,-0.0003,1.0000,0.2393,-0.0176,0.0448
561,Right,2,0.2034,-0.0745,-0.9658,0.1428,0.0165,0.0030,0.0073,-0.0063,0.1050,-0.0948,-3.6380,1.8610,8.8176,0.0002,0.0000,0.0001,1.0000,-0.0909,0.0465,0.2205
561,Left,2,0.2159,0.0430,-0.9679,-0.1215,0.0036,0.0036,-0.0055,-0.0105,0.0022,-0.0303,-3.9755,-1.3271,8.8391,0.0000,0.0000,-0.0001,1.0000,-0.0994,-0.0332,0.2210
561,Pelvis,2,0.3853,-0.5076,0.5016,0.5851,-0.0387,0.0383,-0.0163,0.1268,-0.0146,-0.0567,9.5609,-0.6980,1.8162,-0.0005,0.0005,-0.0002,1.0000,0.2390,-0.0175,0.0453
562,Right,2,0.2035,-0.0745,-0.9657,0.1429,0.0141,0.0031,0.0079,-0.0101,0.1033,-0.0858,-3.6384,1.8654,8.8264,0.0002,0.0000,0.0001,1.0000,-0.0910,0.0466,0.2207
562,Left,2,0.2158,0.0430,-0.9679,-0.1216,0.0061,0.0000,-0.0030,-0.0100,0.0013,-0.0303,-3.9758,-1.3264,8.8391,0.0001,0.0000,-0.0000,1.0000,-0.0994,-0.0332,0.2210
562,Pelvis,2,0.3852,-0.5073,0.5016,0.5853,-0.0372,0.0254,-0.0084,0.1118,-0.0012,-0.0605,9.5588,-0.6771,1.8138,-0.0005,0.0003,-0.0001,1.0000,0.2390,-0.0169,0.0453
563,Right,2,0.2035,-0.0745,-0.9657,0.1430,0.0147,0.0018,0.0073,-0.0042,0.0996,-0.0947,-3.6385,1.8689,8.8157,0.0002,0.0000,0.0001,1.0000,-0.0910,0.0467,0.2204
563,Left,2,0.2157,0.0431,-0.9679,-0.1216,0.0079,0.0000,-0.0012,-0.0136,0.0015,-0.0430,-3.9659,-1.3252,8.8296,0.0001,0.0000,-0.0000,1.0000,-0.0991,-0.0331,0.2207
563,Pelvis,2,0.3845,-0.5078,0.5007,0.5862,-0.0345,0.0139,-0.0037,0.1331,0.0437,-0.0588,9.5686,-0.6854,1.7689,-0.0004,0.0002,-0.0000,1.0000,0.2392,-0.0171,0.0442
564,Right,2,0.2034,-0.0746,-0.9657,0.1430,0.0153,0.0037,0.0073,-0.0261,0.1019,-0.0946,-3.6195,1.8631,8.8250,0.0002,0.0000,0.0001,1.0000,-0.0905,0.0465,0.2206
564,Left,2,0.2157,0.0431,-0.9679,-0.1216,0.0061,0.0037,0.0012,-0.0130,0.0000,-0.0430,-3.9663,-1.3236,8.8297,0.0001,0.0000,0.0000,1.0000,-0.0991,-0.0331,0.2207
564,Pelvis,2,0.3835,-0.5085,0.4994,0.5874,-0.0261,0.0201,-0.0017,0.1617,0.0492,0.0205,9.6474,-0.7116,1.7726,-0.0003,0.0003,-0.0000,1.0000,0.2412,-0.0178,0.0443
565,Right,2,0.2035,-0.0746,-0.9657,0.1431,0.0153,0.0049,0.0060,-0.0164,0.1019,-0.0909,-3.6299,1.8673,8.8239,0.0002,0.0001,0.0001,1.0000,-0.0907,0.0466,0.2206
565,Left,2,0.2158,0.0431,-0.9679,-0.1216,0.0055,0.0055,-0.0007,-0.0017,-0.0165,-0.0278,-3.9871,-1.3127,8.8388,0.0001,0.0001,-0.0000,1.0000,-0.0997,-0.0328,0.2210
565,Pelvis,2,0.3831,-0.5084,0.4990,0.5879,-0.0147,0.0277,0.0002,0.1420,0.0494,0.0585,9.6843,-0.6911,1.7887,-0.0002,0.0003,0.0000,1.0000,0.2421,-0.0173,0.0446
566,Right,2,0.2035,-0.0747,-0.9657,0.1431,0.0147,0.0061,0.0078,-0.0065,0.1019,-0.0872,-3.6405,1.8714,8.8226,0.0002,0.0001,0.0001,1.0000,-0.0910,0.0467,0.2206
566,Left,2,0.2158,0.0432,-0.9679,-0.1216,0.0024,0.0061,-0.0007,-0.0020,-0.0004,-0.0161,-3.9881,-1.3312,8.8486,0.0000,0.0001,-0.0000,1.0000,-0.0997,-0.0333,0.2212
566,Pelvis,2,0.3825,-0.5087,0.4983,0.5888,-0.0122,0.0253,0.0015,0.0638,-0.0101,-0.0057,9.6104,-0.6187,1.8545,-0.0002,0.0003,0.0000,1.0000,0.2403,-0.0155,0.0463
567,Right,2,0.2036,-0.0747,-0.9656,0.1431,0.0165,0.0073,0.0072,-0.0010,0.0981,-0.0961,-3.6416,1.8751,8.8115,0.0002,0.0001,0.0001,1.0000,-0.0910,0.0468,0.2203
567,Left,2,0.2158,0.0433,-0.9679,-0.1216,0.0048,0.0067,-0.0019,-0.0018,0.0003,-0.0376,-3.9796,-1.3308,8.8286,0.0001,0.0001,-0.0000,1.0000,-0.0995,-0.0333,0.2207
567,Pelvis,2,0.3824,-0.5086,0.4981,0.5890,-0.0094,0.0107,0.0025,0.0957,-0.0463,-0.0566,9.5522,-0.6522,1.8767,-0.0001,0.0001,0.0000,1.0000,0.2388,-0.0163,0.0469
568,Right,2,0.2036,-0.0746,-0.9656,0.1433,0.0116,0.0055,0.0048,-0.0056,0.1168,-0.0687,-3.6530,1.8608,8.8404,0.0001,0.0001,0.0001,1.0000,-0.0913,0.0465,0.2210
568,Left,2,0.2158,0.0434,-0.9679,-0.1215,0.0073,0.0050,0.0018,0.0135,0.0039,-0.0410,-3.9904,-1.3396,8.8186,0.0001,0.0001,0.0000,1.0000,-0.0997,-0.0335,0.2205
568,Pelvis,2,0.3824,-0.5085,0.4983,0.5890,-0.0021,0.0115,0.0038,0.1322,-0.0490,-0.0336,9.5731,-0.6913,1.8786,-0.0000,0.0001,0.0000,1.0000,0.2393,-0.0173,0.0469
569,Right,2,0.2035,-0.0745,-0.9656,0.1434,0.0140,0.0018,0.0073,-0.0170,0.1066,-0.0848,-3.6340,1.8633,8.8298,0.0002,0.0000,0.0001,1.0000,-0.0908,0.0465,0.2208
569,Left,2,0.2158,0.0435,-0.9679,-0.1215,0.0079,0.0031,-0.0000,0.0144,-0.0249,-0.0096,-4.0113,-1.3179,8.8472,0.0001,0.0000,-0.0000,1.0000,-0.1003,-0.0330,0.2212
569,Pelvis,2,0.3822,-0.5086,0.4978,0.5894,0.0095,0.0124,-0.0004,0.1278,-0.0348,-0.0077,9.6014,-0.6801,1.8724,0.0001,0.0002,-0.0000,1.0000,0.2400,-0.0170,0.0468
570,Right,2,0.2036,-0.0745,-0.9656,0.1434,0.0128,0.0019,0.0085,0.0028,0.1048,-0.1080,-3.6437,1.8659,8.7997,0.0002,0.0000,0.0001,1.0000,-0.0911,0.0466,0.2200
570,Left,2,0.2159,0.0435,-0.9678,-0.1215,0.0067,0.0037,-0.0000,-0.0193,-0.0110,-0.0024,-3.9828,-1.3252,8.8670,0.0001,0.0000,-0.0000,1.0000,-0.0996,-0.0331,0.2217
570,Pelvis,2,0.3821,-0.5085,0.4976,0.5897,0.0144,0.0113,-0.0004,0.1200,-0.0307,0.0104,9.6198,-0.6688,1.8759,0.0002,0.0001,-0.0000,1.0000,0.2405,-0.0167,0.0469
571,Right,2,0.2037,-0.0745,-0.9656,0.1436,0.0134,0.0031,0.0085,-0.0040,0.1078,-0.1220,-3.6343,1.8592,8.7895,0.0002,0.0000,0.0001,1.0000,-0.0909,0.0464,0.2198
571,Left,2,0.2160,0.0435,-0.9678,-0.1215,0.0061,0.0037,0.0012,-0.0174,-0.0216,-0.0127,-3.9837,-1.3142,8.8569,0.0001,0.0000,0.0000,1.0000,-0.0996,-0.0329,0.2214
571,Pelvis,2,0.3822,-0.5083,0.4977,0.5898,0.0173,0.0144,0.0021,0.1141,-0.0183,0.0172,9.6286,-0.6578,1.8699,0.0002,0.0002,0.0000,1.0000,0.2407,-0.0164,0.0467
572,Right,2,0.2038,-0.0746,-0.9656,0.1435,0.0141,0.0031,0.0085,-0.0202,0.1038,-0.1078,-3.6249,1.8636,8.8082,0.0002,0.0000,0.0001,1.0000,-0.0906,0.0465,0.2202
572,Left,2,0.2160,0.0434,-0.9678,-0.1216,0.0055,0.0049,-0.0000,-0.0120,-0.0089,-0.0416,-3.9746,-1.3231,8.8276,0.0001,0.0001,-0.0000,1.0000,-0.0994,-0.0331,0.2207
572,Pelvis,2,0.3826,-0.5077,0.4983,0.5896,0.0198,0.0145,0.0046,0.0993,-0.0328,-0.0308,9.5780,-0.6408,1.8832,0.0002,0.0002,0.0001,1.0000,0.2395,-0.0160,0.0470
573,Right,2,0.2038,-0.0746,-0.9655,0.1438,0.0141,0.0037,0.0079,-0.0069,0.1034,-0.1130,-3.6350,1.8672,8.7974,0.0002,0.0000,0.0001,1.0000,-0.0909,0.0466,0.2199
573,Left,2,0.2161,0.0434,-0.9678,-0.1215,0.0061,0.0043,0.0012,0.0008,-0.0120,-0.0464,-3.9853,-1.3222,8.8175,0.0001,0.0001,0.0000,1.0000,-0.0996,-0.0331,0.2204
573,Pelvis,2,0.3832,-0.5069,0.4992,0.5891,0.0210,0.0151,0.0046,0.1206,-0.0147,0.0171,9.6271,-0.6579,1.8776,0.0003,0.0002,0.0001,1.0000,0.2407,-0.0164,0.0469
574,Right,2,0.2038,-0.0747,-0.9655,0.1438,0.0159,0.0067,0.0090,-0.0146,0.0928,-0.0847,-3.6356,1.8824,8.8251,0.0002,0.0001,0.0001,1.0000,-0.0909,0.0470,0.2206
574,Left,2,0.2161,0.0435,-0.9678,-0.1216,0.0036,0.0073,-0.0031,-0.0194,-0.0313,-0.0357,-3.9772,-1.3011,8.8362,0.0000,0.0001,-0.0000,1.0000,-0.0994,-0.0325,0.2209
574,Pelvis,2,0.3834,-0.5063,0.4999,0.5888,0.0188,0.0260,0.0102,0.1340,-0.0260,0.0703,9.6755,-0.6763,1.9026,0.0002,0.0003,0.0001,1.0000,0.2419,-0.0169,0.0475
575,Right,2,0.2040,-0.0748,-0.9655,0.1439,0.0196,0.0116,0.0077,-0.0245,0.0961,-0.0898,-3.6277,1.8771,8.8239,0.0002,0.0001,0.0001,1.0000,-0.0907,0.0469,0.2206
575,Left,2,0.2163,0.0436,-0.9677,-0.1216,-0.0043,0.0121,-0.0087,-0.0215,-0.0392,-0.0588,-3.9695,-1.2923,8.8156,-0.0001,0.0002,-0.0001,1.0000,-0.0992,-0.0323,0.2204
575,Pelvis,2,0.3831,-0.5062,0.5000,0.5891,0.0175,0.0290,0.0133,0.1391,-0.0589,0.0670,9.6643,-0.6891,1.9385,0.0002,0.0004,0.0002,1.0000,0.2416,-0.0172,0.0484
576,Right,2,0.2042,-0.0748,-0.9654,0.1439,0.0197,0.0158,0.0064,-0.0082,0.0860,-0.0936,-3.6399,1.8916,8.8115,0.0002,0.0002,0.0001,1.0000,-0.0910,0.0472,0.2203
576,Left,2,0.2165,0.0439,-0.9677,-0.1218,-0.0123,0.0193,-0.0155,-0.0131,-0.0255,-0.0431,-3.9820,-1.3148,8.8239,-0.0002,0.0002,-0.0002,1.0000,-0.0995,-0.0328,0.2206
576,Pelvis,2,0.3829,-0.5060,0.5000,0.5893,0.0180,0.0314,0.0188,0.1779,-0.1014,0.0474,9.6347,-0.7331,1.9742,0.0002,0.0004,0.0002,1.0000,0.2409,-0.0183,0.0493
577,Right,2,0.2044,-0.0750,-0.9653,0.1440,0.0234,0.0219,0.0063,-0.0158,0.1033,-0.0876,-3.6442,1.8779,8.8194,0.0003,0.0003,0.0001,1.0000,-0.0910,0.0469,0.2205
577,Left,2,0.2166,0.0441,-0.9676,-0.1219,-0.0068,0.0150,-0.0136,0.0001,-0.0095,-0.0362,-3.9948,-1.3380,8.8222,-0.0001,0.0002,-0.0002,1.0000,-0.0998,-0.0334,0.2206
577,Pelvis,2,0.3826,-0.5059,0.5004,0.5894,0.0233,0.0369,0.0268,0.1751,-0.1265,0.0222,9.6030,-0.7394,2.0018,0.0003,0.0005,0.0003,1.0000,0.2401,-0.0184,0.0499
578,Right,2,0.2046,-0.0751,-0.9653,0.1441,0.0222,0.0195,0.0100,-0.0100,0.1226,-0.0869,-3.6586,1.8644,8.8173,0.0003,0.0002,0.0001,1.0000,-0.0914,0.0465,0.2205
578,Left,2,0.2168,0.0443,-0.9676,-0.1220,-0.0105,0.0180,-0.0155,0.0059,-0.0176,-0.0018,-4.0177,-1.3410,8.8494,-0.0001,0.0002,-0.0002,1.0000,-0.1004,-0.0335,0.2213
578,Pelvis,2,0.3824,-0.5055,0.5008,0.5895,0.0183,0.0398,0.0335,0.1970,-0.0914,0.0160,9.6017,-0.7546,1.9721,0.0002,0.0005,0.0004,1.0000,0.2401,-0.0188,0.0492
579,Right,2,0.2047,-0.0752,-0.9652,0.1443,0.0227,0.0152,0.0095,-0.0017,0.1106,-0.0943,-3.6617,1.8795,8.8045,0.0003,0.0002,0.0001,1.0000,-0.0915,0.0469,0.2201
579,Left,2,0.2169,0.0445,-0.9675,-0.1220,-0.0086,0.0163,-0.0118,0.0112,-0.0152,-0.0322,-4.0110,-1.3450,8.8182,-0.0001,0.0002,-0.0001,1.0000,-0.1002,-0.0336,0.2205
579,Pelvis,2,0.3825,-0.5048,0.5017,0.5893,0.0293,0.0450,0.0251,0.3032,-0.0981,-0.0259,9.5551,-0.8598,1.9605,0.0004,0.0006,0.0003,1.0000,0.2389,-0.0214,0.0489
580,Right,2,0.2049,-0.0754,-0.9652,0.1443,0.0215,0.0141,0.0126,0.0022,0.1220,-0.0832,-3.6745,1.8763,8.8122,0.0003,0.0002,0.0002,1.0000,-0.0918,0.0468,0.2203
580,Left,2,0.2169,0.0445,-0.9675,-0.1221,-0.0013,0.0097,-0.0068,0.0319,-0.0107,-0.0228,-4.0329,-1.3571,8.8168,-0.0000,0.0001,-0.0001,1.0000,-0.1008,-0.0339,0.2204
580,Pelvis,2,0.3821,-0.5045,0.5016,0.5898,0.0390,0.0502,0.0131,0.3070,-0.1033,-0.0356,9.5426,-0.8631,1.9724,0.0005,0.0006,0.0002,1.0000,0.2386,-0.0216,0.0491
581,Right,2,0.2050,-0.0756,-0.9651,0.1444,0.0258,0.0153,0.0150,-0.0043,0.1162,-0.0868,-3.6673,1.8826,8.8098,0.0003,0.0002,0.0002,1.0000,-0.0916,0.0470,0.2203
581,Left,2,0.2170,0.0447,-0.9675,-0.1222,0.0006,0.0060,-0.0080,0.0109,-0.0271,-0.0337,-4.0152,-1.3381,8.8157,0.0000,0.0001,-0.0001,1.0000,-0.1004,-0.0334,0.2204
581,Pelvis,2,0.3823,-0.5035,0.5028,0.5896,0.0461,0.0607,0.0150,0.2871,-0.0762,0.0181,9.5973,-0.8420,1.9784,0.0006,0.0008,0.0002,1.0000,0.2400,-0.0210,0.0493
582,Right,2,0.2051,-0.0759,-0.9650,0.1445,0.0276,0.0141,0.0150,-0.0153,0.0909,-0.0911,-3.6498,1.9089,8.8064,0.0003,0.0002,0.0002,1.0000,-0.0912,0.0476,0.2202
582,Left,2,0.2170,0.0447,-0.9675,-0.1222,-0.0000,0.0060,-0.0080,-0.0118,-0.0140,-0.0225,-3.9968,-1.3478,8.8350,-0.0000,0.0001,-0.0001,1.0000,-0.0999,-0.0337,0.2209
582,Pelvis,2,0.3818,-0.5031,0.5029,0.5901,0.0545,0.0633,0.0243,0.2839,-0.1063,0.0328,9.6030,-0.8443,2.0238,0.0007,0.0008,0.0003,1.0000,0.2401,-0.0211,0.0504
583,Right,2,0.2053,-0.0762,-0.9650,0.1445,0.0281,0.0092,0.0151,-0.0132,0.1202,-0.0919,-3.6621,1.8874,8.8054,0.0004,0.0001,0.0002,1.0000,-0.0915,0.0471,0.2202
583,Left,2,0.2170,0.0447,-0.9675,-0.1223,0.0024,0.0042,-0.0043,0.0060,-0.0159,-0.0362,-4.0073,-1.3488,8.8149,0.0000,0.0001,-0.0001,1.0000,-0.1002,-0.0337,0.2204
584,Right,2,0.2053,-0.0764,-0.9650,0.1445,0.0245,0.0099,0.0151,0.0055,0.1203,-0.1061,-3.6731,1.8938,8.7837,0.0003,0.0001,0.0002,1.0000,-0.0918,0.0473,0.2196
584,Left,2,0.2169,0.0447,-0.9675,-0.1224,0.0025,0.0011,-0.0092,0.0170,-0.0414,-0.0225,-4.0276,-1.3295,8.8239,0.0000,0.0000,-0.0001,1.0000,-0.1007,-0.0332,0.2206
584,Pelvis,2,0.3822,-0.5014,0.5048,0.5896,0.0615,0.0497,0.0261,0.3254,-0.1214,-0.0714,9.4922,-0.8828,2.0324,0.0015,0.0012,0.0007,1.0000,0.4748,-0.0440,0.1010
585,Right,2,0.2054,-0.0766,-0.9649,0.1446,0.0208,0.0112,0.0175,0.0137,0.1334,-0.0824,-3.6946,1.8920,8.8015,0.0003,0.0001,0.0002,1.0000,-0.0923,0.0472,0.2201
585,Left,2,0.2169,0.0448,-0.9674,-0.1225,0.0019,-0.0007,-0.0085,0.0053,-0.0287,-0.0377,-4.0076,-1.3395,8.8146,0.0000,-0.0000,-0.0001,1.0000,-0.1002,-0.0335,0.2204
585,Pelvis,2,0.3815,-0.5015,0.5048,0.5900,0.0687,0.0557,0.0269,0.4468,-0.0675,-0.0056,9.5625,-1.0006,1.9852,0.0009,0.0007,0.0003,1.0000,0.2391,-0.0250,0.0494
586,Right,2,0.2056,-0.0767,-0.9648,0.1447,0.0233,0.0099,0.0157,0.0211,0.1242,-0.0683,-3.7057,1.9089,8.8086,0.0003,0.0001,0.0002,1.0000,-0.0926,0.0476,0.2202
586,Left,2,0.2169,0.0449,-0.9674,-0.1226,0.0031,-0.0019,-0.0055,0.0011,0.0005,-0.0371,-3.9968,-1.3688,8.8155,0.0000,-0.0000,-0.0001,1.0000,-0.0999,-0.0342,0.2204
586,Pelvis,2,0.3810,-0.5012,0.5054,0.5901,0.0929,0.0629,0.0321,0.5035,-0.0691,0.0681,9.6299,-1.0691,2.0027,0.0012,0.0008,0.0004,1.0000,0.2408,-0.0267,0.0498
587,Right,2,0.2057,-0.0768,-0.9648,0.1449,0.0251,0.0093,0.0182,-0.0123,0.1093,-0.0828,-3.6680,1.9148,8.8070,0.0003,0.0001,0.0002,1.0000,-0.0917,0.0478,0.2202
587,Left,2,0.2168,0.0450,-0.9674,-0.1226,0.0086,-0.0036,-0.0024,0.0015,-0.0238,-0.0274,-4.0062,-1.3483,8.8252,0.0001,-0.0000,-0.0000,1.0000,-0.1002,-0.0337,0.2206
587,Pelvis,2,0.3802,-0.5012,0.5056,0.5904,0.1172,0.0646,0.0367,0.5264,-0.0201,0.0789,9.6478,-1.0904,1.9627,0.0015,0.0008,0.0005,1.0000,0.2412,-0.0272,0.0488
588,Right,2,0.2059,-0.0769,-0.9647,0.1451,0.0263,0.0105,0.0175,-0.0149,0.1109,-0.1057,-3.6596,1.9110,8.7859,0.0003,0.0001,0.0002,1.0000,-0.0915,0.0477,0.2197
588,Left,2,0.2168,0.0450,-0.9674,-0.1226,0.0073,-0.0012,0.0000,0.0007,-0.0271,-0.0274,-4.0057,-1.3467,8.8258,0.0001,-0.0000,0.0000,1.0000,-0.1001,-0.0337,0.2206
588,Pelvis,2,0.3796,-0.5011,0.5061,0.5905,0.1464,0.0664,0.0414,0.5633,-0.0249,0.0318,9.5969,-1.1342,1.9610,0.0018,0.0008,0.0005,1.0000,0.2400,-0.0283,0.0488
589,Right,2,0.2059,-0.0771,-0.9647,0.1452,0.0232,0.0074,0.0140,-0.0140,0.0773,-0.1050,-3.6503,1.9469,8.7824,0.0003,0.0001,0.0002,1.0000,-0.0912,0.0486,0.2196
589,Left,2,0.2168,0.0451,-0.9675,-0.1225,0.0067,0.0019,0.0024,0.0071,-0.0011,-0.0229,-4.0053,-1.3743,8.8266,0.0001,0.0000,0.0000,1.0000,-0.1001,-0.0344,0.2207
589,Pelvis,2,0.3797,-0.5004,0.5072,0.5902,0.1667,0.0601,0.0423,0.5099,-0.0306,-0.0901,9.4736,-1.0826,1.9669,0.0021,0.0008,0.0005,1.0000,0.2369,-0.0270,0.0489
590,Right,2,0.2058,-0.0772,-0.9647,0.1453,0.0176,-0.0011,0.0135,0.0100,0.0883,-0.1170,-3.6699,1.9423,8.7620,0.0002,-0.0000,0.0002,1.0000,-0.0918,0.0485,0.2191
590,Left,2,0.2168,0.0451,-0.9675,-0.1224,0.0115,0.0063,0.0055,-0.0074,-0.0112,-0.0195,-3.9968,-1.3617,8.8361,0.0001,0.0001,0.0001,1.0000,-0.0999,-0.0341,0.2209
590,Pelvis,2,0.3796,-0.5000,0.5080,0.5898,0.1726,0.0412,0.0364,0.4383,0.0008,-0.1904,9.3806,-1.0090,1.9411,0.0022,0.0005,0.0005,1.0000,0.2346,-0.0252,0.0484
591,Right,2,0.2057,-0.0773,-0.9647,0.1455,0.0132,-0.0125,0.0169,0.0146,0.1078,-0.1163,-3.6780,1.9279,8.7629,0.0002,-0.0002,0.0002,1.0000,-0.0920,0.0481,0.2191
591,Left,2,0.2169,0.0449,-0.9675,-0.1223,0.0115,0.0112,0.0097,0.0015,-0.0144,-0.0156,-4.0087,-1.3586,8.8356,0.0001,0.0001,0.0001,1.0000,-0.1002,-0.0340,0.2209
591,Pelvis,2,0.3792,-0.5002,0.5084,0.5895,0.1774,0.0236,0.0243,0.4213,0.0033,-0.2610,9.3103,-1.0006,1.9312,0.0022,0.0003,0.0003,1.0000,0.2328,-0.0251,0.0482
592,Right,2,0.2054,-0.0774,-0.9647,0.1458,0.0161,-0.0222,0.0215,0.0269,0.1193,-0.1015,-3.6932,1.9242,8.7739,0.0002,-0.0003,0.0003,1.0000,-0.0924,0.0480,0.2193
592,Left,2,0.2171,0.0449,-0.9674,-0.1222,0.0108,0.0137,0.0115,0.0005,-0.0135,-0.0371,-4.0019,-1.3554,8.8153,0.0001,0.0002,0.0001,1.0000,-0.1000,-0.0339,0.2204
592,Pelvis,2,0.3800,-0.4993,0.5095,0.5889,0.1933,0.0079,0.0082,0.5400,0.0163,-0.2751,9.2953,-1.1138,1.9015,0.0024,0.0001,0.0001,1.0000,0.2324,-0.0279,0.0474
593,Right,2,0.2050,-0.0775,-0.9647,0.1461,0.0140,-0.0335,0.0334,0.0217,0.1076,-0.0821,-3.6856,1.9409,8.7947,0.0002,-0.0004,0.0004,1.0000,-0.0923,0.0484,0.2198
593,Left,2,0.2173,0.0447,-0.9674,-0.1221,0.0132,0.0149,0.0139,-0.0095,0.0058,-0.0293,-3.9955,-1.3706,8.8246,0.0002,0.0002,0.0002,1.0000,-0.0998,-0.0343,0.2206
593,Pelvis,2,0.3811,-0.4989,0.5102,0.5878,0.2221,-0.0521,-0.0049,0.4196,-0.0145,-0.2453,9.3199,-1.0045,1.9597,0.0028,-0.0007,-0.0001,1.0000,0.2330,-0.0253,0.0491
594,Right,2,0.2044,-0.0778,-0.9647,0.1465,0.0175,-0.0431,0.0404,0.0154,0.1111,-0.0961,-3.6658,1.9371,8.7883,0.0002,-0.0005,0.0005,1.0000,-0.0918,0.0483,0.2197
594,Left,2,0.2175,0.0446,-0.9674,-0.1219,0.0162,0.0169,0.0194,0.0112,0.0034,-0.0517,-4.0090,-1.3666,8.7941,0.0002,0.0002,0.0002,1.0000,-0.1002,-0.0342,0.2199
594,Pelvis,2,0.3828,-0.4992,0.5105,0.5862,0.2241,-0.1187,-0.0157,0.2674,-0.0098,-0.2554,9.3186,-0.8541,1.9614,0.0028,-0.0015,-0.0002,1.0000,0.2329,-0.0215,0.0493
595,Right,2,0.2039,-0.0781,-0.9648,0.1469,0.0175,-0.0479,0.0436,-0.0226,0.0550,-0.1210,-3.5940,1.9814,8.7800,0.0002,-0.0006,0.0005,1.0000,-0.0900,0.0494,0.2195
595,Left,2,0.2177,0.0443,-0.9674,-0.1217,0.0162,0.0212,0.0218,-0.0218,-0.0165,-0.0147,-4.0050,-1.3400,8.8412,0.0002,0.0003,0.0003,1.0000,-0.1001,-0.0336,0.2210
595,Pelvis,2,0.3838,-0.5004,0.5100,0.5850,0.2031,-0.1620,-0.0246,0.0956,-0.0117,-0.2443,9.3388,-0.6908,1.9683,0.0025,-0.0020,-0.0003,1.0000,0.2334,-0.0175,0.0496
596,Right,2,0.2031,-0.0783,-0.9648,0.1474,0.0162,-0.0516,0.0418,-0.0276,0.0363,-0.1447,-3.5611,1.9970,8.7637,0.0002,-0.0006,0.0005,1.0000,-0.0892,0.0498,0.2190
596,Left,2,0.2181,0.0441,-0.9673,-0.1214,0.0118,0.0346,0.0247,-0.0069,-0.0106,-0.0180,-4.0214,-1.3448,8.8292,0.0001,0.0004,0.0003,1.0000,-0.1004,-0.0337,0.2208
596,Pelvis,2,0.3854,-0.5016,0.5091,0.5837,0.1867,-0.2133,-0.0491,0.0493,-0.0275,-0.2725,9.3177,-0.6439,1.9456,0.0023,-0.0027,-0.0006,1.0000,0.2328,-0.0164,0.0492
597,Right,2,0.2024,-0.0787,-0.9649,0.1479,0.0216,-0.0562,0.0554,-0.0161,0.1387,-0.1445,-3.5891,1.9093,8.7730,0.0003,-0.0007,0.0007,1.0000,-0.0899,0.0476,0.2193
597,Left,2,0.2188,0.0440,-0.9672,-0.1211,0.0036,0.0590,0.0280,-0.0431,0.0030,-0.0019,-4.0035,-1.3490,8.8547,0.0000,0.0007,0.0003,1.0000,-0.0999,-0.0338,0.2214
597,Pelvis,2,0.3880,-0.5029,0.5079,0.5819,0.1945,-0.2697,-0.1029,0.0420,-0.0399,-0.2191,9.3797,-0.6337,1.9134,0.0024,-0.0034,-0.0013,1.0000,0.2343,-0.0163,0.0486
598,Right,2,0.2015,-0.0792,-0.9648,0.1489,0.0336,-0.0684,0.0826,-0.0463,0.1430,-0.1798,-3.5337,1.8995,8.7590,0.0004,-0.0009,0.0010,1.0000,-0.0886,0.0473,0.2189
598,Left,2,0.2200,0.0440,-0.9670,-0.1206,-0.0089,0.0956,0.0323,-0.0367,0.0077,0.0124,-4.0314,-1.3562,8.8567,-0.0001,0.0012,0.0004,1.0000,-0.1005,-0.0339,0.2215
598,Pelvis,2,0.3917,-0.5041,0.5063,0.5798,0.2268,-0.3271,-0.1650,-0.0095,-0.1278,-0.1237,9.4727,-0.5841,1.9546,0.0028,-0.0041,-0.0021,1.0000,0.2366,-0.0152,0.0498
599,Right,2,0.2005,-0.0801,-0.9648,0.1499,0.0412,-0.0849,0.1082,-0.0180,0.1787,-0.1161,-3.5716,1.9017,8.8138,0.0005,-0.0011,0.0014,1.0000,-0.0896,0.0473,0.2203
599,Left,2,0.2219,0.0439,-0.9666,-0.1202,-0.0198,0.1536,0.0449,-0.0747,-0.0278,0.0248,-4.0418,-1.3154,8.8723,-0.0002,0.0019,0.0006,1.0000,-0.1006,-0.0329,0.2220
599,Pelvis,2,0.3963,-0.5044,0.5042,0.5782,0.2662,-0.3312,-0.2473,-0.1150,-0.2971,-0.0062,9.5766,-0.4697,2.0829,0.0033,-0.0041,-0.0031,1.0000,0.2392,-0.0127,0.0530
600,Right,2,0.1993,-0.0807,-0.9648,0.1511,0.0406,-0.0839,0.1002,0.0066,0.1343,-0.0837,-3.5656,1.9706,8.8360,0.0005,-0.0010,0.0013,1.0000,-0.0894,0.0490,0.2208
600,Left,2,0.2253,0.0440,-0.9660,-0.1191,-0.0429,0.2730,0.0810,-0.2299,0.1081,0.0363,-3.9255,-1.4196,8.9243,-0.0005,0.0034,0.0010,1.0000,-0.0973,-0.0355,0.2235
600,Pelvis,2,0.4021,-0.5036,0.5018,0.5769,0.3448,-0.3245,-0.3473,-0.0815,-0.7857,0.1155,9.6281,-0.5193,2.4947,0.0043,-0.0041,-0.0043,1.0000,0.2404,-0.0143,0.0633
601,Right,2,0.1982,-0.0812,-0.9649,0.1519,0.0204,-0.0838,0.0691,0.0061,0.0734,-0.0609,-3.5305,2.0441,8.8578,0.0003,-0.0010,0.0009,1.0000,-0.0885,0.0510,0.2214
601,Left,2,0.2318,0.0440,-0.9646,-0.1174,-0.0914,0.5189,0.1434,-0.5146,0.4356,0.1512,-3.7388,-1.6992,9.1032,-0.0011,0.0065,0.0018,1.0000,-0.0919,-0.0424,0.2282
601,Pelvis,2,0.4093,-0.5018,0.4995,0.5755,0.4689,-0.3491,-0.3975,-0.4608,-1.2257,0.0887,9.5542,-0.1133,2.9086,0.0059,-0.0044,-0.0050,1.0000,0.2385,-0.0044,0.0737
602,Right,2,0.1969,-0.0816,-0.9650,0.1526,0.0085,-0.0990,0.0641,-0.0191,0.1536,-0.0862,-3.5010,1.9645,8.8607,0.0001,-0.0012,0.0008,1.0000,-0.0878,0.0490,0.2214
602,Left,2,0.2455,0.0424,-0.9618,-0.1139,-0.0823,1.1085,0.3245,-1.9118,1.2377,0.4414,-2.6679,-2.2315,9.9118,-0.0010,0.0139,0.0041,0.9999,-0.0630,-0.0558,0.2487
602,Pelvis,2,0.4174,-0.4994,0.4983,0.5728,0.5224,-0.3584,-0.3551,-1.3701,-1.3093,-0.3384,9.1441,0.9048,2.9868,0.0065,-0.0045,-0.0044,1.0000,0.2284,0.0211,0.0758
603,Right,2,0.1955,-0.0820,-0.9652,0.1533,0.0121,-0.1024,0.0740,-0.0044,0.1534,-0.0381,-3.5037,1.9863,8.9076,0.0002,-0.0013,0.0009,1.0000,-0.0879,0.0495,0.2226
603,Left,2,0.2727,0.0363,-0.9556,-0.1054,0.0237,2.2333,0.8214,-3.6387,2.3346,1.5043,-1.9252,-3.0760,11.5603,0.0003,0.0279,0.0103,0.9996,-0.0392,-0.0774,0.2902
603,Pelvis,2,0.4243,-0.4978,0.4977,0.5696,0.4735,-0.3540,-0.2331,-1.4559,-0.8078,-0.5155,9.0624,1.1706,2.3905,0.0059,-0.0044,-0.0029,1.0000,0.2264,0.0282,0.0609
604,Right,2,0.1948,-0.0820,-0.9652,0.1543,-0.0123,-0.0453,0.0674,-0.0206,0.0804,0.0629,-3.4788,2.0764,9.0066,-0.0002,-0.0006,0.0008,1.0000,-0.0871,0.0519,0.2251
604,Left,2,0.3037,0.0249,-0.9478,-0.0943,0.3343,2.5886,1.1435,-3.1463,4.8212,3.6810,-3.7617,-5.7363,12.9714,0.0042,0.0324,0.0143,0.9994,-0.0814,-0.1460,0.3265
604,Pelvis,2,0.4296,-0.4964,0.4978,0.5668,0.3958,-0.2554,-0.1467,-0.6600,-0.1717,0.1420,9.8233,0.5333,1.6671,0.0049,-0.0032,-0.0018,1.0000,0.2455,0.0127,0.0425
605,Right,2,0.1946,-0.0812,-0.9652,0.1548,-0.0663,0.0030,0.0266,-0.0168,0.1653,0.0179,-3.4861,1.9821,8.9770,-0.0008,0.0000,0.0003,1.0000,-0.0872,0.0497,0.2244
605,Left,2,0.3246,0.0126,-0.9411,-0.0934,0.7473,1.8461,0.3619,-10.2611,7.9298,3.9667,1.4250,-7.3874,17.3642,0.0093,0.0231,0.0045,0.9997,0.0464,-0.1885,0.4314
605,Pelvis,2,0.4329,-0.4941,0.4988,0.5655,0.3375,-0.0469,-0.1127,-0.4880,0.1524,0.8579,10.5834,0.4483,1.3834,0.0042,-0.0006,-0.0014,1.0000,0.2646,0.0107,0.0348
606,Right,2,0.1951,-0.0798,-0.9652,0.1549,-0.0904,0.0564,-0.0231,0.0090,0.1640,-0.0143,-3.5029,1.9628,8.9394,-0.0011,0.0007,-0.0003,1.0000,-0.0874,0.0493,0.2235
606,Left,2,0.3251,0.0205,-0.9397,-0.1037,-0.3268,0.0313,-0.9798,-18.6662,7.4521,0.5752,9.5119,-5.0314,19.9017,-0.0041,0.0004,-0.0122,0.9999,0.2364,-0.1267,0.4980
607,Right,2,0.1960,-0.0785,-0.9651,0.1546,-0.0690,0.0911,-0.0518,-0.0905,0.2118,-0.0491,-3.4370,1.8602,8.9503,-0.0009,0.0011,-0.0006,1.0000,-0.0856,0.0468,0.2238
607,Left,2,0.3066,0.0403,-0.9435,-0.1189,-0.9301,-1.6217,-1.6465,-19.9811,6.1413,-0.8680,11.6461,-3.3145,19.2470,-0.0116,-0.0203,-0.0206,0.9995,0.2796,-0.0830,0.4879
608,Right,2,0.1972,-0.0772,-0.9651,0.1539,-0.0591,0.1005,-0.0789,0.0478,0.1151,-0.0928,-3.5350,1.9553,8.8415,-0.0007,0.0013,-0.0010,1.0000,-0.0880,0.0491,0.2211
608,Left,2,0.2698,0.0632,-0.9518,-0.1314,-1.0396,-3.1434,-1.5299,-15.8927,0.4912,5.1547,4.9042,0.2732,21.2831,-0.0130,-0.0393,-0.0191,0.9990,0.1018,0.0117,0.5362
608,Pelvis,2,0.4431,-0.4821,0.5024,0.5647,0.3726,0.0768,-0.2091,-0.3357,-0.2075,0.8518,10.5231,0.3784,1.7352,0.0140,0.0029,-0.0078,0.9999,0.7898,0.0204,0.1282
609,Right,2,0.1979,-0.0757,-0.9653,0.1527,-0.0771,0.0623,-0.1071,0.0707,-0.0326,-0.1414,-3.5130,2.0636,8.7715,-0.0010,0.0008,-0.0013,1.0000,-0.0876,0.0519,0.2193
609,Left,2,0.2166,0.0823,-0.9632,-0.1359,-0.7383,-4.4545,-0.8957,-7.3409,-1.6525,9.6137,-2.9464,-0.7782,20.6201,-0.0092,-0.0557,-0.0112,0.9983,-0.1024,-0.0137,0.5105
609,Pelvis,2,0.4486,-0.4766,0.5044,0.5631,0.6252,0.0248,-0.2458,0.2972,-0.5821,-1.0045,8.6440,-0.1723,1.8063,0.0078,0.0003,-0.0031,1.0000,0.2161,-0.0053,0.0451
610,Right,2,0.1978,-0.0739,-0.9657,0.1514,-0.1102,-0.0000,-0.1347,0.0999,-0.0142,-0.1194,-3.5654,2.0247,8.7840,-0.0014,-0.0000,-0.0017,1.0000,-0.0890,0.0511,0.2195
610,Left,2,0.1569,0.0953,-0.9739,-0.1338,-0.3122,-4.9256,-0.3280,1.1438,-2.2884,10.0420,-8.4102,-2.5138,18.0058,-0.0039,-0.0615,-0.0041,0.9981,-0.2377,-0.0602,0.4363
610,Pelvis,2,0.4539,-0.4718,0.5069,0.5607,0.6219,0.0016,-0.1650,-0.3300,-0.4411,-0.8877,8.7550,0.5397,1.7374,0.0078,0.0000,-0.0021,1.0000,0.2189,0.0127,0.0435
611,Right,2,0.1971,-0.0718,-0.9662,0.1500,-0.1329,-0.0384,-0.1478,0.0987,-0.0409,-0.0668,-3.5767,2.0174,8.8392,-0.0017,-0.0005,-0.0018,1.0000,-0.0894,0.0510,0.2209
611,Left,2,0.1001,0.1086,-0.9807,-0.1283,-0.4365,-4.6708,-0.0804,7.4344,-2.3107,8.4830,-11.6986,-3.7937,15.6372,-0.0055,-0.0584,-0.0010,0.9983,-0.3147,-0.0925,0.3735
611,Pelvis,2,0.4582,-0.4678,0.5089,0.5588,0.5081,0.0017,-0.1347,-0.7899,0.0571,0.3973,10.0740,1.1322,1.4505,0.0064,0.0000,-0.0017,1.0000,0.2519,0.0276,0.0364
612,Right,2,0.1966,-0.0699,-0.9666,0.1487,-0.1167,-0.0219,-0.1347,-0.0340,0.2407,-0.0401,-3.5572,1.6779,8.9495,-0.0015,-0.0003,-0.0017,1.0000,-0.0889,0.0424,0.2237
612,Left,2,0.0496,0.1262,-0.9831,-0.1229,-0.8778,-4.1953,-0.1270,10.8428,-2.3998,4.2139,-12.6662,-3.7277,12.0837,-0.0110,-0.0524,-0.0016,0.9986,-0.3321,-0.0895,0.2859
612,Pelvis,2,0.4611,-0.4628,0.5118,0.5578,0.4848,0.1709,-0.1228,-0.5877,0.5489,1.4508,11.1879,1.0491,1.1148,0.0061,0.0021,-0.0015,1.0000,0.2798,0.0256,0.0274
613,Right,2,0.1969,-0.0689,-0.9668,0.1479,-0.0518,0.0250,-0.0932,-0.0552,0.3388,-0.0109,-3.5845,1.5536,8.9962,-0.0006,0.0003,-0.0012,1.0000,-0.0895,0.0391,0.2249
613,Left,2,0.0074,0.1458,-0.9812,-0.1266,-1.1258,-3.4545,-0.7983,13.9037,-2.1398,-0.5301,-14.1970,-3.8551,8.2353,-0.0141,-0.0432,-0.0100,0.9989,-0.3643,-0.0900,0.1916
614,Right,2,0.1977,-0.0686,-0.9667,0.1474,0.0034,0.0735,-0.0449,-0.0069,0.2811,-0.0526,-3.6066,1.5983,8.9317,0.0000,0.0009,-0.0006,1.0000,-0.0899,0.0400,0.2234
614,Left,2,-0.0275,0.1498,-0.9782,-0.1412,0.0193,-2.5961,-1.5820,14.5063,-3.3153,-6.9418,-14.6760,-1.6249,3.4278,0.0002,-0.0324,-0.0198,0.9993,-0.3701,-0.0333,0.0737
614,Pelvis,2,0.4635,-0.4467,0.5237,0.5581,0.6023,0.5337,-0.0828,-0.1843,0.2581,0.5396,10.2416,0.6599,1.3964,0.0151,0.0133,-0.0021,0.9998,0.5130,0.0309,0.0635
615,Right,2,0.1987,-0.0684,-0.9665,0.1471,0.0218,0.0803,-0.0292,-0.0082,0.1063,-0.1005,-3.5527,1.7498,8.8687,0.0003,0.0010,-0.0004,1.0000,-0.0886,0.0437,0.2218
615,Left,2,-0.0509,0.1453,-0.9753,-0.1581,0.5582,-1.5762,-1.6370,13.5627,-6.0486,-13.7664,-15.0920,2.4831,-1.5144,0.0070,-0.0197,-0.0205,0.9996,-0.3751,0.0701,-0.0448
615,Pelvis,2,0.4631,-0.4398,0.5293,0.5586,0.4624,0.5445,-0.0097,-0.4629,0.0115,-0.5786,9.0523,0.9314,1.6348,0.0058,0.0068,-0.0001,1.0000,0.2266,0.0230,0.0395
616,Right,2,0.1994,-0.0682,-0.9665,0.1466,0.0153,0.0526,-0.0433,-0.0113,0.0351,-0.1426,-3.5285,1.8065,8.8204,0.0002,0.0007,-0.0005,1.0000,-0.0880,0.0452,0.2206
616,Left,2,-0.0584,0.1348,-0.9748,-0.1680,0.8724,-0.3342,-0.9044,12.5473,-6.0885,-16.9747,-14.7391,3.1718,-4.3026,0.0109,-0.0042,-0.0113,0.9999,-0.3671,0.0846,-0.1082
616,Pelvis,2,0.4627,-0.4359,0.5320,0.5593,0.2244,0.3176,-0.0362,-0.7606,0.6924,-0.4680,9.2540,1.2601,1.0762,0.0028,0.0040,-0.0005,1.0000,0.2315,0.0313,0.0261
617,Right,2,0.1997,-0.0680,-0.9665,0.1462,0.0071,0.0266,-0.0372,-0.0895,0.1131,-0.1474,-3.4927,1.7079,8.8500,0.0001,0.0003,-0.0005,1.0000,-0.0872,0.0427,0.2213
617,Left,2,-0.0489,0.1250,-0.9750,-0.1771,0.6020,0.9786,-0.6475,12.9559,-5.8730,-16.2602,-14.9678,2.2997,-3.8229,0.0075,0.0122,-0.0081,0.9999,-0.3748,0.0612,-0.0905
617,Pelvis,2,0.4618,-0.4340,0.5330,0.5606,0.0307,0.2044,-0.0461,-0.9228,1.3394,-0.6306,9.2029,1.4301,0.4659,0.0004,0.0026,-0.0006,1.0000,0.2301,0.0356,0.0111
618,Right,2,0.1998,-0.0678,-0.9665,0.1460,0.0061,-0.0011,-0.0195,-0.0096,0.1257,-0.1135,-3.5844,1.7188,8.8480,0.0001,-0.0000,-0.0002,1.0000,-0.0896,0.0430,0.2212
618,Left,2,-0.0264,0.1109,-0.9762,-0.1845,0.7698,2.0286,-0.3944,12.8548,-6.5324,-13.7694,-14.6857,2.1318,-1.8481,0.0096,0.0254,-0.0049,0.9996,-0.3679,0.0555,-0.0364
618,Pelvis,2,0.4613,-0.4337,0.5323,0.5619,-0.0833,0.0498,-0.0766,-0.7829,1.7429,-0.5828,9.3335,1.3101,0.1108,-0.0010,0.0006,-0.0010,1.0000,0.2334,0.0325,0.0026
619,Right,2,0.1995,-0.0678,-0.9666,0.1459,0.0064,-0.0234,-0.0050,-0.0299,0.1199,-0.1652,-3.5434,1.7067,8.8103,0.0001,-0.0003,-0.0001,1.0000,-0.0886,0.0427,0.2202
619,Left,2,0.0059,0.0981,-0.9777,-0.1853,0.5396,2.7247,0.2127,12.0408,-7.8230,-10.2516,-14.0538,2.8287,0.9723,0.0067,0.0341,0.0027,0.9994,-0.3504,0.0696,0.0367
619,Pelvis,2,0.4605,-0.4337,0.5312,0.5636,-0.1385,0.0556,-0.0857,-0.7717,1.8359,-0.2312,9.6936,1.3392,0.1056,-0.0017,0.0007,-0.0011,1.0000,0.2424,0.0332,0.0024
620,Right,2,0.1990,-0.0678,-0.9667,0.1461,0.0123,-0.0414,0.0101,-0.0387,0.1524,-0.1706,-3.5371,1.6700,8.8145,0.0002,-0.0005,0.0001,1.0000,-0.0885,0.0417,0.2203
620,Left,2,0.0468,0.0902,-0.9791,-0.1764,0.0161,3.2404,1.0392,11.7348,-7.2332,-6.6966,-13.6065,1.9327,3.3133,0.0002,0.0405,0.0130,0.9991,-0.3370,0.0439,0.0965
620,Pelvis,2,0.4590,-0.4344,0.5301,0.5654,-0.2019,0.0509,-0.0512,-0.8096,1.4110,0.0221,9.8515,1.4026,0.5911,-0.0025,0.0006,-0.0006,1.0000,0.2463,0.0349,0.0145
621,Right,2,0.1985,-0.0682,-0.9667,0.1466,0.0355,-0.0410,0.0412,-0.0461,0.1187,-0.1521,-3.5164,1.7074,8.8353,0.0004,-0.0005,0.0005,1.0000,-0.0880,0.0425,0.2209
621,Left,2,0.0950,0.0842,-0.9793,-0.1576,-0.2764,3.7146,1.8293,11.5248,-5.3665,-2.3667,-13.4130,-0.0915,6.1097,-0.0035,0.0464,0.0229,0.9987,-0.3276,-0.0093,0.1681
621,Pelvis,2,0.4568,-0.4357,0.5289,0.5672,-0.2705,0.0585,-0.0029,-0.4819,1.2098,0.2757,10.0771,1.0900,0.8581,-0.0034,0.0007,-0.0000,1.0000,0.2519,0.0273,0.0212
622,Right,2,0.1983,-0.0691,-0.9665,0.1474,0.0724,-0.0281,0.0928,-0.0738,0.1662,-0.1014,-3.5168,1.6794,8.8968,0.0009,-0.0004,0.0012,1.0000,-0.0880,0.0417,0.2224
622,Left,2,0.1439,0.0807,-0.9771,-0.1344,-0.5322,3.7255,2.1351,9.7156,-3.0523,2.0970,-12.4626,-2.0436,9.2887,-0.0066,0.0465,0.0267,0.9985,-0.2988,-0.0576,0.2467
622,Pelvis,2,0.4537,-0.4365,0.5289,0.5691,-0.2447,0.1556,0.0591,-0.2321,0.8783,0.1607,9.9105,0.8137,1.1887,-0.0031,0.0019,0.0007,1.0000,0.2478,0.0206,0.0292
623,Right,2,0.1981,-0.0707,-0.9662,0.1488,0.1110,-0.0207,0.1451,-0.0306,0.0406,-0.1107,-3.5026,1.8356,8.8597,0.0014,-0.0003,0.0018,1.0000,-0.0877,0.0454,0.2215
623,Left,2,0.1871,0.0759,-0.9728,-0.1133,-0.3527,3.3290,1.9168,6.7974,-0.1757,3.8485,-10.4156,-3.9454,10.4397,-0.0044,0.0416,0.0240,0.9988,-0.2468,-0.1035,0.2719
623,Pelvis,2,0.4512,-0.4375,0.5295,0.5698,-0.1708,0.1164,0.1211,-0.1184,0.6185,-0.1983,9.5105,0.6455,1.4028,-0.0021,0.0015,0.0015,1.0000,0.2378,0.0166,0.0347
624,Right,2,0.1979,-0.0723,-0.9659,0.1502,0.1183,-0.0215,0.1439,0.0108,-0.0417,-0.0913,-3.5078,1.9620,8.8518,0.0015,-0.0003,0.0018,1.0000,-0.0878,0.0486,0.2213
624,Left,2,0.2251,0.0657,-0.9670,-0.0995,0.2138,3.0440,1.3946,3.8982,1.6846,3.2094,-8.0989,-4.6797,10.0114,0.0027,0.0380,0.0174,0.9991,-0.1907,-0.1211,0.2574
624,Pelvis,2,0.4487,-0.4388,0.5303,0.5701,-0.1540,0.0855,0.1648,-0.3476,0.4314,-0.4163,9.2446,0.8184,1.5706,-0.0019,0.0011,0.0021,1.0000,0.2311,0.0210,0.0390
625,Right,2,0.1977,-0.0735,-0.9657,0.1514,0.0939,-0.0199,0.0950,0.0676,0.0279,-0.0386,-3.5868,1.9520,8.8805,0.0012,-0.0002,0.0012,1.0000,-0.0898,0.0484,0.2220
625,Pelvis,2,0.4455,-0.4412,0.5309,0.5701,-0.2327,0.0497,0.2279,-0.8627,0.3825,-0.5026,9.1256,1.2750,1.6326,-0.0029,0.0006,0.0028,1.0000,0.2281,0.0326,0.0406
626,Right,2,0.1975,-0.0744,-0.9656,0.1520,0.0713,-0.0132,0.0570,-0.0197,0.2365,-0.0409,-3.5682,1.7544,8.9294,0.0009,-0.0002,0.0007,1.0000,-0.0893,0.0436,0.2233
626,Left,2,0.2950,0.0404,-0.9496,-0.0978,0.6442,2.9546,0.4016,-2.5384,3.3374,0.8426,-2.3430,-4.4742,10.2878,0.0161,0.0738,0.0100,0.9971,-0.0767,-0.2329,0.5173
626,Pelvis,2,0.4407,-0.4454,0.5313,0.5702,-0.3919,0.0372,0.3306,-1.2344,0.7749,-0.3286,9.3700,1.5935,1.3184,-0.0049,0.0005,0.0041,1.0000,0.2341,0.0410,0.0327
627,Right,2,0.1976,-0.0753,-0.9654,0.1524,0.0784,0.0073,0.0515,-0.0152,0.3004,-0.0735,-3.5778,1.7065,8.9011,0.0010,0.0001,0.0006,1.0000,-0.0895,0.0424,0.2226
627,Left,2,0.3240,0.0326,-0.9395,-0.1064,0.5407,2.5056,-0.4765,-11.0777,4.6033,-3.2141,5.9017,-3.4826,11.8554,0.0068,0.0313,-0.0060,0.9995,0.1562,-0.0900,0.2910
627,Pelvis,2,0.4340,-0.4507,0.5320,0.5705,-0.5320,0.0806,0.4516,-1.4656,0.8494,-0.3499,9.3705,1.7216,1.2822,-0.0066,0.0010,0.0056,1.0000,0.2340,0.0446,0.0315
628,Right,2,0.1976,-0.0764,-0.9653,0.1529,0.0865,-0.0181,0.0681,-0.0422,0.3195,-0.1596,-3.5273,1.6851,8.8320,0.0011,-0.0002,0.0009,1.0000,-0.0883,0.0418,0.2208
628,Left,2,0.3184,0.0483,-0.9399,-0.1133,-0.9409,-0.5563,-0.9485,-23.8606,-4.3545,38.7688,-11.5581,1.4190,53.0385,-0.0118,-0.0070,-0.0119,0.9998,-0.2976,0.0545,1.3233
628,Pelvis,2,0.4273,-0.4596,0.5314,0.5690,-0.6578,-0.1886,0.5895,-1.5584,0.6457,-1.2440,8.4751,1.6550,1.3050,-0.0082,-0.0024,0.0074,0.9999,0.2115,0.0432,0.0328
629,Right,2,0.1973,-0.0775,-0.9651,0.1537,0.0869,-0.0283,0.0733,-0.0315,0.2121,-0.0465,-3.5330,1.8343,8.9206,0.0011,-0.0004,0.0009,1.0000,-0.0884,0.0455,0.2230
629,Left,2,0.2183,0.0547,-0.9683,-0.1085,0.4202,-8.3441,0.0588,-31.4060,26.0536,-9.5455,32.2671,-19.5183,15.7318,0.0052,-0.1041,0.0007,0.9946,0.7605,-0.4897,0.4717
629,Pelvis,2,0.4200,-0.4696,0.5307,0.5669,-0.7172,-0.2412,0.6709,-0.6221,-1.1765,-1.3899,7.9864,0.4285,2.9582,-0.0090,-0.0030,0.0084,0.9999,0.1993,0.0131,0.0744
630,Right,2,0.1989,-0.0786,-0.9647,0.1536,0.1225,0.1256,0.0012,0.0803,-0.1599,0.3728,-3.6675,2.3269,9.2147,0.0015,0.0016,0.0000,1.0000,-0.0913,0.0578,0.2306
630,Left,2,0.2063,0.0511,-0.9709,-0.1102,0.4281,-0.9297,-0.0898,-4.6027,-3.4423,1.8068,-1.3796,2.4821,12.6487,0.0054,-0.0116,-0.0011,0.9999,-0.0381,0.0604,0.3161
630,Pelvis,2,0.4162,-0.4795,0.5254,0.5664,-0.7874,-0.4817,0.2632,2.9646,-3.1323,1.7808,10.6997,-3.5555,5.0880,-0.0098,-0.0060,0.0033,0.9999,0.2670,-0.0867,0.1297
631,Right,2,0.2015,-0.0776,-0.9645,0.1518,-0.0006,0.2029,-0.1625,-0.3153,-0.4251,-0.2992,-3.0348,2.3326,8.7256,-0.0000,0.0025,-0.0020,1.0000,-0.0752,0.0585,0.2183
631,Left,2,0.2146,0.0523,-0.9690,-0.1105,-0.1602,0.6697,-0.0262,0.8638,-2.0928,0.7464,-5.4510,0.3159,9.3172,-0.0020,0.0084,-0.0003,1.0000,-0.1343,0.0084,0.2340
632,Right,2,0.2026,-0.0760,-0.9647,0.1504,-0.0743,0.0924,-0.1498,0.1378,0.3616,-0.2460,-3.7442,1.6971,8.6471,-0.0009,0.0012,-0.0019,1.0000,-0.0933,0.0428,0.2162
632,Left,2,0.2213,0.0572,-0.9670,-0.1130,-0.4043,0.5229,-0.2674,0.6723,-0.2167,-0.0231,-4.6551,-1.4332,8.5213,-0.0051,0.0065,-0.0033,1.0000,-0.1151,-0.0344,0.2140
632,Pelvis,2,0.4310,-0.4688,0.5205,0.5687,0.4271,-0.1051,-0.6198,0.3923,-1.4426,4.9050,14.1689,-0.7456,4.1899,0.0107,-0.0026,-0.0155,0.9998,0.7072,-0.0505,0.2109
633,Right,2,0.2030,-0.0754,-0.9647,0.1500,-0.0255,0.0391,-0.0343,0.1552,0.3886,-0.0698,-3.8508,1.6908,8.7983,-0.0003,0.0005,-0.0004,1.0000,-0.0961,0.0424,0.2200
633,Left,2,0.2242,0.0606,-0.9658,-0.1156,-0.2432,0.2333,-0.2595,0.1045,0.8294,-0.6290,-3.7170,-2.3352,8.1098,-0.0030,0.0029,-0.0032,1.0000,-0.0925,-0.0575,0.2032
633,Pelvis,2,0.4299,-0.4697,0.5232,0.5665,0.0803,0.0144,0.2956,-4.3004,0.0617,-2.9039,6.7308,4.2837,1.6046,0.0010,0.0002,0.0037,1.0000,0.1679,0.1077,0.0402
634,Right,2,0.2037,-0.0756,-0.9644,0.1504,0.0255,0.0670,0.0456,0.0670,0.2306,0.0024,-3.7603,1.8305,8.8828,0.0003,0.0008,0.0006,1.0000,-0.0938,0.0456,0.2222
634,Left,2,0.2238,0.0610,-0.9657,-0.1164,-0.0095,-0.0267,-0.0722,0.3684,0.5501,-0.2317,-4.1943,-2.2267,8.3477,-0.0001,-0.0003,-0.0009,1.0000,-0.1050,-0.0555,0.2087
634,Pelvis,2,0.4224,-0.4707,0.5259,0.5687,-0.3590,0.4426,0.3510,-2.1220,-0.2086,-5.4241,4.2476,2.0548,1.2422,-0.0045,0.0055,0.0044,1.0000,0.1061,0.0520,0.0302
635,Right,2,0.2045,-0.0749,-0.9643,0.1507,-0.0273,0.0756,0.0005,0.3576,-0.0115,0.0790,-3.9778,2.1488,8.8054,-0.0003,0.0009,0.0000,1.0000,-0.0992,0.0538,0.2202
635,Left,2,0.2223,0.0613,-0.9661,-0.1163,0.0038,-0.1208,-0.0046,0.1185,-0.2380,0.0698,-4.2821,-1.4735,8.7878,0.0000,-0.0015,-0.0001,1.0000,-0.1074,-0.0368,0.2195
635,Pelvis,2,0.4126,-0.4711,0.5271,0.5745,-0.6153,0.6580,0.2011,0.5736,-0.8280,-3.0159,6.4755,-0.7761,2.1626,-0.0077,0.0082,0.0025,0.9999,0.1624,-0.0186,0.0529
636,Right,2,0.2047,-0.0732,-0.9645,0.1500,-0.1071,0.0306,-0.0809,0.1711,0.1281,-0.0050,-3.8425,1.9296,8.8175,-0.0013,0.0004,-0.0010,1.0000,-0.0959,0.0486,0.2204
636,Left,2,0.2209,0.0619,-0.9663,-0.1163,-0.0333,-0.1192,-0.0165,0.0412,-0.0788,0.0445,-4.1365,-1.6131,8.8011,-0.0004,-0.0015,-0.0002,1.0000,-0.1037,-0.0402,0.2199
636,Pelvis,2,0.4043,-0.4705,0.5272,0.5808,-0.5592,0.6112,0.0384,1.1615,-0.3283,1.7263,11.1723,-1.4705,2.7610,-0.0070,0.0076,0.0005,0.9999,0.2798,-0.0362,0.0671
637,Right,2,0.2050,-0.0719,-0.9646,0.1496,-0.0804,0.0340,-0.0528,-0.0400,0.4297,-0.0505,-3.7484,1.5508,8.8900,-0.0010,0.0004,-0.0007,1.0000,-0.0936,0.0391,0.2222
637,Left,2,0.2194,0.0633,-0.9666,-0.1166,-0.0818,-0.1322,-0.0499,0.0775,-0.2212,0.2462,-4.2575,-1.5349,8.9863,-0.0010,-0.0017,-0.0006,1.0000,-0.1068,-0.0381,0.2245
637,Pelvis,2,0.3977,-0.4712,0.5268,0.5851,-0.4952,0.4001,0.0836,0.6026,-0.2594,2.8818,12.2727,-0.9925,3.1586,-0.0062,0.0050,0.0010,1.0000,0.3072,-0.0240,0.0776
638,Right,2,0.2061,-0.0719,-0.9643,0.1499,0.0171,0.0862,0.0336,-0.0594,0.3097,-0.0450,-3.7097,1.6490,8.8897,0.0002,0.0011,0.0004,1.0000,-0.0925,0.0411,0.2223
638,Left,2,0.2180,0.0656,-0.9667,-0.1173,-0.1420,-0.1257,-0.0972,0.0034,-0.0506,0.1476,-4.0765,-1.7016,8.9273,-0.0018,-0.0016,-0.0012,1.0000,-0.1023,-0.0420,0.2231
638,Pelvis,2,0.3926,-0.4729,0.5260,0.5878,-0.4256,0.2110,0.0981,0.9313,-0.7407,1.4434,10.7338,-1.3968,3.3091,-0.0053,0.0026,0.0012,1.0000,0.2686,-0.0342,0.0822
639,Right,2,0.2075,-0.0726,-0.9638,0.1507,0.0753,0.1161,0.0862,-0.0403,0.0881,-0.1056,-3.6530,1.8629,8.7990,0.0009,0.0015,0.0011,1.0000,-0.0911,0.0463,0.2201
639,Left,2,0.2171,0.0679,-0.9666,-0.1184,-0.1490,-0.0767,-0.1323,-0.0902,0.1078,-0.0370,-3.8508,-1.8477,8.7945,-0.0019,-0.0010,-0.0017,1.0000,-0.0966,-0.0456,0.2199
639,Pelvis,2,0.3892,-0.4739,0.5247,0.5904,-0.3374,0.1507,-0.0037,0.2700,-0.6477,-0.4080,8.9473,-0.7041,2.8966,-0.0042,0.0019,-0.0000,1.0000,0.2238,-0.0173,0.0721
640,Right,2,0.2087,-0.0733,-0.9635,0.1511,0.0634,0.0887,0.0632,-0.1129,-0.1108,-0.2054,-3.5089,2.0308,8.7115,0.0008,0.0011,0.0008,1.0000,-0.0875,0.0505,0.2179
640,Left,2,0.2166,0.0695,-0.9664,-0.1195,-0.0926,-0.0408,-0.1166,-0.0850,0.1879,-0.1695,-3.7617,-1.9411,8.6669,-0.0012,-0.0005,-0.0015,1.0000,-0.0942,-0.0481,0.2167
640,Pelvis,2,0.3849,-0.4750,0.5229,0.5939,-0.4278,0.2034,-0.0283,-0.2701,-0.4394,-1.2457,8.1764,-0.1299,2.6057,-0.0053,0.0025,-0.0004,1.0000,0.2046,-0.0030,0.0646
641,Right,2,0.2092,-0.0734,-0.9633,0.1512,0.0239,0.0429,0.0178,-0.0943,-0.0281,-0.2103,-3.5630,1.9668,8.6978,0.0003,0.0005,0.0002,1.0000,-0.0890,0.0491,0.2175
641,Left,2,0.2163,0.0704,-0.9663,-0.1204,-0.0496,-0.0217,-0.0913,-0.0548,0.0555,-0.1432,-3.8211,-1.8511,8.6878,-0.0006,-0.0003,-0.0011,1.0000,-0.0956,-0.0460,0.2172
641,Pelvis,2,0.3792,-0.4765,0.5204,0.5986,-0.5743,0.2661,-0.0449,-0.1383,-0.2502,-0.5959,8.8380,-0.2796,2.6157,-0.0072,0.0033,-0.0006,1.0000,0.2212,-0.0066,0.0647
642,Right,2,0.2094,-0.0733,-0.9633,0.1510,0.0022,0.0163,-0.0060,-0.0802,0.1166,-0.1978,-3.6333,1.8366,8.7116,0.0000,0.0002,-0.0001,1.0000,-0.0908,0.0459,0.2178
642,Left,2,0.2160,0.0710,-0.9662,-0.1212,-0.0239,-0.0258,-0.0711,-0.0211,-0.0433,-0.0803,-3.8925,-1.7917,8.7384,-0.0003,-0.0003,-0.0009,1.0000,-0.0974,-0.0446,0.2184
642,Pelvis,2,0.3735,-0.4784,0.5172,0.6035,-0.6234,0.2327,-0.0757,0.1482,-0.1354,0.1392,9.5628,-0.5975,2.6973,-0.0078,0.0029,-0.0009,1.0000,0.2393,-0.0146,0.0669
643,Right,2,0.2094,-0.0732,-0.9634,0.1507,0.0068,0.0034,-0.0055,-0.0534,0.1357,-0.1667,-3.6754,1.8301,8.7297,0.0001,0.0000,-0.0001,1.0000,-0.0919,0.0457,0.2183
643,Left,2,0.2153,0.0716,-0.9663,-0.1218,-0.0230,-0.0497,-0.0616,-0.0140,-0.1133,-0.0388,-3.9220,-1.7466,8.7812,-0.0003,-0.0006,-0.0008,1.0000,-0.0982,-0.0435,0.2195
643,Pelvis,2,0.3683,-0.4810,0.5139,0.6074,-0.6026,0.1361,-0.0375,0.6228,-0.0986,0.0441,9.4732,-1.0782,2.5786,-0.0075,0.0017,-0.0005,1.0000,0.2369,-0.0266,0.0643
644,Right,2,0.2093,-0.0733,-0.9634,0.1506,0.0121,-0.0045,0.0003,-0.0454,0.1706,-0.1328,-3.7064,1.8057,8.7598,0.0002,-0.0001,0.0000,1.0000,-0.0927,0.0451,0.2190
644,Left,2,0.2146,0.0721,-0.9663,-0.1223,-0.0192,-0.0596,-0.0489,-0.0551,-0.0935,-0.0568,-3.8585,-1.7651,8.7855,-0.0002,-0.0007,-0.0006,1.0000,-0.0967,-0.0440,0.2196
644,Pelvis,2,0.3641,-0.4841,0.5112,0.6097,-0.5000,0.0309,0.0216,0.8934,-0.0221,-0.3925,9.0709,-1.3382,2.3384,-0.0063,0.0004,0.0003,1.0000,0.2268,-0.0330,0.0586
645,Right,2,0.2093,-0.0734,-0.9634,0.1504,0.0250,-0.0029,0.0022,0.0765,0.2406,0.0231,-3.8935,1.8037,8.8540,0.0003,-0.0000,0.0000,1.0000,-0.0973,0.0450,0.2214
645,Left,2,0.2137,0.0727,-0.9664,-0.1227,-0.0228,-0.0664,-0.0459,0.0043,-0.0452,0.0614,-3.9281,-1.8566,8.8669,-0.0003,-0.0008,-0.0006,1.0000,-0.0984,-0.0463,0.2216
645,Pelvis,2,0.3610,-0.4867,0.5091,0.6112,-0.3813,-0.0039,0.0402,1.0376,0.0428,-0.4558,9.0268,-1.4933,2.2172,-0.0048,-0.0000,0.0005,1.0000,0.2257,-0.0370,0.0556
646,Right,2,0.2089,-0.0744,-0.9635,0.1498,0.0905,-0.0423,-0.0258,0.1872,0.3273,0.2478,-4.0981,1.8047,9.0169,0.0011,-0.0005,-0.0003,1.0000,-0.1026,0.0449,0.2254
646,Left,2,0.2129,0.0734,-0.9665,-0.1231,-0.0356,-0.0659,-0.0477,-0.0573,-0.1148,0.0596,-3.8746,-1.7891,8.9031,-0.0004,-0.0008,-0.0006,1.0000,-0.0971,-0.0446,0.2225
646,Pelvis,2,0.3590,-0.4885,0.5077,0.6122,-0.2580,-0.0129,0.0226,1.1207,0.1166,-0.0559,9.4317,-1.6038,2.2217,-0.0032,-0.0002,0.0003,1.0000,0.2358,-0.0398,0.0557
647,Right,2,0.2081,-0.0759,-0.9638,0.1484,0.1369,-0.0909,-0.0647,-0.0494,0.0158,-0.0577,-3.6648,1.9921,8.8184,0.0017,-0.0011,-0.0008,1.0000,-0.0918,0.0495,0.2204
647,Left,2,0.2122,0.0744,-0.9665,-0.1235,-0.0521,-0.0649,-0.0556,-0.0114,-0.0943,-0.0038,-3.8671,-1.8218,8.8289,-0.0007,-0.0008,-0.0007,1.0000,-0.0969,-0.0453,0.2207
647,Pelvis,2,0.3583,-0.4896,0.5068,0.6124,-0.1179,-0.0416,0.0102,1.0456,0.2401,0.0638,9.5807,-1.5231,2.1419,-0.0015,-0.0005,0.0001,1.0000,0.2395,-0.0380,0.0537
648,Right,2,0.2072,-0.0771,-0.9641,0.1472,0.1087,-0.0993,-0.0597,0.0936,-0.1382,-0.0993,-3.7075,2.1841,8.7099,0.0014,-0.0012,-0.0007,1.0000,-0.0929,0.0544,0.2177
648,Left,2,0.2113,0.0753,-0.9666,-0.1240,-0.0508,-0.0716,-0.0570,0.0280,-0.0400,0.0404,-3.8861,-1.9087,8.8511,-0.0006,-0.0009,-0.0007,1.0000,-0.0974,-0.0475,0.2212
648,Pelvis,2,0.3588,-0.4902,0.5068,0.6116,0.0266,-0.0860,0.0291,0.8461,0.4556,-0.0431,9.5371,-1.2804,1.9427,0.0003,-0.0011,0.0004,1.0000,0.2384,-0.0319,0.0488
649,Right,2,0.2056,-0.0781,-0.9645,0.1462,0.0839,-0.1503,-0.0440,0.2165,0.1716,0.0296,-3.9367,1.9612,8.8093,0.0010,-0.0019,-0.0006,1.0000,-0.0988,0.0489,0.2201
649,Left,2,0.2099,0.0763,-0.9668,-0.1244,-0.0470,-0.1161,-0.0569,0.1021,-0.1235,0.1451,-3.9907,-1.8826,8.9283,-0.0006,-0.0015,-0.0007,1.0000,-0.1001,-0.0469,0.2231
649,Pelvis,2,0.3604,-0.4904,0.5076,0.6099,0.1508,-0.1143,0.0578,0.5560,0.4277,-0.2067,9.3739,-1.0009,1.9734,0.0019,-0.0014,0.0007,1.0000,0.2343,-0.0249,0.0496
650,Right,2,0.2032,-0.0795,-0.9650,0.1456,0.1053,-0.2067,-0.0088,0.2279,0.3512,0.1569,-4.0121,1.8362,8.9498,0.0013,-0.0026,-0.0001,1.0000,-0.1009,0.0456,0.2235
650,Left,2,0.2080,0.0770,-0.9671,-0.1246,-0.0278,-0.1601,-0.0295,0.0019,-0.0283,-0.0144,-3.7815,-1.9347,8.8298,-0.0003,-0.0020,-0.0004,1.0000,-0.0950,-0.0483,0.2206
650,Pelvis,2,0.3622,-0.4906,0.5088,0.6077,0.1882,-0.1364,0.0827,0.2158,0.4056,-0.1852,9.3924,-0.6839,2.0529,0.0024,-0.0017,0.0010,1.0000,0.2347,-0.0170,0.0517
651,Right,2,0.1998,-0.0820,-0.9656,0.1451,0.1629,-0.3078,0.0246,0.1441,0.4791,0.2345,-3.9490,1.7390,9.0872,0.0020,-0.0038,0.0003,1.0000,-0.0996,0.0430,0.2269
651,Left,2,0.2059,0.0773,-0.9676,-0.1242,0.0013,-0.1705,0.0123,-0.0369,0.0397,-0.0818,-3.6655,-1.9830,8.7934,0.0000,-0.0021,0.0002,1.0000,-0.0921,-0.0496,0.2196
651,Pelvis,2,0.3638,-0.4909,0.5100,0.6055,0.1778,-0.1341,0.0970,0.0301,0.3484,-0.0863,9.4783,-0.5328,2.1454,0.0022,-0.0017,0.0012,1.0000,0.2369,-0.0132,0.0540
652,Right,2,0.1959,-0.0850,-0.9662,0.1446,0.1990,-0.3440,0.0359,-0.1167,0.2846,-0.0740,-3.4721,1.8319,8.9178,0.0025,-0.0043,0.0004,1.0000,-0.0878,0.0452,0.2227
652,Left,2,0.2039,0.0771,-0.9681,-0.1235,0.0314,-0.1613,0.0494,-0.0232,0.0718,-0.1162,-3.6205,-2.0045,8.7693,0.0004,-0.0020,0.0006,1.0000,-0.0909,-0.0503,0.2190
652,Pelvis,2,0.3652,-0.4914,0.5108,0.6035,0.1396,-0.1376,0.0766,-0.0566,0.2162,-0.0354,9.4995,-0.4913,2.2720,0.0017,-0.0017,0.0010,1.0000,0.2374,-0.0122,0.0572
653,Right,2,0.1919,-0.0885,-0.9668,0.1438,0.2525,-0.3622,0.0169,0.0364,0.3872,0.1155,-3.6257,1.8642,9.0609,0.0032,-0.0045,0.0002,1.0000,-0.0917,0.0459,0.2263
653,Left,2,0.2019,0.0767,-0.9687,-0.1227,0.0426,-0.1662,0.0669,0.0634,-0.0411,0.0896,-3.7712,-1.9430,8.9478,0.0005,-0.0021,0.0008,1.0000,-0.0947,-0.0488,0.2235
653,Pelvis,2,0.3666,-0.4922,0.5111,0.6017,0.0943,-0.1621,0.0599,0.0322,0.1005,0.0138,9.5246,-0.6146,2.3400,0.0012,-0.0020,0.0007,1.0000,0.2380,-0.0153,0.0590
654,Right,2,0.1878,-0.0924,-0.9674,0.1423,0.2800,-0.3753,-0.0310,0.0785,0.0359,-0.0606,-3.4100,2.2223,8.8626,0.0035,-0.0047,-0.0004,1.0000,-0.0863,0.0548,0.2214
654,Left,2,0.1996,0.0767,-0.9693,-0.1217,0.0228,-0.1897,0.0638,-0.0098,-0.1032,-0.0039,-3.6508,-1.8376,8.9173,0.0003,-0.0024,0.0008,1.0000,-0.0918,-0.0461,0.2227
654,Pelvis,2,0.3680,-0.4934,0.5112,0.5999,0.0809,-0.1844,0.0573,0.2157,0.0642,0.0135,9.5228,-0.8099,2.2946,0.0010,-0.0023,0.0007,1.0000,0.2380,-0.0201,0.0579
655,Right,2,0.1838,-0.0955,-0.9681,0.1409,0.2174,-0.3652,-0.0306,-0.0219,-0.1517,-0.2584,-3.1162,2.3788,8.7143,0.0027,-0.0046,-0.0004,1.0000,-0.0789,0.0589,0.2177
655,Left,2,0.1976,0.0766,-0.9698,-0.1209,0.0200,-0.1665,0.0611,-0.0916,0.1859,-0.2591,-3.3701,-2.0387,8.7063,0.0002,-0.0021,0.0008,1.0000,-0.0847,-0.0511,0.2175
655,Pelvis,2,0.3698,-0.4945,0.5112,0.5978,0.1023,-0.2084,0.0516,0.2301,0.0314,-0.0888,9.4255,-0.8318,2.2531,0.0013,-0.0026,0.0006,1.0000,0.2355,-0.0207,0.0569
656,Right,2,0.1806,-0.0974,-0.9686,0.1401,0.1372,-0.2780,-0.0129,-0.2510,-0.1521,-0.4732,-2.7717,2.3075,8.6201,0.0017,-0.0035,-0.0002,1.0000,-0.0700,0.0573,0.2154
656,Left,2,0.1960,0.0762,-0.9702,-0.1202,0.0419,-0.1283,0.0569,-0.0631,0.0550,-0.1796,-3.4294,-1.9239,8.7943,0.0005,-0.0016,0.0007,1.0000,-0.0861,-0.0483,0.2197
656,Pelvis,2,0.3720,-0.4958,0.5112,0.5954,0.1258,-0.2470,0.0487,0.1222,0.0648,-0.2226,9.3169,-0.7163,2.1616,0.0016,-0.0031,0.0006,1.0000,0.2328,-0.0179,0.0547
657,Right,2,0.1783,-0.0986,-0.9690,0.1396,0.0837,-0.1985,-0.0050,-0.1875,-0.0457,-0.3860,-2.8372,2.2634,8.7022,0.0010,-0.0025,-0.0001,1.0000,-0.0715,0.0564,0.2174
657,Left,2,0.1949,0.0754,-0.9706,-0.1194,0.0709,-0.0865,0.0691,-0.1074,0.1625,-0.2358,-3.3202,-1.9906,8.7618,0.0009,-0.0011,0.0009,1.0000,-0.0832,-0.0500,0.2189
657,Pelvis,2,0.3747,-0.4970,0.5111,0.5928,0.1463,-0.2677,0.0300,0.0912,0.1259,-0.2670,9.3017,-0.6728,2.0423,0.0018,-0.0033,0.0004,1.0000,0.2324,-0.0168,0.0518
658,Right,2,0.1765,-0.0994,-0.9693,0.1393,0.0521,-0.1537,-0.0006,-0.0772,0.0008,-0.2348,-2.9596,2.2944,8.8158,0.0007,-0.0019,-0.0000,1.0000,-0.0744,0.0572,0.2203
658,Left,2,0.1942,0.0744,-0.9709,-0.1188,0.0824,-0.0478,0.0620,-0.0791,0.0461,-0.1229,-3.4046,-1.8851,8.8745,0.0010,-0.0006,0.0008,1.0000,-0.0852,-0.0474,0.2218
658,Pelvis,2,0.3776,-0.4981,0.5108,0.5903,0.1557,-0.2832,0.0067,0.0143,0.2039,-0.2280,9.3725,-0.5813,1.9308,0.0019,-0.0035,0.0001,1.0000,0.2341,-0.0146,0.0491
659,Right,2,0.1750,-0.0997,-0.9696,0.1393,0.0269,-0.1221,0.0013,-0.0801,0.0657,-0.2488,-2.9413,2.2345,8.8224,0.0003,-0.0015,0.0000,1.0000,-0.0739,0.0558,0.2205
659,Left,2,0.1937,0.0735,-0.9711,-0.1183,0.0680,-0.0375,0.0508,-0.0234,-0.1744,0.0384,-3.5621,-1.6947,9.0285,0.0009,-0.0005,0.0006,1.0000,-0.0891,-0.0426,0.2256
659,Pelvis,2,0.3806,-0.4994,0.5101,0.5878,0.1363,-0.3046,-0.0049,-0.1193,0.2160,-0.1795,9.4388,-0.4442,1.8896,0.0017,-0.0038,-0.0001,1.0000,0.2358,-0.0112,0.0481
660,Right,2,0.1738,-0.0999,-0.9698,0.1391,0.0114,-0.0909,-0.0031,-0.0954,0.1448,-0.2155,-2.9372,2.1661,8.8779,0.0001,-0.0011,-0.0000,1.0000,-0.0737,0.0541,0.2219
660,Left,2,0.1930,0.0731,-0.9714,-0.1178,0.0376,-0.0561,0.0433,0.0251,-0.1408,0.0746,-3.6008,-1.7287,9.0457,0.0005,-0.0007,0.0005,1.0000,-0.0902,-0.0434,0.2261
660,Pelvis,2,0.3836,-0.5012,0.5092,0.5851,0.1162,-0.3439,0.0006,-0.1471,0.1587,-0.1398,9.4808,-0.4237,1.8830,0.0015,-0.0043,0.0000,1.0000,0.2368,-0.0107,0.0481
661,Right,2,0.1726,-0.1000,-0.9700,0.1391,0.0077,-0.0920,-0.0023,0.0299,0.1963,-0.0481,-3.0956,2.1864,9.0013,0.0001,-0.0012,-0.0000,1.0000,-0.0776,0.0546,0.2249
661,Left,2,0.1921,0.0731,-0.9716,-0.1173,0.0100,-0.0728,0.0321,0.0268,-0.1290,0.0547,-3.5787,-1.7291,9.0324,0.0001,-0.0009,0.0004,1.0000,-0.0897,-0.0433,0.2257
661,Pelvis,2,0.3864,-0.5034,0.5081,0.5824,0.0835,-0.3596,0.0085,-0.2088,0.1138,-0.1349,9.4939,-0.3685,1.8567,0.0010,-0.0045,0.0001,1.0000,0.2371,-0.0092,0.0475
662,Right,2,0.1714,-0.1001,-0.9702,0.1391,0.0094,-0.1007,-0.0049,-0.0657,0.1416,-0.1728,-2.9326,2.1840,8.9208,0.0001,-0.0013,-0.0001,1.0000,-0.0736,0.0546,0.2229
662,Left,2,0.1913,0.0734,-0.9718,-0.1169,-0.0134,-0.0669,0.0235,-0.0813,-0.0532,-0.0990,-3.3924,-1.7508,8.9326,-0.0002,-0.0008,0.0003,1.0000,-0.0850,-0.0438,0.2233
662,Pelvis,2,0.3889,-0.5056,0.5068,0.5799,0.0465,-0.3418,0.0181,-0.1151,0.0654,0.0108,9.6407,-0.4780,1.8298,0.0006,-0.0043,0.0002,1.0000,0.2408,-0.0119,0.0468
663,Right,2,0.1705,-0.1000,-0.9704,0.1390,0.0020,-0.0675,-0.0023,-0.0761,0.1143,-0.1775,-2.8941,2.2037,8.9232,0.0000,-0.0008,-0.0000,1.0000,-0.0725,0.0551,0.2230
663,Left,2,0.1908,0.0739,-0.9719,-0.1166,-0.0310,-0.0414,0.0132,-0.0869,-0.0113,-0.1093,-3.3613,-1.7926,8.9248,-0.0004,-0.0005,0.0002,1.0000,-0.0841,-0.0447,0.2231
663,Pelvis,2,0.3910,-0.5077,0.5057,0.5776,0.0428,-0.3070,0.0208,0.0185,-0.0039,0.2036,9.8273,-0.6362,1.8291,0.0005,-0.0038,0.0003,1.0000,0.2455,-0.0159,0.0467
664,Right,2,0.1698,-0.1000,-0.9705,0.1390,0.0035,-0.0533,-0.0007,0.0198,0.1264,-0.0958,-2.9945,2.2320,8.9714,0.0000,-0.0007,-0.0000,1.0000,-0.0750,0.0558,0.2242
664,Left,2,0.1905,0.0744,-0.9719,-0.1164,-0.0380,-0.0304,0.0055,-0.0157,-0.0217,-0.0764,-3.4315,-1.8110,8.9298,-0.0005,-0.0004,0.0001,1.0000,-0.0859,-0.0452,0.2232
664,Pelvis,2,0.3931,-0.5095,0.5047,0.5755,0.0492,-0.2888,0.0112,-0.0303,-0.0903,0.2777,9.8987,-0.6105,1.8624,0.0006,-0.0036,0.0001,1.0000,0.2473,-0.0153,0.0474
665,Right,2,0.1693,-0.0998,-0.9706,0.1392,-0.0028,-0.0364,0.0040,-0.0193,0.0386,-0.1214,-2.9150,2.2967,8.9527,-0.0000,-0.0005,0.0001,1.0000,-0.0730,0.0574,0.2238
665,Left,2,0.1902,0.0747,-0.9720,-0.1162,-0.0160,-0.0216,0.0099,0.0037,0.0921,-0.1235,-3.3975,-1.9220,8.8686,-0.0002,-0.0003,0.0001,1.0000,-0.0850,-0.0480,0.2217
665,Pelvis,2,0.3951,-0.5111,0.5037,0.5735,0.0451,-0.2709,-0.0003,-0.1321,-0.1677,0.2167,9.8406,-0.5200,1.8778,0.0006,-0.0034,-0.0000,1.0000,0.2459,-0.0130,0.0478
666,Right,2,0.1689,-0.0998,-0.9706,0.1393,0.0009,-0.0400,0.0072,0.1042,0.2075,0.0865,-3.1325,2.2146,9.1285,0.0000,-0.0005,0.0001,1.0000,-0.0784,0.0554,0.2282
666,Left,2,0.1901,0.0747,-0.9720,-0.1161,0.0035,-0.0111,0.0132,-0.0012,0.0017,-0.0677,-3.4321,-1.8462,8.9317,0.0000,-0.0001,0.0002,1.0000,-0.0858,-0.0462,0.2233
666,Pelvis,2,0.3970,-0.5128,0.5026,0.5718,0.0314,-0.2578,-0.0042,-0.2103,-0.1788,-0.0060,9.6340,-0.4293,1.8026,0.0004,-0.0032,-0.0001,1.0000,0.2407,-0.0108,0.0458
667,Right,2,0.1680,-0.1000,-0.9707,0.1394,0.0238,-0.0748,0.0133,0.0084,0.2012,-0.0497,-2.9897,2.1648,9.0406,0.0003,-0.0009,0.0002,1.0000,-0.0750,0.0540,0.2260
667,Left,2,0.1900,0.0746,-0.9721,-0.1159,0.0090,-0.0043,0.0150,-0.0431,-0.0135,-0.0562,-3.4007,-1.8241,8.9609,0.0001,-0.0001,0.0002,1.0000,-0.0850,-0.0456,0.2240
667,Pelvis,2,0.3984,-0.5143,0.5014,0.5703,0.0039,-0.2279,-0.0072,-0.2058,-0.1031,0.0191,9.6818,-0.4196,1.6745,0.0000,-0.0028,-0.0001,1.0000,0.2419,-0.0105,0.0426
668,Right,2,0.1671,-0.1004,-0.9708,0.1397,0.0325,-0.0778,0.0168,0.0516,0.1808,-0.0316,-3.0098,2.2027,9.0440,0.0004,-0.0010,0.0002,1.0000,-0.0755,0.0550,0.2260
668,Left,2,0.1899,0.0746,-0.9721,-0.1157,0.0053,-0.0111,0.0114,0.0608,-0.0852,0.0631,-3.5528,-1.7966,9.0384,0.0001,-0.0001,0.0001,1.0000,-0.0888,-0.0449,0.2259
668,Pelvis,2,0.3995,-0.5158,0.5003,0.5693,-0.0226,-0.1870,-0.0098,-0.2103,-0.1121,0.1304,9.7990,-0.4218,1.6505,-0.0003,-0.0023,-0.0001,1.0000,0.2449,-0.0106,0.0418
669,Right,2,0.1658,-0.1009,-0.9710,0.1399,0.0421,-0.0998,0.0202,0.0778,0.1713,0.0213,-3.0242,2.2378,9.0878,0.0005,-0.0012,0.0003,1.0000,-0.0759,0.0558,0.2271
669,Left,2,0.1894,0.0749,-0.9722,-0.1157,-0.0149,-0.0423,-0.0007,0.0470,-0.1017,0.1095,-3.5546,-1.7886,9.0900,-0.0002,-0.0005,-0.0000,1.0000,-0.0890,-0.0447,0.2272
669,Pelvis,2,0.4004,-0.5172,0.4989,0.5685,-0.0492,-0.1755,-0.0164,-0.1911,-0.0788,0.1151,9.7959,-0.4323,1.5676,-0.0006,-0.0022,-0.0002,1.0000,0.2448,-0.0108,0.0397
670,Right,2,0.1644,-0.1015,-0.9711,0.1402,0.0406,-0.1206,0.0209,0.0605,0.1074,-0.0176,-2.9504,2.2921,9.0554,0.0005,-0.0015,0.0003,1.0000,-0.0741,0.0572,0.2263
670,Left,2,0.1886,0.0754,-0.9723,-0.1155,-0.0232,-0.0637,-0.0007,0.0169,-0.0505,0.0125,-3.4679,-1.8191,9.0112,-0.0003,-0.0008,-0.0000,1.0000,-0.0869,-0.0454,0.2252
670,Pelvis,2,0.4011,-0.5187,0.4975,0.5679,-0.0671,-0.1687,-0.0224,-0.1325,-0.0714,0.0675,9.7549,-0.4820,1.5000,-0.0008,-0.0021,-0.0003,1.0000,0.2438,-0.0121,0.0380
671,Right,2,0.1627,-0.1020,-0.9713,0.1402,0.0356,-0.1343,0.0256,0.0426,0.1204,-0.0896,-2.8868,2.2651,9.0050,0.0004,-0.0017,0.0003,1.0000,-0.0726,0.0565,0.2250
671,Left,2,0.1878,0.0758,-0.9725,-0.1154,-0.0207,-0.0698,-0.0002,0.0073,-0.0239,-0.0224,-3.4248,-1.8424,8.9848,-0.0003,-0.0009,-0.0000,1.0000,-0.0858,-0.0460,0.2246
671,Pelvis,2,0.4018,-0.5201,0.4962,0.5674,-0.0589,-0.1545,-0.0229,0.0626,-0.0366,0.0236,9.7164,-0.6608,1.3830,-0.0007,-0.0019,-0.0003,1.0000,0.2428,-0.0166,0.0351
