PacketId,Role,StatusWord,Qx,Qy,Qz,Qw,Gx,Gy,Gz,FreeAx,FreeAy,FreeAz,Ax,Ay,Az,DQx,DQy,DQz,DQw,DVx,DVy,DVz
7120,Right,2,0.1795,-0.0996,-0.9780,-0.0361,-0.0005,0.0062,0.0030,-0.0258,0.0266,-0.0206,-3.4848,1.7585,8.9805,-0.0000,0.0001,0.0000,1.0000,-0.0871,0.0440,0.2245
7120,Left,2,0.1081,0.1399,-0.7801,0.6002,0.0144,0.0074,0.0029,0.0015,0.0005,-0.0579,-3.2843,-0.8615,9.1448,0.0002,0.0001,0.0000,1.0000,-0.0821,-0.0216,0.2286
7120,Pelvis,2,0.5719,0.3638,0.5723,-0.4615,-0.0283,0.0013,-0.0071,-0.0794,0.0292,-0.0190,9.6904,-1.1766,0.7973,-0.0004,0.0000,-0.0001,1.0000,0.2423,-0.0294,0.0199
7121,Right,2,0.1795,-0.0997,-0.9780,-0.0365,-0.0006,0.0056,0.0048,-0.0180,0.0261,-0.0087,-3.4968,1.7600,8.9885,-0.0000,0.0001,0.0001,1.0000,-0.0874,0.0440,0.2247
7121,Left,2,0.1081,0.1399,-0.7800,0.6003,0.0132,0.0068,0.0035,0.0058,0.0107,-0.0559,-3.2956,-0.8592,9.1431,0.0002,0.0001,0.0000,1.0000,-0.0824,-0.0215,0.2286
7121,Pelvis,2,0.5721,0.3637,0.5724,-0.4613,-0.0162,-0.0046,-0.0037,-0.0874,0.0602,0.0097,9.7149,-1.1961,0.8245,-0.0002,-0.0001,-0.0000,1.0000,0.2429,-0.0299,0.0206
7122,Right,2,0.1796,-0.0996,-0.9780,-0.0364,-0.0024,0.0063,0.0041,-0.0228,0.0458,-0.0138,-3.4904,1.7396,8.9896,-0.0000,0.0001,0.0001,1.0000,-0.0872,0.0435,0.2247
7122,Left,2,0.1081,0.1399,-0.7800,0.6003,0.0115,0.0046,0.0019,0.0037,0.0043,-0.0666,-3.2857,-0.8586,9.1353,0.0001,0.0001,0.0000,1.0000,-0.0821,-0.0215,0.2284
7122,Pelvis,2,0.5722,0.3637,0.5723,-0.4612,-0.0026,-0.0135,-0.0000,-0.1453,0.0959,-0.0175,9.6797,-1.2585,0.8345,-0.0000,-0.0002,-0.0000,1.0000,0.2420,-0.0315,0.0209
7123,Right,2,0.1796,-0.0996,-0.9780,-0.0365,-0.0029,0.0069,0.0028,-0.0209,0.0228,-0.0299,-3.4872,1.7582,8.9695,-0.0000,0.0001,0.0000,1.0000,-0.0872,0.0440,0.2242
7123,Left,2,0.1081,0.1399,-0.7800,0.6003,0.0108,0.0048,0.0031,-0.0057,0.0130,-0.0478,-3.2971,-0.8715,9.1501,0.0001,0.0001,0.0000,1.0000,-0.0824,-0.0218,0.2288
7123,Pelvis,2,0.5723,0.3640,0.5720,-0.4612,0.0208,-0.0270,0.0052,-0.1540,0.0920,-0.0187,9.6786,-1.2656,0.8229,0.0003,-0.0003,0.0001,1.0000,0.2420,-0.0316,0.0206
7124,Right,2,0.1796,-0.0995,-0.9780,-0.0364,-0.0030,0.0069,0.0046,-0.0084,0.0300,-0.0287,-3.4993,1.7492,8.9679,-0.0000,0.0001,0.0001,1.0000,-0.0875,0.0437,0.2242
7124,Left,2,0.1080,0.1398,-0.7800,0.6003,0.0116,-0.0001,0.0035,0.0112,0.0151,-0.0645,-3.2970,-0.8541,9.1338,0.0001,-0.0000,0.0000,1.0000,-0.0824,-0.0214,0.2283
7124,Pelvis,2,0.5725,0.3643,0.5716,-0.4613,0.0370,-0.0336,0.0102,-0.1001,0.0972,-0.0214,9.6801,-1.2177,0.8374,0.0005,-0.0004,0.0001,1.0000,0.2420,-0.0304,0.0210
7125,Right,2,0.1796,-0.0995,-0.9780,-0.0365,-0.0006,0.0050,0.0048,-0.0211,0.0344,-0.0125,-3.4932,1.7487,8.9880,-0.0000,0.0001,0.0001,1.0000,-0.0873,0.0437,0.2247
7125,Left,2,0.1079,0.1398,-0.7800,0.6003,0.0110,-0.0009,0.0029,0.0016,0.0188,-0.0691,-3.2948,-0.8638,9.1288,0.0001,-0.0000,0.0000,1.0000,-0.0824,-0.0216,0.2282
7125,Pelvis,2,0.5727,0.3648,0.5710,-0.4614,0.0500,-0.0436,0.0120,-0.0643,0.0588,-0.0564,9.6531,-1.1699,0.8011,0.0006,-0.0005,0.0001,1.0000,0.2413,-0.0292,0.0201
7126,Right,2,0.1796,-0.0994,-0.9780,-0.0360,-0.0020,0.0045,0.0060,-0.0244,0.0369,0.0062,-3.4965,1.7494,9.0071,-0.0000,0.0001,0.0001,1.0000,-0.0874,0.0437,0.2252
7126,Left,2,0.1079,0.1397,-0.7801,0.6002,0.0118,-0.0024,0.0014,0.0038,0.0150,-0.0478,-3.2974,-0.8630,9.1508,0.0001,-0.0000,0.0000,1.0000,-0.0824,-0.0216,0.2288
7126,Pelvis,2,0.5729,0.3651,0.5705,-0.4616,0.0516,-0.0400,0.0179,0.0244,0.0107,0.0437,9.7652,-1.0857,0.7819,0.0006,-0.0005,0.0002,1.0000,0.2441,-0.0271,0.0197
7127,Right,2,0.1796,-0.0993,-0.9781,-0.0357,-0.0018,0.0057,0.0047,-0.0009,0.0353,-0.0393,-3.5020,1.7395,8.9572,-0.0000,0.0001,0.0001,1.0000,-0.0875,0.0435,0.2239
7127,Left,2,0.1078,0.1397,-0.7802,0.6002,0.0100,-0.0032,0.0008,-0.0124,0.0021,-0.0650,-3.2737,-0.8744,9.1398,0.0001,-0.0000,0.0000,1.0000,-0.0819,-0.0219,0.2285
7127,Pelvis,2,0.5729,0.3655,0.5700,-0.4619,0.0438,-0.0262,0.0154,0.1071,-0.0110,0.0842,9.8147,-1.0084,0.7834,0.0005,-0.0003,0.0002,1.0000,0.2454,-0.0252,0.0197
7128,Right,2,0.1797,-0.0992,-0.9781,-0.0354,-0.0021,0.0032,0.0066,-0.0160,0.0298,-0.0218,-3.4945,1.7487,8.9773,-0.0000,0.0000,0.0001,1.0000,-0.0874,0.0437,0.2244
7128,Left,2,0.1077,0.1396,-0.7802,0.6001,0.0112,-0.0017,0.0019,-0.0130,0.0051,-0.0736,-3.2715,-0.8754,9.1313,0.0001,-0.0000,0.0000,1.0000,-0.0818,-0.0219,0.2283
7128,Pelvis,2,0.5730,0.3657,0.5696,-0.4620,0.0370,-0.0280,0.0154,0.1081,-0.0142,0.0152,9.7470,-1.0021,0.7690,0.0005,-0.0004,0.0002,1.0000,0.2437,-0.0250,0.0193
7129,Right,2,0.1796,-0.0992,-0.9781,-0.0353,-0.0010,-0.0005,0.0061,-0.0137,0.0496,-0.0150,-3.4979,1.7298,8.9872,-0.0000,-0.0000,0.0001,1.0000,-0.0875,0.0432,0.2247
7129,Left,2,0.1076,0.1396,-0.7802,0.6002,0.0110,0.0015,0.0025,0.0042,0.0123,-0.0671,-3.2833,-0.8612,9.1354,0.0001,0.0000,0.0000,1.0000,-0.0821,-0.0216,0.2284
7129,Pelvis,2,0.5732,0.3660,0.5692,-0.4621,0.0310,-0.0338,0.0110,0.0997,-0.0129,-0.0845,9.6477,-1.0018,0.7528,0.0004,-0.0004,0.0001,1.0000,0.2412,-0.0250,0.0189
7130,Right,2,0.1796,-0.0991,-0.9781,-0.0352,-0.0003,0.0007,0.0061,-0.0306,0.0297,-0.0362,-3.4738,1.7469,8.9701,-0.0000,0.0000,0.0001,1.0000,-0.0868,0.0437,0.2243
7130,Left,2,0.1076,0.1396,-0.7802,0.6002,0.0110,0.0032,0.0015,0.0097,0.0011,-0.0604,-3.2760,-0.8539,9.1458,0.0001,0.0000,0.0000,1.0000,-0.0819,-0.0214,0.2286
7130,Pelvis,2,0.5734,0.3663,0.5688,-0.4620,0.0265,-0.0419,0.0046,0.0761,-0.0214,-0.0385,9.6927,-1.0281,0.7318,0.0003,-0.0005,0.0001,1.0000,0.2423,-0.0257,0.0184
7131,Right,2,0.1795,-0.0992,-0.9781,-0.0356,-0.0002,0.0025,0.0055,-0.0372,0.0515,-0.0319,-3.4676,1.7272,8.9811,-0.0000,0.0000,0.0001,1.0000,-0.0867,0.0432,0.2245
7131,Left,2,0.1076,0.1396,-0.7802,0.6002,0.0110,0.0014,0.0019,0.0064,0.0162,-0.0757,-3.2828,-0.8594,9.1266,0.0001,0.0000,0.0000,1.0000,-0.0821,-0.0215,0.2282
7131,Pelvis,2,0.5736,0.3667,0.5683,-0.4621,0.0279,-0.0386,0.0051,0.0458,-0.0303,0.0560,9.7853,-1.0653,0.7113,0.0003,-0.0005,0.0001,1.0000,0.2446,-0.0266,0.0179
7132,Right,2,0.1795,-0.0991,-0.9781,-0.0354,-0.0001,0.0037,0.0055,-0.0223,0.0282,-0.0243,-3.4852,1.7491,8.9781,-0.0000,0.0000,0.0001,1.0000,-0.0871,0.0437,0.2245
7132,Left,2,0.1075,0.1395,-0.7802,0.6002,0.0086,-0.0000,0.0013,0.0083,0.0125,-0.0543,-3.2859,-0.8590,9.1483,0.0001,-0.0000,0.0000,1.0000,-0.0821,-0.0215,0.2287
7132,Pelvis,2,0.5736,0.3670,0.5680,-0.4622,0.0337,-0.0182,0.0044,0.0269,-0.0077,0.0339,9.7599,-1.0881,0.7185,0.0004,-0.0002,0.0001,1.0000,0.2440,-0.0272,0.0180
7133,Right,2,0.1795,-0.0992,-0.9781,-0.0357,-0.0020,0.0026,0.0047,-0.0285,0.0275,-0.0362,-3.4749,1.7480,8.9695,-0.0000,0.0000,0.0001,1.0000,-0.0869,0.0437,0.2242
7133,Left,2,0.1074,0.1395,-0.7802,0.6002,0.0076,-0.0017,-0.0009,0.0012,0.0042,-0.0523,-3.2756,-0.8651,9.1536,0.0001,-0.0000,-0.0000,1.0000,-0.0819,-0.0216,0.2288
7133,Pelvis,2,0.5734,0.3675,0.5676,-0.4625,0.0389,-0.0173,0.0034,0.0288,-0.0072,0.0145,9.7411,-1.0838,0.7147,0.0005,-0.0002,0.0000,1.0000,0.2435,-0.0271,0.0179
7134,Right,2,0.1794,-0.0992,-0.9781,-0.0357,0.0005,0.0043,0.0049,-0.0200,0.0270,-0.0243,-3.4863,1.7496,8.9777,0.0000,0.0001,0.0001,1.0000,-0.0871,0.0437,0.2244
7134,Left,2,0.1073,0.1395,-0.7802,0.6002,0.0085,-0.0004,0.0026,0.0038,-0.0002,-0.0756,-3.2629,-0.8602,9.1337,0.0001,-0.0000,0.0000,1.0000,-0.0816,-0.0215,0.2283
7134,Pelvis,2,0.5733,0.3677,0.5675,-0.4627,0.0375,-0.0052,0.0012,0.0768,-0.0154,0.0208,9.7525,-1.0366,0.7198,0.0005,-0.0001,0.0000,1.0000,0.2438,-0.0259,0.0180
7135,Right,2,0.1794,-0.0992,-0.9781,-0.0358,-0.0019,0.0044,0.0047,-0.0036,0.0420,-0.0337,-3.4976,1.7312,8.9666,-0.0000,0.0001,0.0001,1.0000,-0.0874,0.0433,0.2242
7135,Left,2,0.1072,0.1395,-0.7802,0.6002,0.0080,0.0001,0.0019,0.0082,0.0100,-0.0736,-3.2725,-0.8592,9.1325,0.0001,0.0000,0.0000,1.0000,-0.0818,-0.0215,0.2283
7135,Pelvis,2,0.5731,0.3679,0.5674,-0.4629,0.0301,0.0034,0.0007,0.0780,0.0288,0.0115,9.7388,-1.0471,0.7617,0.0004,0.0000,0.0000,1.0000,0.2435,-0.0262,0.0190
7136,Right,2,0.1794,-0.0992,-0.9781,-0.0360,-0.0006,0.0056,0.0042,-0.0203,0.0275,-0.0150,-3.4892,1.7502,8.9866,-0.0000,0.0001,0.0001,1.0000,-0.0872,0.0438,0.2247
7136,Left,2,0.1072,0.1395,-0.7803,0.6002,0.0091,0.0042,0.0006,-0.0043,-0.0053,-0.0822,-3.2517,-0.8676,9.1300,0.0001,0.0001,0.0000,1.0000,-0.0813,-0.0217,0.2283
7136,Pelvis,2,0.5730,0.3681,0.5671,-0.4631,0.0325,-0.0045,0.0035,0.0214,0.0556,0.0041,9.7239,-1.1073,0.7694,0.0004,-0.0001,0.0000,1.0000,0.2431,-0.0277,0.0192
7137,Right,2,0.1794,-0.0992,-0.9781,-0.0361,-0.0011,0.0062,0.0035,-0.0170,0.0364,-0.0162,-3.4914,1.7407,8.9862,-0.0000,0.0001,0.0000,1.0000,-0.0873,0.0435,0.2247
7137,Left,2,0.1071,0.1395,-0.7802,0.6002,0.0096,0.0041,0.0031,0.0001,0.0049,-0.0801,-3.2623,-0.8664,9.1285,0.0001,0.0001,0.0000,1.0000,-0.0815,-0.0217,0.2282
7137,Pelvis,2,0.5729,0.3685,0.5668,-0.4634,0.0388,-0.0111,0.0046,0.0050,0.0256,-0.0081,9.7136,-1.1123,0.7338,0.0005,-0.0001,0.0001,1.0000,0.2428,-0.0278,0.0184
7138,Right,2,0.1794,-0.0992,-0.9781,-0.0360,-0.0000,0.0043,0.0042,-0.0269,0.0280,-0.0175,-3.4817,1.7495,8.9869,-0.0000,0.0001,0.0001,1.0000,-0.0870,0.0437,0.2247
7138,Left,2,0.1071,0.1395,-0.7803,0.6002,0.0084,0.0056,0.0015,-0.0107,0.0041,-0.0633,-3.2642,-0.8786,9.1446,0.0001,0.0001,0.0000,1.0000,-0.0816,-0.0220,0.2286
7138,Pelvis,2,0.5726,0.3688,0.5666,-0.4637,0.0450,0.0001,0.0053,0.0467,0.0260,0.0074,9.7326,-1.0747,0.7475,0.0006,0.0000,0.0001,1.0000,0.2433,-0.0269,0.0187
7139,Right,2,0.1794,-0.0991,-0.9781,-0.0359,0.0002,0.0074,0.0030,-0.0169,0.0429,-0.0387,-3.4826,1.7299,8.9673,0.0000,0.0001,0.0000,1.0000,-0.0870,0.0432,0.2242
7139,Left,2,0.1071,0.1396,-0.7803,0.6001,0.0070,0.0082,0.0021,0.0155,0.0109,-0.0609,-3.2780,-0.8562,9.1444,0.0001,0.0001,0.0000,1.0000,-0.0819,-0.0214,0.2286
7139,Pelvis,2,0.5724,0.3691,0.5664,-0.4640,0.0417,-0.0037,0.0051,0.0667,0.0481,0.0201,9.7446,-1.0637,0.7760,0.0005,-0.0000,0.0001,1.0000,0.2436,-0.0266,0.0194
7140,Right,2,0.1794,-0.0991,-0.9781,-0.0357,-0.0005,0.0056,0.0036,-0.0202,0.0456,-0.0200,-3.4863,1.7307,8.9861,-0.0000,0.0001,0.0000,1.0000,-0.0871,0.0433,0.2247
7140,Left,2,0.1071,0.1396,-0.7803,0.6001,0.0071,0.0051,0.0021,0.0068,-0.0069,-0.0608,-3.2599,-0.8613,9.1504,0.0001,0.0001,0.0000,1.0000,-0.0815,-0.0216,0.2288
7140,Pelvis,2,0.5723,0.3695,0.5661,-0.4643,0.0406,-0.0083,0.0038,0.0202,0.0575,0.0041,9.7238,-1.1088,0.7688,0.0005,-0.0001,0.0000,1.0000,0.2431,-0.0277,0.0192
7141,Right,2,0.1793,-0.0991,-0.9781,-0.0357,0.0028,-0.0001,0.0039,-0.0206,0.0243,-0.0268,-3.4834,1.7504,8.9759,0.0000,-0.0000,0.0000,1.0000,-0.0871,0.0437,0.2244
7141,Left,2,0.1070,0.1397,-0.7803,0.6001,0.0059,0.0061,0.0012,0.0009,-0.0056,-0.0567,-3.2608,-0.8687,9.1538,0.0001,0.0001,0.0000,1.0000,-0.0815,-0.0217,0.2289
7141,Pelvis,2,0.5719,0.3699,0.5657,-0.4648,0.0552,-0.0007,0.0034,0.0182,-0.0077,0.0133,9.7396,-1.0917,0.7070,0.0007,-0.0000,0.0000,1.0000,0.2435,-0.0273,0.0177
7142,Right,2,0.1793,-0.0991,-0.9781,-0.0356,0.0020,-0.0000,0.0069,-0.0177,0.0443,-0.0199,-3.4865,1.7323,8.9857,0.0000,-0.0000,0.0001,1.0000,-0.0872,0.0433,0.2246
7142,Left,2,0.1070,0.1397,-0.7803,0.6001,0.0047,0.0054,0.0012,0.0129,-0.0054,-0.0608,-3.2626,-0.8584,9.1498,0.0001,0.0001,0.0000,1.0000,-0.0815,-0.0215,0.2287
7142,Pelvis,2,0.5716,0.3703,0.5655,-0.4652,0.0518,0.0027,0.0012,0.0472,-0.0030,0.0271,9.7552,-1.0666,0.7225,0.0006,0.0000,0.0000,1.0000,0.2439,-0.0267,0.0180
7143,Right,2,0.1792,-0.0992,-0.9781,-0.0360,0.0028,0.0005,0.0051,-0.0160,0.0265,0.0038,-3.4962,1.7543,9.0035,0.0000,0.0000,0.0001,1.0000,-0.0874,0.0438,0.2251
7143,Left,2,0.1069,0.1397,-0.7803,0.6002,0.0078,0.0027,0.0026,-0.0074,-0.0107,-0.0632,-3.2513,-0.8774,9.1494,0.0001,0.0000,0.0000,1.0000,-0.0813,-0.0220,0.2287
7143,Pelvis,2,0.5712,0.3707,0.5653,-0.4655,0.0502,0.0057,-0.0010,0.0721,-0.0024,0.0010,9.7314,-1.0385,0.7308,0.0006,0.0001,-0.0000,1.0000,0.2433,-0.0260,0.0182
7144,Right,2,0.1791,-0.0993,-0.9781,-0.0365,0.0014,-0.0000,0.0074,-0.0140,0.0302,-0.0374,-3.4826,1.7435,8.9660,0.0000,-0.0000,0.0001,1.0000,-0.0871,0.0436,0.2242
7144,Left,2,0.1069,0.1398,-0.7802,0.6002,0.0060,0.0054,0.0007,-0.0030,-0.0005,-0.0612,-3.2619,-0.8767,9.1479,0.0001,0.0001,0.0000,1.0000,-0.0815,-0.0219,0.2287
7144,Pelvis,2,0.5710,0.3710,0.5652,-0.4658,0.0363,0.0052,-0.0064,0.0819,0.0025,-0.0075,9.7234,-1.0277,0.7399,0.0005,0.0001,-0.0001,1.0000,0.2431,-0.0257,0.0185
7145,Right,2,0.1790,-0.0994,-0.9781,-0.0367,0.0019,-0.0006,0.0075,-0.0288,0.0252,-0.0199,-3.4739,1.7537,8.9864,0.0000,-0.0000,0.0001,1.0000,-0.0869,0.0438,0.2247
7145,Left,2,0.1068,0.1398,-0.7802,0.6002,0.0073,0.0041,0.0004,-0.0166,0.0055,-0.0743,-3.2592,-0.8913,9.1335,0.0001,0.0001,0.0000,1.0000,-0.0815,-0.0223,0.2283
7145,Pelvis,2,0.5708,0.3711,0.5652,-0.4658,0.0194,0.0077,-0.0115,0.0281,-0.0361,-0.0347,9.6960,-1.0616,0.6869,0.0002,0.0001,-0.0001,1.0000,0.2424,-0.0266,0.0171
7146,Right,2,0.1789,-0.0994,-0.9781,-0.0366,0.0033,-0.0001,0.0063,-0.0070,0.0307,-0.0162,-3.4939,1.7473,8.9840,0.0000,-0.0000,0.0001,1.0000,-0.0874,0.0437,0.2246
7146,Left,2,0.1068,0.1398,-0.7803,0.6002,0.0097,0.0044,0.0012,-0.0070,-0.0082,-0.0590,-3.2539,-0.8811,9.1526,0.0001,0.0001,0.0000,1.0000,-0.0813,-0.0221,0.2288
7146,Pelvis,2,0.5706,0.3712,0.5654,-0.4658,0.0054,0.0130,-0.0128,0.0572,-0.0185,0.0088,9.7400,-1.0404,0.7180,0.0001,0.0002,-0.0002,1.0000,0.2435,-0.0260,0.0179
7147,Right,2,0.1789,-0.0994,-0.9782,-0.0365,0.0034,0.0017,0.0051,-0.0111,0.0393,-0.0293,-3.4841,1.7376,8.9755,0.0000,0.0000,0.0001,1.0000,-0.0871,0.0434,0.2244
7147,Left,2,0.1068,0.1398,-0.7803,0.6002,0.0115,0.0064,0.0016,-0.0152,0.0049,-0.0615,-3.2627,-0.8922,9.1458,0.0001,0.0001,0.0000,1.0000,-0.0815,-0.0223,0.2286
7147,Pelvis,2,0.5705,0.3711,0.5657,-0.4656,-0.0142,0.0150,-0.0138,0.0518,-0.0183,0.0475,9.7780,-1.0464,0.7224,-0.0002,0.0002,-0.0002,1.0000,0.2444,-0.0262,0.0180
7148,Right,2,0.1789,-0.0994,-0.9782,-0.0361,0.0060,0.0046,0.0065,-0.0193,0.0288,-0.0399,-3.4726,1.7475,8.9664,0.0001,0.0001,0.0001,1.0000,-0.0868,0.0437,0.2242
7148,Left,2,0.1068,0.1398,-0.7803,0.6001,0.0151,0.0074,0.0029,-0.0061,-0.0138,-0.0696,-3.2455,-0.8779,9.1446,0.0002,0.0001,0.0000,1.0000,-0.0811,-0.0220,0.2286
7148,Pelvis,2,0.5706,0.3708,0.5660,-0.4653,-0.0340,0.0145,-0.0110,0.0110,0.0043,0.0225,9.7476,-1.0861,0.7322,-0.0004,0.0002,-0.0001,1.0000,0.2437,-0.0272,0.0183
7149,Right,2,0.1789,-0.0995,-0.9782,-0.0362,0.0054,0.0047,0.0052,-0.0188,0.0392,-0.0318,-3.4757,1.7398,8.9756,0.0001,0.0001,0.0001,1.0000,-0.0869,0.0435,0.2244
7149,Left,2,0.1069,0.1398,-0.7803,0.6001,0.0151,0.0097,0.0018,-0.0076,0.0157,-0.0595,-3.2759,-0.8864,9.1437,0.0002,0.0001,0.0000,1.0000,-0.0819,-0.0222,0.2286
7149,Pelvis,2,0.5708,0.3704,0.5664,-0.4649,-0.0501,0.0129,-0.0069,0.0634,-0.0385,-0.0397,9.6948,-1.0153,0.7045,-0.0006,0.0002,-0.0001,1.0000,0.2424,-0.0254,0.0176
7150,Right,2,0.1789,-0.0995,-0.9782,-0.0359,0.0058,0.0022,0.0071,-0.0205,0.0510,-0.0143,-3.4797,1.7325,8.9945,0.0001,0.0000,0.0001,1.0000,-0.0870,0.0433,0.2249
7150,Left,2,0.1069,0.1398,-0.7803,0.6001,0.0155,0.0079,0.0053,0.0063,-0.0011,-0.0804,-3.2580,-0.8661,9.1298,0.0002,0.0001,0.0001,1.0000,-0.0814,-0.0217,0.2282
7150,Pelvis,2,0.5712,0.3699,0.5669,-0.4643,-0.0669,0.0079,-0.0127,0.0357,-0.0640,-0.0633,9.6718,-1.0300,0.6706,-0.0008,0.0001,-0.0002,1.0000,0.2418,-0.0258,0.0168
7151,Right,2,0.1788,-0.0996,-0.9782,-0.0359,0.0075,-0.0010,0.0066,-0.0192,0.0392,-0.0224,-3.4772,1.7440,8.9844,0.0001,-0.0000,0.0001,1.0000,-0.0869,0.0436,0.2246
7151,Left,2,0.1070,0.1397,-0.7803,0.6001,0.0162,0.0082,0.0035,-0.0053,0.0195,-0.0681,-3.2783,-0.8823,9.1341,0.0002,0.0001,0.0000,1.0000,-0.0819,-0.0221,0.2284
7151,Pelvis,2,0.5714,0.3694,0.5674,-0.4637,-0.0757,0.0128,-0.0125,0.0261,-0.0858,0.0043,9.7405,-1.0378,0.6524,-0.0009,0.0002,-0.0002,1.0000,0.2435,-0.0260,0.0163
7152,Right,2,0.1788,-0.0997,-0.9782,-0.0361,0.0072,0.0033,0.0059,-0.0178,0.0275,-0.0305,-3.4749,1.7556,8.9741,0.0001,0.0000,0.0001,1.0000,-0.0869,0.0439,0.2244
7152,Left,2,0.1071,0.1397,-0.7803,0.6001,0.0158,0.0067,0.0025,-0.0180,0.0042,-0.0765,-3.2587,-0.8889,9.1315,0.0002,0.0001,0.0000,1.0000,-0.0814,-0.0223,0.2283
7152,Pelvis,2,0.5718,0.3688,0.5680,-0.4631,-0.0803,0.0170,-0.0108,0.0215,-0.0944,0.0726,9.8088,-1.0455,0.6489,-0.0010,0.0002,-0.0001,1.0000,0.2452,-0.0262,0.0162
7153,Right,2,0.1788,-0.0998,-0.9781,-0.0363,0.0073,0.0052,0.0047,-0.0264,0.0284,-0.0330,-3.4660,1.7566,8.9747,0.0001,0.0001,0.0001,1.0000,-0.0866,0.0439,0.2244
7153,Left,2,0.1071,0.1396,-0.7803,0.6001,0.0163,0.0069,0.0031,0.0052,-0.0079,-0.0782,-3.2533,-0.8623,9.1341,0.0002,0.0001,0.0000,1.0000,-0.0813,-0.0216,0.2284
7153,Pelvis,2,0.5721,0.3681,0.5686,-0.4625,-0.0873,0.0237,-0.0082,0.0711,-0.0718,0.0301,9.7685,-0.9993,0.6848,-0.0011,0.0003,-0.0001,1.0000,0.2442,-0.0250,0.0171
7154,Right,2,0.1788,-0.0999,-0.9781,-0.0364,0.0068,0.0058,0.0047,-0.0141,0.0355,-0.0317,-3.4777,1.7500,8.9728,0.0001,0.0001,0.0001,1.0000,-0.0869,0.0437,0.2243
7154,Left,2,0.1072,0.1396,-0.7803,0.6002,0.0182,0.0065,0.0040,0.0102,0.0073,-0.0529,-3.2770,-0.8620,9.1527,0.0002,0.0001,0.0000,1.0000,-0.0819,-0.0216,0.2288
7154,Pelvis,2,0.5726,0.3673,0.5693,-0.4617,-0.0910,0.0158,-0.0076,0.0415,-0.0576,-0.0428,9.6922,-1.0232,0.6856,-0.0011,0.0002,-0.0001,1.0000,0.2423,-0.0256,0.0171
7155,Right,2,0.1788,-0.1000,-0.9781,-0.0365,0.0055,0.0059,0.0052,-0.0289,0.0417,-0.0061,-3.4729,1.7516,9.0023,0.0001,0.0001,0.0001,1.0000,-0.0868,0.0438,0.2251
7155,Left,2,0.1072,0.1395,-0.7803,0.6002,0.0176,0.0070,0.0032,-0.0015,-0.0037,-0.0827,-3.2544,-0.8663,9.1286,0.0002,0.0001,0.0000,1.0000,-0.0813,-0.0217,0.2282
7155,Pelvis,2,0.5730,0.3666,0.5698,-0.4610,-0.0848,0.0113,-0.0040,-0.0104,-0.0176,-0.0495,9.6771,-1.0837,0.7072,-0.0011,0.0001,-0.0001,1.0000,0.2419,-0.0271,0.0177
7156,Right,2,0.1788,-0.1000,-0.9781,-0.0365,0.0038,0.0072,0.0051,-0.0217,0.0357,-0.0342,-3.4705,1.7522,8.9725,0.0000,0.0001,0.0001,1.0000,-0.0867,0.0438,0.2243
7156,Left,2,0.1073,0.1395,-0.7803,0.6002,0.0170,0.0063,0.0033,0.0124,0.0111,-0.0615,-3.2785,-0.8570,9.1435,0.0002,0.0001,0.0000,1.0000,-0.0819,-0.0215,0.2286
7156,Pelvis,2,0.5734,0.3661,0.5702,-0.4605,-0.0710,0.0048,-0.0032,-0.0458,-0.0215,-0.0149,9.7089,-1.1202,0.6941,-0.0009,0.0001,-0.0000,1.0000,0.2427,-0.0280,0.0174
7157,Right,2,0.1788,-0.1000,-0.9781,-0.0364,0.0018,0.0049,0.0050,-0.0204,0.0351,-0.0342,-3.4716,1.7533,8.9719,0.0000,0.0001,0.0001,1.0000,-0.0868,0.0438,0.2243
7157,Left,2,0.1073,0.1394,-0.7803,0.6002,0.0156,0.0059,0.0045,0.0012,0.0052,-0.0679,-3.2683,-0.8645,9.1396,0.0002,0.0001,0.0001,1.0000,-0.0817,-0.0217,0.2285
7157,Pelvis,2,0.5738,0.3657,0.5705,-0.4600,-0.0573,-0.0029,-0.0010,-0.0316,-0.0254,-0.0228,9.7027,-1.1051,0.6924,-0.0007,-0.0000,-0.0000,1.0000,0.2426,-0.0276,0.0173
7158,Right,2,0.1788,-0.1000,-0.9781,-0.0364,-0.0001,0.0037,0.0055,-0.0246,0.0375,-0.0155,-3.4748,1.7545,8.9908,-0.0000,0.0000,0.0001,1.0000,-0.0869,0.0439,0.2248
7158,Left,2,0.1073,0.1394,-0.7803,0.6002,0.0139,0.0054,0.0026,0.0062,0.0205,-0.0426,-3.2918,-0.8647,9.1582,0.0002,0.0001,0.0000,1.0000,-0.0823,-0.0217,0.2290
7158,Pelvis,2,0.5742,0.3654,0.5707,-0.4596,-0.0456,-0.0068,-0.0026,-0.0330,-0.0378,-0.0429,9.6842,-1.1009,0.6755,-0.0006,-0.0001,-0.0000,1.0000,0.2421,-0.0275,0.0169
7159,Right,2,0.1788,-0.0999,-0.9781,-0.0362,-0.0013,0.0038,0.0042,-0.0188,0.0446,-0.0261,-3.4753,1.7447,8.9810,-0.0000,0.0000,0.0001,1.0000,-0.0869,0.0436,0.2245
7159,Left,2,0.1073,0.1393,-0.7803,0.6002,0.0154,0.0005,0.0024,0.0088,0.0161,-0.0659,-3.2800,-0.8583,9.1381,0.0002,0.0000,0.0000,1.0000,-0.0820,-0.0215,0.2284
7159,Pelvis,2,0.5745,0.3652,0.5708,-0.4591,-0.0352,-0.0136,-0.0039,-0.0038,0.0107,-0.0288,9.6957,-1.0898,0.7275,-0.0004,-0.0002,-0.0000,1.0000,0.2424,-0.0272,0.0182
7160,Right,2,0.1787,-0.0999,-0.9781,-0.0362,-0.0009,0.0001,0.0048,-0.0106,0.0440,-0.0142,-3.4864,1.7462,8.9893,-0.0000,0.0000,0.0001,1.0000,-0.0872,0.0437,0.2247
7160,Left,2,0.1073,0.1392,-0.7803,0.6001,0.0155,-0.0002,0.0020,-0.0032,0.0058,-0.0510,-3.2713,-0.8680,9.1562,0.0002,-0.0000,0.0000,1.0000,-0.0818,-0.0217,0.2289
7160,Pelvis,2,0.5748,0.3651,0.5708,-0.4588,-0.0304,-0.0212,-0.0019,-0.0343,0.0288,-0.0328,9.6879,-1.1233,0.7290,-0.0004,-0.0003,-0.0000,1.0000,0.2422,-0.0281,0.0183
7161,Right,2,0.1786,-0.0999,-0.9782,-0.0362,-0.0009,0.0007,0.0054,-0.0179,0.0341,-0.0248,-3.4743,1.7548,8.9807,-0.0000,0.0000,0.0001,1.0000,-0.0869,0.0439,0.2245
7161,Left,2,0.1072,0.1391,-0.7804,0.6001,0.0156,-0.0022,0.0017,0.0046,0.0085,-0.0638,-3.2698,-0.8589,9.1440,0.0002,-0.0000,0.0000,1.0000,-0.0818,-0.0215,0.2286
7161,Pelvis,2,0.5752,0.3651,0.5707,-0.4584,-0.0170,-0.0309,0.0002,0.0167,0.0772,-0.0158,9.7044,-1.0924,0.7847,-0.0002,-0.0004,0.0000,1.0000,0.2426,-0.0273,0.0197
7162,Right,2,0.1785,-0.0999,-0.9782,-0.0365,-0.0015,0.0014,0.0054,-0.0098,0.0448,-0.0049,-3.4875,1.7470,8.9989,-0.0000,0.0000,0.0001,1.0000,-0.0872,0.0437,0.2250
7162,Left,2,0.1071,0.1390,-0.7804,0.6002,0.0164,-0.0043,0.0003,0.0100,-0.0026,-0.0571,-3.2612,-0.8505,9.1549,0.0002,-0.0001,0.0000,1.0000,-0.0815,-0.0213,0.2289
7162,Pelvis,2,0.5757,0.3652,0.5705,-0.4581,-0.0041,-0.0417,0.0022,0.0109,0.0518,-0.0365,9.6868,-1.0882,0.7475,-0.0001,-0.0005,0.0000,1.0000,0.2422,-0.0272,0.0188
7163,Right,2,0.1785,-0.0999,-0.9782,-0.0367,-0.0016,-0.0005,0.0060,-0.0162,0.0441,-0.0167,-3.4765,1.7457,8.9905,-0.0000,-0.0000,0.0001,1.0000,-0.0869,0.0436,0.2248
7163,Left,2,0.1071,0.1388,-0.7804,0.6002,0.0181,-0.0056,0.0026,0.0033,0.0198,-0.0576,-3.2772,-0.8611,9.1477,0.0002,-0.0001,0.0000,1.0000,-0.0819,-0.0216,0.2287
7163,Pelvis,2,0.5761,0.3653,0.5702,-0.4578,0.0082,-0.0456,0.0038,0.0275,0.0611,-0.0245,9.6999,-1.0778,0.7512,0.0001,-0.0006,0.0000,1.0000,0.2425,-0.0269,0.0189
7164,Right,2,0.1784,-0.0999,-0.9782,-0.0369,-0.0042,-0.0028,0.0053,-0.0130,0.0305,-0.0342,-3.4723,1.7547,8.9713,-0.0001,-0.0000,0.0001,1.0000,-0.0868,0.0439,0.2243
7164,Left,2,0.1070,0.1388,-0.7804,0.6002,0.0145,-0.0038,0.0001,0.0094,-0.0178,-0.0697,-3.2381,-0.8441,9.1503,0.0002,-0.0000,0.0000,1.0000,-0.0810,-0.0211,0.2287
7164,Pelvis,2,0.5763,0.3657,0.5699,-0.4577,0.0098,-0.0382,-0.0021,0.0142,0.0918,0.0429,9.7633,-1.1073,0.7702,0.0001,-0.0005,-0.0000,1.0000,0.2441,-0.0277,0.0194
7165,Right,2,0.1783,-0.0999,-0.9782,-0.0372,-0.0068,0.0041,0.0044,-0.0374,0.0222,-0.0591,-3.4398,1.7598,8.9558,-0.0001,0.0001,0.0001,1.0000,-0.0860,0.0440,0.2239
7165,Left,2,0.1069,0.1386,-0.7804,0.6002,0.0157,-0.0042,0.0009,-0.0024,0.0028,-0.0574,-3.2556,-0.8607,9.1557,0.0002,-0.0001,0.0000,1.0000,-0.0814,-0.0216,0.2289
7165,Pelvis,2,0.5765,0.3660,0.5696,-0.4576,0.0205,-0.0347,-0.0030,0.0113,0.0268,0.0618,9.7892,-1.0907,0.7001,0.0003,-0.0004,-0.0000,1.0000,0.2447,-0.0273,0.0176
7166,Right,2,0.1783,-0.0998,-0.9782,-0.0371,-0.0023,0.0051,0.0029,-0.0043,0.0403,-0.0142,-3.4863,1.7452,8.9895,-0.0000,0.0001,0.0000,1.0000,-0.0871,0.0436,0.2247
7166,Left,2,0.1069,0.1385,-0.7805,0.6002,0.0144,-0.0046,0.0021,-0.0007,-0.0060,-0.0593,-3.2450,-0.8561,9.1578,0.0002,-0.0001,0.0000,1.0000,-0.0811,-0.0214,0.2289
7166,Pelvis,2,0.5765,0.3662,0.5693,-0.4576,0.0247,-0.0175,0.0001,0.0122,-0.0074,0.0224,9.7540,-1.0740,0.6591,0.0003,-0.0002,0.0000,1.0000,0.2438,-0.0269,0.0165
7167,Right,2,0.1783,-0.0998,-0.9782,-0.0371,-0.0008,0.0019,0.0048,-0.0064,0.0472,-0.0367,-3.4760,1.7338,8.9713,-0.0000,0.0000,0.0001,1.0000,-0.0869,0.0433,0.2243
7167,Left,2,0.1068,0.1385,-0.7805,0.6002,0.0125,-0.0030,0.0010,-0.0053,-0.0006,-0.0765,-3.2407,-0.8602,9.1406,0.0002,-0.0000,0.0000,1.0000,-0.0810,-0.0215,0.2285
7167,Pelvis,2,0.5764,0.3666,0.5690,-0.4578,0.0299,-0.0208,0.0013,0.0324,-0.0111,-0.0340,9.7005,-1.0466,0.6541,0.0004,-0.0003,0.0000,1.0000,0.2425,-0.0262,0.0164
7168,Right,2,0.1782,-0.0998,-0.9782,-0.0373,0.0007,-0.0006,0.0074,-0.0324,0.0457,-0.0123,-3.4592,1.7427,9.0027,0.0000,-0.0000,0.0001,1.0000,-0.0865,0.0436,0.2251
7168,Left,2,0.1066,0.1384,-0.7805,0.6002,0.0103,-0.0055,-0.0012,0.0056,-0.0047,-0.0593,-3.2432,-0.8503,9.1590,0.0001,-0.0001,-0.0000,1.0000,-0.0811,-0.0213,0.2290
7168,Pelvis,2,0.5764,0.3669,0.5688,-0.4579,0.0201,-0.0122,0.0005,0.0878,0.0105,0.0426,9.7793,-1.0087,0.6938,0.0003,-0.0002,0.0000,1.0000,0.2445,-0.0252,0.0174
7169,Right,2,0.1781,-0.0998,-0.9782,-0.0370,0.0026,-0.0007,0.0063,-0.0288,0.0433,-0.0216,-3.4575,1.7434,8.9930,0.0000,-0.0000,0.0001,1.0000,-0.0864,0.0436,0.2248
7169,Left,2,0.1066,0.1383,-0.7806,0.6001,0.0106,-0.0013,0.0005,-0.0255,0.0022,-0.0639,-3.2377,-0.8822,9.1530,0.0001,-0.0000,0.0000,1.0000,-0.0809,-0.0221,0.2288
7169,Pelvis,2,0.5763,0.3670,0.5687,-0.4580,0.0026,0.0022,-0.0006,0.0899,0.0805,0.0925,9.8223,-1.0334,0.7627,0.0000,0.0000,-0.0000,1.0000,0.2456,-0.0258,0.0191
7170,Right,2,0.1781,-0.0998,-0.9782,-0.0369,0.0027,0.0011,0.0063,-0.0432,0.0271,-0.0122,-3.4467,1.7631,9.0035,0.0000,0.0000,0.0001,1.0000,-0.0862,0.0441,0.2251
7170,Left,2,0.1065,0.1383,-0.7806,0.6001,0.0106,-0.0012,0.0011,-0.0102,-0.0051,-0.0829,-3.2270,-0.8644,9.1383,0.0001,-0.0000,0.0000,1.0000,-0.0807,-0.0216,0.2285
7170,Pelvis,2,0.5763,0.3671,0.5687,-0.4580,-0.0053,-0.0003,-0.0030,0.0341,0.0727,0.0456,9.7720,-1.0776,0.7343,-0.0001,-0.0000,-0.0000,1.0000,0.2443,-0.0269,0.0184
7171,Right,2,0.1780,-0.0998,-0.9783,-0.0368,0.0010,0.0025,0.0056,-0.0054,0.0369,-0.0260,-3.4754,1.7473,8.9804,0.0000,0.0000,0.0001,1.0000,-0.0869,0.0437,0.2245
7171,Left,2,0.1064,0.1382,-0.7807,0.6001,0.0118,0.0000,0.0010,0.0085,0.0116,-0.0746,-3.2482,-0.8511,9.1409,0.0001,0.0000,0.0000,1.0000,-0.0812,-0.0213,0.2285
7171,Pelvis,2,0.5764,0.3670,0.5688,-0.4578,-0.0019,-0.0023,-0.0051,-0.0094,0.0477,-0.0196,9.7063,-1.1032,0.6912,-0.0000,-0.0000,-0.0001,1.0000,0.2427,-0.0276,0.0173
7172,Right,2,0.1780,-0.0998,-0.9783,-0.0366,0.0009,0.0006,0.0062,-0.0107,0.0301,-0.0061,-3.4769,1.7583,8.9995,0.0000,0.0000,0.0001,1.0000,-0.0869,0.0439,0.2250
7172,Left,2,0.1064,0.1382,-0.7807,0.6001,0.0128,0.0029,0.0024,0.0067,0.0104,-0.0618,-3.2498,-0.8535,9.1537,0.0002,0.0000,0.0000,1.0000,-0.0812,-0.0214,0.2288
7172,Pelvis,2,0.5764,0.3671,0.5688,-0.4577,0.0077,-0.0063,-0.0005,-0.0095,0.0046,-0.0198,9.7105,-1.0890,0.6489,0.0001,-0.0001,-0.0000,1.0000,0.2428,-0.0272,0.0162
7173,Right,2,0.1780,-0.0997,-0.9783,-0.0364,0.0010,0.0018,0.0056,-0.0238,0.0405,-0.0216,-3.4575,1.7469,8.9923,0.0000,0.0000,0.0001,1.0000,-0.0864,0.0437,0.2248
7173,Left,2,0.1064,0.1382,-0.7807,0.6000,0.0111,0.0001,0.0015,0.0117,-0.0059,-0.0785,-3.2297,-0.8432,9.1440,0.0001,0.0000,0.0000,1.0000,-0.0807,-0.0211,0.2286
7173,Pelvis,2,0.5764,0.3671,0.5687,-0.4577,0.0097,-0.0015,0.0007,-0.0088,-0.0345,0.0392,9.7730,-1.0824,0.6148,0.0001,-0.0000,0.0000,1.0000,0.2443,-0.0271,0.0154
7174,Right,2,0.1779,-0.0998,-0.9783,-0.0365,0.0029,0.0030,0.0051,-0.0319,0.0416,-0.0241,-3.4482,1.7467,8.9933,0.0000,0.0000,0.0001,1.0000,-0.0862,0.0437,0.2248
7174,Left,2,0.1063,0.1382,-0.7808,0.6000,0.0086,0.0018,0.0010,-0.0062,0.0033,-0.0553,-3.2400,-0.8652,9.1630,0.0001,0.0000,0.0000,1.0000,-0.0810,-0.0217,0.2291
7174,Pelvis,2,0.5762,0.3671,0.5688,-0.4579,0.0175,0.0161,0.0007,0.0157,-0.0429,0.0523,9.7888,-1.0578,0.6173,0.0002,0.0002,0.0000,1.0000,0.2447,-0.0264,0.0154
7175,Right,2,0.1779,-0.0997,-0.9783,-0.0361,0.0023,0.0036,0.0056,-0.0143,0.0279,-0.0179,-3.4669,1.7596,8.9902,0.0000,0.0000,0.0001,1.0000,-0.0867,0.0440,0.2248
7175,Left,2,0.1062,0.1382,-0.7808,0.5999,0.0081,0.0020,-0.0010,-0.0178,-0.0077,-0.0850,-3.2161,-0.8722,9.1391,0.0001,0.0000,-0.0000,1.0000,-0.0804,-0.0218,0.2285
7175,Pelvis,2,0.5760,0.3671,0.5689,-0.4581,0.0180,0.0203,-0.0002,0.0107,-0.0465,0.0221,9.7586,-1.0575,0.6147,0.0002,0.0003,-0.0000,1.0000,0.2440,-0.0264,0.0153
7176,Right,2,0.1779,-0.0998,-0.9783,-0.0366,0.0011,0.0037,0.0055,-0.0323,0.0419,-0.0147,-3.4506,1.7488,9.0022,0.0000,0.0000,0.0001,1.0000,-0.0863,0.0437,0.2251
7176,Left,2,0.1062,0.1381,-0.7808,0.6000,0.0087,0.0005,0.0006,-0.0119,-0.0137,-0.0550,-3.2211,-0.8682,9.1697,0.0001,0.0000,0.0000,1.0000,-0.0805,-0.0217,0.2292
7176,Pelvis,2,0.5757,0.3673,0.5688,-0.4583,0.0214,0.0134,0.0002,0.0068,-0.0285,-0.0177,9.7168,-1.0615,0.6323,0.0003,0.0002,0.0000,1.0000,0.2429,-0.0265,0.0158
7177,Right,2,0.1778,-0.0999,-0.9783,-0.0371,0.0016,0.0036,0.0062,-0.0064,0.0440,-0.0297,-3.4690,1.7416,8.9800,0.0000,0.0000,0.0001,1.0000,-0.0867,0.0435,0.2245
7177,Left,2,0.1061,0.1382,-0.7807,0.6001,0.0078,0.0027,0.0026,0.0021,0.0003,-0.0787,-3.2285,-0.8567,9.1430,0.0001,0.0000,0.0000,1.0000,-0.0807,-0.0214,0.2286
7177,Pelvis,2,0.5756,0.3674,0.5688,-0.4585,0.0245,0.0084,-0.0006,0.0215,-0.0104,-0.0255,9.7084,-1.0521,0.6561,0.0003,0.0001,-0.0000,1.0000,0.2427,-0.0263,0.0164
7178,Right,2,0.1778,-0.0999,-0.9783,-0.0370,-0.0001,0.0031,0.0049,-0.0257,0.0373,-0.0334,-3.4492,1.7497,8.9821,-0.0000,0.0000,0.0001,1.0000,-0.0862,0.0437,0.2246
7178,Left,2,0.1061,0.1382,-0.7808,0.6000,0.0091,0.0037,0.0013,-0.0076,0.0039,-0.0830,-3.2272,-0.8673,9.1378,0.0001,0.0000,0.0000,1.0000,-0.0807,-0.0217,0.2284
7178,Pelvis,2,0.5754,0.3675,0.5688,-0.4586,0.0272,0.0078,-0.0015,-0.0012,-0.0187,0.0108,9.7433,-1.0739,0.6457,0.0003,0.0001,-0.0000,1.0000,0.2436,-0.0269,0.0161
7179,Right,2,0.1778,-0.0999,-0.9783,-0.0369,-0.0007,0.0038,0.0054,-0.0220,0.0399,-0.0028,-3.4631,1.7520,9.0096,-0.0000,0.0000,0.0001,1.0000,-0.0866,0.0438,0.2252
7179,Left,2,0.1060,0.1382,-0.7808,0.6000,0.0097,0.0045,0.0018,0.0123,-0.0007,-0.0701,-3.2320,-0.8486,9.1516,0.0001,0.0001,0.0000,1.0000,-0.0808,-0.0212,0.2288
7179,Pelvis,2,0.5753,0.3677,0.5687,-0.4588,0.0262,0.0033,-0.0009,0.0348,-0.0226,0.0058,9.7417,-1.0373,0.6546,0.0003,0.0000,-0.0000,1.0000,0.2435,-0.0259,0.0163
7180,Right,2,0.1778,-0.0998,-0.9783,-0.0364,0.0000,0.0049,0.0042,-0.0125,0.0321,-0.0403,-3.4589,1.7512,8.9705,0.0000,0.0001,0.0001,1.0000,-0.0865,0.0438,0.2243
7180,Left,2,0.1060,0.1382,-0.7808,0.6000,0.0084,0.0051,0.0022,-0.0075,-0.0062,-0.0722,-3.2210,-0.8670,9.1516,0.0001,0.0001,0.0000,1.0000,-0.0805,-0.0217,0.2288
7180,Pelvis,2,0.5751,0.3678,0.5686,-0.4590,0.0250,0.0040,0.0011,0.0374,-0.0527,0.0159,9.7549,-1.0259,0.6287,0.0003,0.0001,0.0000,1.0000,0.2439,-0.0256,0.0157
7181,Right,2,0.1778,-0.0998,-0.9783,-0.0366,-0.0005,0.0062,0.0036,-0.0273,0.0158,-0.0309,-3.4493,1.7701,8.9807,-0.0000,0.0001,0.0000,1.0000,-0.0862,0.0442,0.2245
7181,Left,2,0.1060,0.1383,-0.7808,0.6000,0.0093,0.0116,0.0028,-0.0114,-0.0220,-0.0847,-3.2020,-0.8664,9.1450,0.0001,0.0001,0.0000,1.0000,-0.0800,-0.0217,0.2286
7181,Pelvis,2,0.5750,0.3680,0.5685,-0.4591,0.0249,0.0068,0.0014,0.0101,-0.0216,0.0223,9.7558,-1.0616,0.6516,0.0003,0.0001,0.0000,1.0000,0.2439,-0.0265,0.0163
7182,Right,2,0.1779,-0.0997,-0.9783,-0.0362,-0.0004,0.0068,0.0024,-0.0293,0.0450,-0.0371,-3.4444,1.7401,8.9819,-0.0000,0.0001,0.0000,1.0000,-0.0861,0.0435,0.2246
7182,Left,2,0.1061,0.1383,-0.7808,0.6000,0.0103,0.0151,0.0047,-0.0094,0.0000,-0.0893,-3.2227,-0.8696,9.1325,0.0001,0.0002,0.0001,1.0000,-0.0805,-0.0218,0.2283
7182,Pelvis,2,0.5749,0.3679,0.5686,-0.4592,0.0194,0.0079,0.0012,0.0151,-0.0078,0.0229,9.7553,-1.0615,0.6677,0.0002,0.0001,0.0000,1.0000,0.2439,-0.0265,0.0167
7183,Right,2,0.1780,-0.0997,-0.9783,-0.0360,0.0027,0.0097,0.0044,-0.0234,0.0347,-0.0240,-3.4558,1.7517,8.9894,0.0000,0.0001,0.0001,1.0000,-0.0864,0.0438,0.2247
7183,Left,2,0.1062,0.1384,-0.7808,0.6000,0.0090,0.0174,0.0041,0.0059,-0.0065,-0.0636,-3.2316,-0.8560,9.1580,0.0001,0.0002,0.0001,1.0000,-0.0807,-0.0214,0.2290
7183,Pelvis,2,0.5747,0.3680,0.5686,-0.4594,0.0193,0.0147,0.0021,0.0161,-0.0291,0.0131,9.7477,-1.0526,0.6501,0.0002,0.0002,0.0000,1.0000,0.2437,-0.0263,0.0162
7184,Right,2,0.1780,-0.0997,-0.9783,-0.0362,0.0017,0.0103,0.0024,-0.0161,0.0401,-0.0440,-3.4566,1.7422,8.9692,0.0000,0.0001,0.0000,1.0000,-0.0864,0.0435,0.2242
7184,Left,2,0.1063,0.1385,-0.7807,0.6000,0.0108,0.0154,0.0059,-0.0064,0.0089,-0.0745,-3.2412,-0.8707,9.1415,0.0001,0.0002,0.0001,1.0000,-0.0810,-0.0218,0.2286
7184,Pelvis,2,0.5745,0.3679,0.5687,-0.4596,0.0130,0.0243,0.0031,0.0312,-0.0071,0.0645,9.7974,-1.0508,0.6840,0.0002,0.0003,0.0000,1.0000,0.2449,-0.0263,0.0170
7185,Right,2,0.1781,-0.0998,-0.9783,-0.0366,0.0017,0.0103,0.0018,-0.0061,0.0378,-0.0415,-3.4684,1.7439,8.9669,0.0000,0.0001,0.0000,1.0000,-0.0867,0.0436,0.2242
7185,Left,2,0.1064,0.1386,-0.7807,0.6000,0.0114,0.0171,0.0050,-0.0083,0.0077,-0.0617,-3.2464,-0.8730,9.1532,0.0001,0.0002,0.0001,1.0000,-0.0811,-0.0219,0.2288
7185,Pelvis,2,0.5743,0.3678,0.5688,-0.4598,0.0094,0.0287,0.0047,0.0407,-0.0459,0.0558,9.7929,-1.0294,0.6560,0.0001,0.0004,0.0001,1.0000,0.2448,-0.0257,0.0163
7186,Right,2,0.1781,-0.0998,-0.9782,-0.0369,0.0017,0.0109,0.0018,-0.0090,0.0407,-0.0228,-3.4732,1.7450,8.9853,0.0000,0.0001,0.0000,1.0000,-0.0868,0.0436,0.2246
7186,Left,2,0.1065,0.1387,-0.7806,0.6000,0.0095,0.0159,0.0057,0.0009,0.0198,-0.0726,-3.2586,-0.8660,9.1379,0.0001,0.0002,0.0001,1.0000,-0.0814,-0.0217,0.2285
7186,Pelvis,2,0.5740,0.3677,0.5690,-0.4601,0.0063,0.0344,0.0034,0.0612,-0.0060,-0.0003,9.7344,-1.0163,0.7039,0.0001,0.0004,0.0000,1.0000,0.2434,-0.0254,0.0175
7187,Right,2,0.1781,-0.0999,-0.9782,-0.0370,0.0015,0.0104,0.0043,-0.0172,0.0418,-0.0252,-3.4659,1.7445,8.9856,0.0000,0.0001,0.0001,1.0000,-0.0866,0.0436,0.2247
7187,Left,2,0.1066,0.1387,-0.7806,0.6000,0.0116,0.0151,0.0042,0.0058,0.0044,-0.0446,-3.2573,-0.8600,9.1688,0.0001,0.0002,0.0001,1.0000,-0.0814,-0.0215,0.2292
7187,Pelvis,2,0.5738,0.3676,0.5691,-0.4602,-0.0023,0.0221,0.0036,0.0815,0.0428,-0.0860,9.6456,-1.0030,0.7570,-0.0000,0.0003,0.0000,1.0000,0.2411,-0.0251,0.0189
7188,Right,2,0.1782,-0.0999,-0.9782,-0.0370,0.0014,0.0086,0.0049,0.0019,0.0375,-0.0203,-3.4870,1.7475,8.9821,0.0000,0.0001,0.0001,1.0000,-0.0872,0.0437,0.2246
7188,Left,2,0.1067,0.1388,-0.7806,0.6000,0.0124,0.0113,0.0038,0.0057,0.0117,-0.0745,-3.2557,-0.8591,9.1375,0.0002,0.0001,0.0000,1.0000,-0.0814,-0.0215,0.2284
7188,Pelvis,2,0.5739,0.3675,0.5691,-0.4601,-0.0050,0.0003,0.0033,0.0223,0.0479,-0.0742,9.6517,-1.0623,0.7463,-0.0001,0.0000,0.0000,1.0000,0.2413,-0.0265,0.0187
7189,Right,2,0.1782,-0.0999,-0.9782,-0.0371,0.0005,0.0025,0.0037,-0.0128,0.0213,-0.0109,-3.4774,1.7666,8.9923,0.0000,0.0000,0.0000,1.0000,-0.0869,0.0442,0.2248
7189,Left,2,0.1067,0.1388,-0.7806,0.6001,0.0106,0.0080,0.0036,-0.0010,0.0086,-0.0489,-3.2606,-0.8667,9.1624,0.0001,0.0001,0.0000,1.0000,-0.0815,-0.0217,0.2291
7189,Pelvis,2,0.5740,0.3676,0.5690,-0.4600,0.0007,-0.0150,0.0057,0.0041,0.0527,-0.0372,9.6864,-1.0860,0.7454,0.0000,-0.0002,0.0001,1.0000,0.2422,-0.0271,0.0187
7190,Right,2,0.1782,-0.0999,-0.9782,-0.0370,0.0005,0.0043,0.0061,-0.0374,0.0240,-0.0276,-3.4479,1.7635,8.9862,0.0000,0.0001,0.0001,1.0000,-0.0862,0.0441,0.2247
7190,Left,2,0.1067,0.1388,-0.7805,0.6001,0.0099,0.0093,0.0040,-0.0074,0.0046,-0.0680,-3.2496,-0.8704,9.1456,0.0001,0.0001,0.0000,1.0000,-0.0812,-0.0218,0.2286
7190,Pelvis,2,0.5742,0.3677,0.5688,-0.4599,0.0025,-0.0226,0.0023,0.0250,0.0661,0.0050,9.7290,-1.0758,0.7626,0.0000,-0.0003,0.0000,1.0000,0.2432,-0.0269,0.0191
7191,Right,2,0.1782,-0.0998,-0.9782,-0.0369,-0.0001,0.0050,0.0055,-0.0117,0.0482,-0.0264,-3.4713,1.7372,8.9836,-0.0000,0.0001,0.0001,1.0000,-0.0868,0.0434,0.2246
7191,Left,2,0.1068,0.1389,-0.7805,0.6001,0.0123,0.0121,0.0048,-0.0002,0.0029,-0.0594,-3.2539,-0.8638,9.1538,0.0002,0.0002,0.0001,1.0000,-0.0813,-0.0216,0.2289
7191,Pelvis,2,0.5744,0.3679,0.5686,-0.4598,0.0057,-0.0272,0.0022,0.0594,0.0838,0.0097,9.7352,-1.0492,0.7842,0.0001,-0.0003,0.0000,1.0000,0.2434,-0.0262,0.0197
7192,Right,2,0.1781,-0.0998,-0.9782,-0.0368,0.0010,0.0037,0.0062,-0.0185,0.0433,0.0029,-3.4747,1.7484,9.0121,0.0000,0.0000,0.0001,1.0000,-0.0869,0.0437,0.2253
7192,Left,2,0.1069,0.1389,-0.7805,0.6000,0.0104,0.0131,0.0039,0.0014,-0.0058,-0.0614,-3.2472,-0.8598,9.1545,0.0001,0.0002,0.0000,1.0000,-0.0811,-0.0215,0.2289
7192,Pelvis,2,0.5745,0.3682,0.5683,-0.4598,0.0086,-0.0295,-0.0003,0.0445,0.1194,-0.0118,9.7097,-1.0714,0.8047,0.0001,-0.0004,-0.0000,1.0000,0.2427,-0.0268,0.0202
7193,Right,2,0.1781,-0.0998,-0.9783,-0.0367,0.0015,0.0006,0.0056,-0.0127,0.0281,-0.0240,-3.4700,1.7580,8.9827,0.0000,0.0000,0.0001,1.0000,-0.0868,0.0439,0.2246
7193,Left,2,0.1069,0.1389,-0.7806,0.6000,0.0124,0.0107,0.0039,-0.0116,0.0053,-0.0509,-3.2589,-0.8758,9.1600,0.0002,0.0001,0.0000,1.0000,-0.0814,-0.0219,0.2290
7193,Pelvis,2,0.5748,0.3683,0.5682,-0.4596,0.0131,-0.0261,-0.0033,0.0254,0.1332,0.0053,9.7243,-1.0954,0.8056,0.0002,-0.0003,-0.0000,1.0000,0.2431,-0.0274,0.0202
7194,Right,2,0.1780,-0.0998,-0.9783,-0.0367,0.0002,0.0007,0.0067,-0.0097,0.0368,-0.0252,-3.4710,1.7491,8.9827,0.0000,0.0000,0.0001,1.0000,-0.0868,0.0437,0.2246
7194,Left,2,0.1069,0.1389,-0.7806,0.6000,0.0095,0.0066,0.0032,0.0003,0.0055,-0.0551,-3.2613,-0.8641,9.1557,0.0001,0.0001,0.0000,1.0000,-0.0815,-0.0216,0.2289
7194,Pelvis,2,0.5749,0.3686,0.5679,-0.4595,0.0218,-0.0332,-0.0007,0.0207,0.1555,0.0441,9.7609,-1.1103,0.8205,0.0003,-0.0004,-0.0000,1.0000,0.2440,-0.0278,0.0206
7195,Right,2,0.1779,-0.0998,-0.9783,-0.0365,0.0018,-0.0019,0.0081,-0.0059,0.0394,0.0054,-3.4840,1.7519,9.0105,0.0000,-0.0000,0.0001,1.0000,-0.0871,0.0438,0.2253
7195,Left,2,0.1069,0.1390,-0.7806,0.6000,0.0078,0.0045,0.0022,0.0162,0.0033,-0.0509,-3.2648,-0.8492,9.1604,0.0001,0.0001,0.0000,1.0000,-0.0816,-0.0213,0.2290
7195,Pelvis,2,0.5749,0.3690,0.5675,-0.4596,0.0305,-0.0237,-0.0012,0.0416,0.1339,0.0469,9.7682,-1.0828,0.8004,0.0004,-0.0003,-0.0000,1.0000,0.2442,-0.0271,0.0201
7196,Right,2,0.1778,-0.0999,-0.9783,-0.0367,0.0018,-0.0025,0.0075,-0.0080,0.0354,-0.0252,-3.4697,1.7510,8.9828,0.0000,-0.0000,0.0001,1.0000,-0.0868,0.0438,0.2246
7196,Left,2,0.1068,0.1390,-0.7806,0.6000,0.0067,0.0001,0.0024,-0.0008,0.0168,-0.0489,-3.2724,-0.8700,9.1578,0.0001,0.0000,0.0000,1.0000,-0.0818,-0.0218,0.2289
7196,Pelvis,2,0.5746,0.3692,0.5675,-0.4599,0.0368,0.0163,-0.0026,0.0305,0.0250,0.1239,9.8544,-1.0672,0.6984,0.0005,0.0002,-0.0000,1.0000,0.2464,-0.0267,0.0174
7197,Right,2,0.1777,-0.0999,-0.9783,-0.0365,0.0030,-0.0044,0.0070,-0.0297,0.0302,-0.0195,-3.4495,1.7599,8.9952,0.0000,-0.0001,0.0001,1.0000,-0.0863,0.0440,0.2249
7197,Left,2,0.1067,0.1390,-0.7806,0.6000,0.0039,-0.0008,-0.0014,0.0216,0.0004,-0.0295,-3.2684,-0.8476,9.1821,0.0000,-0.0000,-0.0000,1.0000,-0.0817,-0.0212,0.2296
7197,Pelvis,2,0.5740,0.3694,0.5676,-0.4604,0.0478,0.0409,-0.0034,0.0404,0.1696,0.0863,9.8035,-1.0956,0.8439,0.0006,0.0005,-0.0000,1.0000,0.2451,-0.0274,0.0210
7198,Right,2,0.1775,-0.0998,-0.9784,-0.0365,-0.0028,-0.0077,0.0085,-0.0189,0.0281,-0.0170,-3.4574,1.7617,8.9944,-0.0000,-0.0001,0.0001,1.0000,-0.0865,0.0440,0.2248
7198,Left,2,0.1065,0.1390,-0.7806,0.5999,0.0019,-0.0029,0.0008,-0.0003,0.0112,-0.0594,-3.2606,-0.8708,9.1507,0.0000,-0.0000,0.0000,1.0000,-0.0815,-0.0218,0.2288
7198,Pelvis,2,0.5733,0.3698,0.5675,-0.4611,0.0553,0.0321,0.0000,0.0165,0.1747,-0.0054,9.7094,-1.1072,0.8455,0.0007,0.0004,0.0000,1.0000,0.2427,-0.0277,0.0210
7199,Right,2,0.1774,-0.0997,-0.9784,-0.0365,-0.0090,-0.0086,0.0081,-0.0159,0.0480,-0.0101,-3.4588,1.7420,9.0053,-0.0001,-0.0001,0.0001,1.0000,-0.0865,0.0436,0.2251
7199,Left,2,0.1063,0.1390,-0.7807,0.5999,0.0027,-0.0050,-0.0006,-0.0053,0.0166,-0.0766,-3.2563,-0.8778,9.1334,0.0000,-0.0001,-0.0000,1.0000,-0.0814,-0.0220,0.2283
7199,Pelvis,2,0.5725,0.3700,0.5675,-0.4619,0.0682,0.0517,0.0008,0.0368,0.1183,-0.0324,9.6892,-1.0662,0.8081,0.0009,0.0006,0.0000,1.0000,0.2422,-0.0267,0.0200
7200,Right,2,0.1772,-0.0997,-0.9784,-0.0366,-0.0071,-0.0087,0.0076,-0.0053,0.0345,-0.0158,-3.4637,1.7514,8.9953,-0.0001,-0.0001,0.0001,1.0000,-0.0866,0.0438,0.2249
7200,Left,2,0.1062,0.1390,-0.7807,0.5999,0.0082,-0.0015,0.0004,0.0004,0.0054,-0.0699,-3.2476,-0.8717,9.1441,0.0001,-0.0000,0.0000,1.0000,-0.0812,-0.0218,0.2286
7200,Pelvis,2,0.5717,0.3703,0.5674,-0.4627,0.0758,0.0506,0.0047,0.0463,0.1230,-0.0409,9.6800,-1.0563,0.8290,0.0009,0.0006,0.0001,1.0000,0.2420,-0.0264,0.0205
7201,Right,2,0.1770,-0.0996,-0.9785,-0.0367,-0.0073,-0.0099,0.0088,-0.0439,0.0424,-0.0162,-3.4241,1.7462,9.0112,-0.0001,-0.0001,0.0001,1.0000,-0.0856,0.0437,0.2253
7201,Left,2,0.1060,0.1390,-0.7807,0.5999,0.0022,-0.0052,-0.0013,-0.0011,0.0042,-0.0571,-3.2482,-0.8758,9.1572,0.0000,-0.0001,-0.0000,1.0000,-0.0812,-0.0219,0.2289
7201,Pelvis,2,0.5710,0.3706,0.5673,-0.4634,0.0759,0.0360,0.0062,0.0286,0.0930,-0.0433,9.6782,-1.0633,0.8070,0.0009,0.0004,0.0001,1.0000,0.2420,-0.0266,0.0200
7202,Right,2,0.1768,-0.0996,-0.9785,-0.0370,-0.0096,-0.0079,0.0086,-0.0032,0.0334,-0.0158,-3.4589,1.7493,8.9976,-0.0001,-0.0001,0.0001,1.0000,-0.0865,0.0438,0.2249
7202,Left,2,0.1059,0.1390,-0.7807,0.6000,0.0022,-0.0052,-0.0013,-0.0071,0.0045,-0.0975,-3.2309,-0.8804,9.1198,0.0000,-0.0001,-0.0000,1.0000,-0.0808,-0.0220,0.2280
7202,Pelvis,2,0.5706,0.3710,0.5669,-0.4640,0.0735,0.0076,0.0088,0.0046,0.1064,0.0028,9.7200,-1.0950,0.8228,0.0009,0.0001,0.0001,1.0000,0.2430,-0.0274,0.0205
7203,Right,2,0.1766,-0.0994,-0.9786,-0.0366,-0.0035,-0.0095,0.0078,-0.0232,0.0375,-0.0113,-3.4386,1.7466,9.0108,-0.0000,-0.0001,0.0001,1.0000,-0.0860,0.0437,0.2253
7203,Left,2,0.1057,0.1391,-0.7808,0.5999,0.0022,-0.0029,-0.0024,-0.0132,0.0013,-0.0718,-3.2326,-0.8905,9.1456,0.0000,-0.0000,-0.0000,1.0000,-0.0808,-0.0223,0.2286
7203,Pelvis,2,0.5700,0.3717,0.5665,-0.4648,0.0908,0.0035,0.0052,0.0159,0.0934,0.0438,9.7627,-1.0842,0.8204,0.0011,0.0000,0.0001,1.0000,0.2441,-0.0271,0.0205
7204,Right,2,0.1765,-0.0994,-0.9786,-0.0367,-0.0065,-0.0081,0.0082,-0.0387,0.0275,-0.0337,-3.4134,1.7530,8.9949,-0.0001,-0.0001,0.0001,1.0000,-0.0854,0.0438,0.2249
7204,Left,2,0.1056,0.1391,-0.7808,0.5999,0.0032,0.0005,-0.0011,-0.0046,0.0091,-0.0614,-3.2436,-0.8873,9.1532,0.0000,0.0000,-0.0000,1.0000,-0.0811,-0.0222,0.2288
7204,Pelvis,2,0.5693,0.3724,0.5660,-0.4656,0.0940,0.0072,0.0017,0.0903,0.1243,-0.0544,9.6682,-1.0099,0.8685,0.0012,0.0001,0.0000,1.0000,0.2417,-0.0253,0.0217
7205,Right,2,0.1763,-0.0993,-0.9786,-0.0369,-0.0044,-0.0064,0.0053,-0.0188,0.0347,-0.0206,-3.4331,1.7452,9.0030,-0.0001,-0.0001,0.0001,1.0000,-0.0858,0.0436,0.2251
7205,Left,2,0.1055,0.1391,-0.7808,0.5999,0.0088,0.0019,-0.0015,0.0088,-0.0077,-0.0824,-3.2237,-0.8698,9.1395,0.0001,0.0000,-0.0000,1.0000,-0.0806,-0.0218,0.2285
7205,Pelvis,2,0.5688,0.3731,0.5657,-0.4662,0.0832,0.0053,-0.0047,0.0772,0.2429,-0.1542,9.5559,-1.0427,0.9738,0.0010,0.0001,-0.0001,1.0000,0.2389,-0.0261,0.0243
7206,Right,2,0.1761,-0.0994,-0.9786,-0.0372,-0.0014,-0.0078,0.0049,-0.0111,0.0404,-0.0406,-3.4299,1.7347,8.9845,-0.0000,-0.0001,0.0001,1.0000,-0.0858,0.0434,0.2246
7206,Left,2,0.1055,0.1391,-0.7808,0.5999,0.0079,0.0049,0.0009,-0.0152,-0.0107,-0.0928,-3.2106,-0.8922,9.1308,0.0001,0.0001,0.0000,1.0000,-0.0803,-0.0223,0.2283
7206,Pelvis,2,0.5686,0.3740,0.5650,-0.4664,0.0765,-0.0477,-0.0064,0.0064,0.3703,-0.1831,9.5092,-1.1397,1.0690,0.0010,-0.0006,-0.0001,1.0000,0.2377,-0.0285,0.0268
7207,Right,2,0.1760,-0.0993,-0.9787,-0.0370,-0.0026,-0.0053,0.0072,-0.0219,0.0429,-0.0337,-3.4198,1.7339,8.9961,-0.0000,-0.0001,0.0001,1.0000,-0.0855,0.0433,0.2249
7207,Left,2,0.1055,0.1392,-0.7808,0.5999,0.0084,0.0068,0.0012,-0.0168,-0.0120,-0.0799,-3.2133,-0.8955,9.1433,0.0001,0.0001,0.0000,1.0000,-0.0803,-0.0224,0.2286
7207,Pelvis,2,0.5689,0.3751,0.5639,-0.4666,0.0813,-0.0980,0.0112,0.0279,0.4314,-0.0814,9.6076,-1.1457,1.1255,0.0010,-0.0012,0.0001,1.0000,0.2402,-0.0286,0.0284
7208,Right,2,0.1759,-0.0993,-0.9787,-0.0370,-0.0022,-0.0010,0.0054,-0.0251,0.0232,-0.0312,-3.4165,1.7533,8.9962,-0.0000,-0.0000,0.0001,1.0000,-0.0854,0.0438,0.2249
7208,Left,2,0.1055,0.1392,-0.7808,0.5999,0.0113,0.0090,0.0022,-0.0053,0.0147,-0.0656,-3.2457,-0.8925,9.1474,0.0001,0.0001,0.0000,1.0000,-0.0811,-0.0223,0.2287
7208,Pelvis,2,0.5691,0.3762,0.5625,-0.4671,0.0749,-0.0987,0.0284,0.1095,0.4175,0.0874,9.7855,-1.0835,1.1267,0.0009,-0.0012,0.0004,1.0000,0.2446,-0.0270,0.0284
7209,Right,2,0.1758,-0.0993,-0.9787,-0.0373,0.0009,0.0006,0.0056,-0.0074,0.0656,0.0156,-3.4463,1.7186,9.0427,0.0000,0.0000,0.0001,1.0000,-0.0862,0.0430,0.2261
7209,Left,2,0.1055,0.1392,-0.7808,0.5999,0.0131,0.0088,0.0037,-0.0320,0.0235,-0.0826,-3.2418,-0.9186,9.1281,0.0002,0.0001,0.0000,1.0000,-0.0810,-0.0230,0.2282
7209,Pelvis,2,0.5691,0.3768,0.5617,-0.4676,0.0639,-0.0433,0.0286,0.0745,0.2552,0.3681,10.0779,-1.1062,0.9654,0.0008,-0.0005,0.0004,1.0000,0.2519,-0.0276,0.0242
7210,Right,2,0.1756,-0.0995,-0.9787,-0.0376,0.0049,-0.0014,0.0089,0.0051,0.0235,-0.0557,-3.4325,1.7467,8.9647,0.0001,-0.0000,0.0001,1.0000,-0.0858,0.0436,0.2241
7210,Left,2,0.1055,0.1392,-0.7808,0.5999,0.0090,0.0058,0.0021,0.0261,0.0105,-0.0571,-3.2538,-0.8613,9.1566,0.0001,0.0001,0.0000,1.0000,-0.0813,-0.0216,0.2289
7210,Pelvis,2,0.5679,0.3765,0.5621,-0.4689,0.0714,0.1240,0.0232,-0.0168,0.0709,0.7396,10.4549,-1.1868,0.8012,0.0009,0.0016,0.0003,1.0000,0.2614,-0.0296,0.0196
7211,Right,2,0.1755,-0.0995,-0.9787,-0.0372,0.0072,-0.0034,0.0085,-0.0185,0.0313,-0.0324,-3.4161,1.7473,8.9962,0.0001,-0.0000,0.0001,1.0000,-0.0854,0.0437,0.2249
7211,Left,2,0.1054,0.1392,-0.7808,0.5998,0.0037,0.0002,0.0003,0.0117,0.0122,-0.0485,-3.2537,-0.8777,9.1642,0.0000,0.0000,0.0000,1.0000,-0.0813,-0.0220,0.2291
7211,Pelvis,2,0.5652,0.3756,0.5634,-0.4712,0.1075,0.2817,0.0200,-0.0602,0.1719,0.5962,10.2941,-1.2428,0.9308,0.0013,0.0035,0.0003,1.0000,0.2574,-0.0310,0.0223
7212,Right,2,0.1754,-0.0996,-0.9787,-0.0375,0.0047,-0.0033,0.0089,-0.0334,0.0152,-0.0230,-3.4042,1.7679,9.0069,0.0001,-0.0000,0.0001,1.0000,-0.0851,0.0442,0.2252
7212,Left,2,0.1052,0.1392,-0.7808,0.5999,0.0046,-0.0032,-0.0014,0.0179,0.0053,-0.0633,-3.2424,-0.8705,9.1531,0.0001,-0.0000,-0.0000,1.0000,-0.0811,-0.0218,0.2288
7212,Pelvis,2,0.5617,0.3742,0.5654,-0.4742,0.1391,0.3933,0.0196,0.0841,0.3079,0.4093,10.0969,-1.1230,1.1762,0.0017,0.0049,0.0002,1.0000,0.2526,-0.0281,0.0281
7213,Right,2,0.1753,-0.0996,-0.9787,-0.0375,0.0001,-0.0024,0.0062,-0.0024,0.0186,-0.0170,-3.4332,1.7629,9.0034,0.0000,-0.0000,0.0001,1.0000,-0.0858,0.0441,0.2251
7213,Left,2,0.1051,0.1392,-0.7809,0.5999,0.0049,-0.0067,-0.0032,0.0082,0.0088,-0.0675,-3.2391,-0.8823,9.1487,0.0001,-0.0001,-0.0000,1.0000,-0.0810,-0.0221,0.2287
7213,Pelvis,2,0.5578,0.3723,0.5678,-0.4773,0.1372,0.4505,0.0197,0.1605,0.3173,0.3014,9.9816,-1.0412,1.3061,0.0017,0.0056,0.0002,1.0000,0.2497,-0.0260,0.0312
7214,Right,2,0.1753,-0.0995,-0.9788,-0.0374,-0.0047,-0.0015,0.0046,-0.0201,0.0325,-0.0136,-3.4158,1.7511,9.0160,-0.0001,-0.0000,0.0001,1.0000,-0.0854,0.0438,0.2254
7214,Left,2,0.1049,0.1392,-0.7809,0.5998,0.0037,-0.0086,-0.0029,-0.0293,0.0044,-0.0607,-3.2244,-0.9201,9.1575,0.0000,-0.0001,-0.0000,1.0000,-0.0806,-0.0230,0.2289
7214,Pelvis,2,0.5534,0.3700,0.5707,-0.4808,0.1320,0.5227,0.0181,0.1314,0.1735,0.3167,9.9966,-1.0325,1.2870,0.0017,0.0065,0.0002,1.0000,0.2501,-0.0258,0.0305
7215,Right,2,0.1751,-0.0994,-0.9788,-0.0374,-0.0051,-0.0064,0.0059,-0.0077,0.0283,-0.0206,-3.4230,1.7513,9.0056,-0.0001,-0.0001,0.0001,1.0000,-0.0856,0.0438,0.2251
7215,Left,2,0.1048,0.1391,-0.7809,0.5998,0.0101,-0.0022,-0.0006,-0.0158,-0.0125,-0.0817,-3.2029,-0.9024,9.1443,0.0001,-0.0000,-0.0000,1.0000,-0.0801,-0.0226,0.2286
7215,Pelvis,2,0.5484,0.3671,0.5743,-0.4845,0.1212,0.6119,0.0074,0.0537,-0.0357,0.3647,10.0494,-1.0561,1.2165,0.0015,0.0076,0.0001,1.0000,0.2515,-0.0264,0.0284
7216,Right,2,0.1749,-0.0994,-0.9788,-0.0377,-0.0028,-0.0083,0.0067,-0.0143,0.0723,0.0002,-3.4199,1.7119,9.0373,-0.0000,-0.0001,0.0001,1.0000,-0.0855,0.0428,0.2259
7216,Left,2,0.1047,0.1391,-0.7809,0.5999,0.0118,0.0006,0.0009,-0.0021,-0.0019,-0.0394,-3.2285,-0.8959,9.1810,0.0001,0.0000,0.0000,1.0000,-0.0807,-0.0224,0.2295
7216,Pelvis,2,0.5424,0.3639,0.5786,-0.4885,0.1416,0.7038,-0.0138,0.0287,-0.0737,0.1247,9.7964,-1.0388,1.3086,0.0018,0.0088,-0.0002,1.0000,0.2452,-0.0261,0.0305
7217,Right,2,0.1747,-0.0994,-0.9789,-0.0375,0.0002,-0.0146,0.0118,-0.0016,0.0236,-0.0394,-3.4156,1.7509,8.9881,0.0000,-0.0002,0.0001,1.0000,-0.0854,0.0438,0.2247
7217,Left,2,0.1046,0.1391,-0.7810,0.5998,0.0095,-0.0017,-0.0007,0.0092,0.0239,-0.0698,-3.2432,-0.8889,9.1442,0.0001,-0.0000,-0.0000,1.0000,-0.0811,-0.0222,0.2286
7217,Pelvis,2,0.5365,0.3607,0.5828,-0.4923,0.1249,0.6973,-0.0191,0.1793,-0.0597,-0.1407,9.5189,-0.8602,1.4958,0.0016,0.0087,-0.0002,1.0000,0.2383,-0.0216,0.0353
7218,Right,2,0.1744,-0.0995,-0.9789,-0.0376,0.0043,-0.0185,0.0115,-0.0045,0.0376,-0.0124,-3.4163,1.7436,9.0186,0.0001,-0.0002,0.0001,1.0000,-0.0855,0.0436,0.2254
7218,Left,2,0.1045,0.1390,-0.7810,0.5998,0.0134,-0.0059,-0.0008,-0.0052,0.0255,-0.0612,-3.2415,-0.9043,9.1525,0.0002,-0.0001,-0.0000,1.0000,-0.0811,-0.0226,0.2288
7218,Pelvis,2,0.5309,0.3574,0.5870,-0.4958,0.0978,0.6697,-0.0216,0.1757,-0.1680,-0.2794,9.3774,-0.8119,1.5328,0.0012,0.0084,-0.0003,1.0000,0.2347,-0.0204,0.0363
7219,Right,2,0.1741,-0.0995,-0.9790,-0.0377,0.0006,-0.0189,0.0107,-0.0155,0.0290,-0.0136,-3.4008,1.7536,9.0212,0.0000,-0.0002,0.0001,1.0000,-0.0851,0.0438,0.2255
7219,Left,2,0.1043,0.1388,-0.7810,0.5999,0.0137,-0.0115,-0.0008,-0.0124,0.0172,-0.0587,-3.2295,-0.9091,9.1588,0.0002,-0.0001,-0.0000,1.0000,-0.0808,-0.0228,0.2290
7219,Pelvis,2,0.5256,0.3539,0.5913,-0.4989,0.0603,0.6630,-0.0270,0.1621,-0.2245,-0.2125,9.4277,-0.8090,1.6455,0.0008,0.0083,-0.0003,1.0000,0.2360,-0.0203,0.0392
7220,Right,2,0.1737,-0.0995,-0.9790,-0.0376,0.0057,-0.0241,0.0123,0.0155,0.0436,0.0006,-3.4279,1.7397,9.0291,0.0001,-0.0003,0.0002,1.0000,-0.0858,0.0435,0.2257
7220,Left,2,0.1041,0.1387,-0.7811,0.5999,0.0090,-0.0177,-0.0025,0.0265,0.0212,-0.0528,-3.2404,-0.8733,9.1648,0.0001,-0.0002,-0.0000,1.0000,-0.0811,-0.0219,0.2291
7220,Pelvis,2,0.5203,0.3503,0.5957,-0.5018,0.0359,0.6627,-0.0367,-0.0385,-0.3811,-0.1021,9.5330,-0.9646,1.6236,0.0004,0.0083,-0.0005,1.0000,0.2386,-0.0242,0.0386
7221,Right,2,0.1733,-0.0996,-0.9791,-0.0371,0.0090,-0.0261,0.0168,-0.0161,0.0465,-0.0279,-3.3807,1.7373,9.0165,0.0001,-0.0003,0.0002,1.0000,-0.0846,0.0434,0.2254
7221,Left,2,0.1038,0.1385,-0.7812,0.5998,0.0045,-0.0204,0.0002,-0.0148,-0.0074,-0.0730,-3.1912,-0.9058,9.1573,0.0001,-0.0003,0.0000,1.0000,-0.0798,-0.0227,0.2289
7221,Pelvis,2,0.5154,0.3468,0.5998,-0.5043,0.0275,0.6156,-0.0408,-0.0127,-0.3760,-0.2267,9.3858,-0.9175,1.7602,0.0003,0.0077,-0.0005,1.0000,0.2350,-0.0231,0.0422
7222,Right,2,0.1729,-0.0997,-0.9792,-0.0370,0.0115,-0.0256,0.0169,-0.0235,0.0742,-0.0551,-3.3561,1.7090,9.0018,0.0001,-0.0003,0.0002,1.0000,-0.0840,0.0427,0.2250
7222,Left,2,0.1036,0.1384,-0.7812,0.5998,0.0074,-0.0129,-0.0005,-0.0142,0.0050,-0.0796,-3.1953,-0.9093,9.1485,0.0001,-0.0002,-0.0000,1.0000,-0.0799,-0.0228,0.2287
7222,Pelvis,2,0.5113,0.3439,0.6034,-0.5062,0.0062,0.5182,-0.0441,-0.0313,-0.4404,-0.4166,9.1930,-0.8888,1.7834,0.0001,0.0065,-0.0006,1.0000,0.2301,-0.0223,0.0431
7223,Right,2,0.1725,-0.1000,-0.9792,-0.0367,0.0231,-0.0245,0.0183,-0.0519,0.0806,-0.0529,-3.3220,1.7112,9.0165,0.0003,-0.0003,0.0002,1.0000,-0.0831,0.0427,0.2254
7223,Left,2,0.1034,0.1383,-0.7813,0.5998,0.0122,-0.0100,0.0006,-0.0100,-0.0155,-0.0749,-3.1751,-0.9012,9.1614,0.0002,-0.0001,0.0000,1.0000,-0.0794,-0.0226,0.2290
7223,Pelvis,2,0.5079,0.3416,0.6064,-0.5076,0.0030,0.4196,-0.0474,-0.0636,-0.4484,-0.4703,9.1219,-0.9017,1.8613,0.0000,0.0052,-0.0006,1.0000,0.2283,-0.0227,0.0453
7224,Right,2,0.1722,-0.1003,-0.9792,-0.0369,0.0211,-0.0177,0.0168,-0.0400,-0.0121,-0.0441,-3.3333,1.8080,9.0026,0.0003,-0.0002,0.0002,1.0000,-0.0834,0.0451,0.2251
7224,Left,2,0.1033,0.1382,-0.7813,0.5998,0.0138,-0.0030,0.0011,-0.0200,-0.0120,-0.0791,-3.1715,-0.9108,9.1572,0.0002,-0.0000,0.0000,1.0000,-0.0793,-0.0228,0.2289
7224,Pelvis,2,0.5052,0.3398,0.6087,-0.5086,-0.0008,0.3253,-0.0476,-0.0715,-0.4700,-0.4123,9.1667,-0.8988,1.9384,-0.0000,0.0041,-0.0006,1.0000,0.2293,-0.0226,0.0475
7225,Right,2,0.1720,-0.1004,-0.9793,-0.0367,0.0114,-0.0110,0.0125,-0.0369,0.0077,-0.0372,-3.3330,1.7939,9.0131,0.0001,-0.0001,0.0002,1.0000,-0.0834,0.0448,0.2253
7225,Left,2,0.1033,0.1382,-0.7813,0.5998,0.0167,0.0021,0.0010,-0.0214,-0.0132,-0.0662,-3.1728,-0.9124,9.1703,0.0002,0.0000,0.0000,1.0000,-0.0793,-0.0229,0.2293
7225,Pelvis,2,0.5032,0.3385,0.6106,-0.5093,-0.0040,0.2428,-0.0465,-0.0646,-0.5791,-0.3032,9.2892,-0.8648,1.9322,-0.0001,0.0030,-0.0006,1.0000,0.2324,-0.0218,0.0476
7226,Right,2,0.1719,-0.1004,-0.9793,-0.0366,0.0045,-0.0069,0.0102,-0.0340,0.0163,-0.0384,-3.3317,1.7869,9.0136,0.0001,-0.0001,0.0001,1.0000,-0.0833,0.0446,0.2253
7226,Left,2,0.1034,0.1381,-0.7813,0.5998,0.0171,0.0038,0.0032,0.0048,-0.0064,-0.0645,-3.1856,-0.8878,9.1701,0.0002,0.0000,0.0000,1.0000,-0.0796,-0.0222,0.2293
7226,Pelvis,2,0.5019,0.3376,0.6120,-0.5096,-0.0094,0.1701,-0.0427,-0.0868,-0.5962,-0.2373,9.3477,-0.8782,1.9753,-0.0001,0.0021,-0.0005,1.0000,0.2338,-0.0221,0.0489
7227,Right,2,0.1718,-0.1004,-0.9793,-0.0364,-0.0007,-0.0048,0.0068,-0.0370,0.0190,-0.0196,-3.3324,1.7886,9.0334,-0.0000,-0.0001,0.0001,1.0000,-0.0833,0.0447,0.2258
7227,Left,2,0.1034,0.1381,-0.7814,0.5998,0.0127,0.0043,0.0033,-0.0004,-0.0010,-0.0815,-3.1832,-0.8917,9.1524,0.0002,0.0001,0.0000,1.0000,-0.0796,-0.0223,0.2288
7227,Pelvis,2,0.5010,0.3371,0.6130,-0.5095,-0.0148,0.1061,-0.0486,-0.1243,-0.5825,-0.2521,9.3229,-0.9062,2.0054,-0.0002,0.0013,-0.0006,1.0000,0.2331,-0.0228,0.0498
7228,Right,2,0.1717,-0.1003,-0.9794,-0.0363,-0.0012,-0.0029,0.0067,-0.0300,0.0353,-0.0314,-3.3325,1.7693,9.0244,-0.0000,-0.0000,0.0001,1.0000,-0.0833,0.0442,0.2256
7228,Left,2,0.1034,0.1381,-0.7813,0.5998,0.0112,0.0106,0.0038,0.0012,-0.0098,-0.0835,-3.1754,-0.8876,9.1535,0.0001,0.0001,0.0000,1.0000,-0.0794,-0.0222,0.2288
7228,Pelvis,2,0.5007,0.3371,0.6136,-0.5091,-0.0248,0.0262,-0.0474,-0.1111,-0.5209,-0.2502,9.3052,-0.8991,2.0809,-0.0003,0.0003,-0.0006,1.0000,0.2326,-0.0226,0.0520
7229,Right,2,0.1716,-0.1003,-0.9794,-0.0363,-0.0017,-0.0016,0.0067,-0.0270,0.0218,-0.0490,-3.3281,1.7786,9.0051,-0.0000,-0.0000,0.0001,1.0000,-0.0832,0.0445,0.2251
7229,Left,2,0.1035,0.1381,-0.7813,0.5998,0.0154,0.0134,0.0042,-0.0173,-0.0058,-0.0832,-3.1757,-0.9059,9.1519,0.0002,0.0002,0.0001,1.0000,-0.0794,-0.0227,0.2288
7229,Pelvis,2,0.5011,0.3373,0.6138,-0.5084,-0.0354,-0.0375,-0.0400,-0.0892,-0.4378,-0.1484,9.3806,-0.9003,2.1886,-0.0004,-0.0005,-0.0005,1.0000,0.2345,-0.0226,0.0548
7230,Right,2,0.1716,-0.1002,-0.9794,-0.0364,-0.0059,0.0053,0.0014,-0.0298,0.0247,-0.0302,-3.3307,1.7787,9.0245,-0.0001,0.0001,0.0000,1.0000,-0.0833,0.0445,0.2256
7230,Left,2,0.1037,0.1381,-0.7813,0.5998,0.0171,0.0162,0.0056,-0.0064,-0.0140,-0.0448,-3.1857,-0.8956,9.1903,0.0002,0.0002,0.0001,1.0000,-0.0796,-0.0224,0.2298
7230,Pelvis,2,0.5019,0.3377,0.6137,-0.5074,-0.0458,-0.0820,-0.0376,-0.0324,-0.4070,-0.1111,9.4130,-0.8501,2.2272,-0.0006,-0.0010,-0.0005,1.0000,0.2353,-0.0213,0.0559
7231,Right,2,0.1716,-0.1001,-0.9794,-0.0362,-0.0052,0.0071,0.0020,-0.0223,0.0523,-0.0338,-3.3357,1.7485,9.0247,-0.0001,0.0001,0.0000,1.0000,-0.0834,0.0437,0.2256
7231,Left,2,0.1038,0.1382,-0.7813,0.5998,0.0122,0.0157,0.0040,0.0084,0.0051,-0.0453,-3.2090,-0.8850,9.1826,0.0002,0.0002,0.0001,1.0000,-0.0802,-0.0222,0.2296
7231,Pelvis,2,0.5031,0.3382,0.6135,-0.5062,-0.0676,-0.1180,-0.0406,-0.0192,-0.3672,-0.1092,9.4103,-0.8417,2.2428,-0.0008,-0.0015,-0.0005,1.0000,0.2352,-0.0211,0.0564
7232,Right,2,0.1716,-0.1001,-0.9794,-0.0365,-0.0011,0.0044,0.0029,-0.0108,0.0661,0.0167,-3.3633,1.7423,9.0705,-0.0000,0.0001,0.0000,1.0000,-0.0841,0.0436,0.2268
7232,Left,2,0.1036,0.1383,-0.7812,0.5998,-0.0061,0.0026,0.0046,0.0077,0.0356,0.0095,-3.2554,-0.8998,9.2233,-0.0001,0.0000,0.0001,1.0000,-0.0814,-0.0225,0.2306
7232,Pelvis,2,0.5046,0.3387,0.6132,-0.5047,-0.0824,-0.1446,-0.0396,-0.0004,-0.3362,-0.1164,9.4033,-0.8257,2.2418,-0.0010,-0.0018,-0.0005,1.0000,0.2350,-0.0207,0.0565
7233,Right,2,0.1715,-0.1002,-0.9794,-0.0365,0.0058,0.0003,0.0053,-0.0225,0.0415,-0.0326,-3.3360,1.7586,9.0239,0.0001,0.0000,0.0001,1.0000,-0.0834,0.0439,0.2256
7233,Left,2,0.1033,0.1385,-0.7812,0.5999,-0.0169,-0.0028,0.0017,0.0058,0.0069,-0.0410,-3.2109,-0.8953,9.1856,-0.0002,-0.0000,0.0000,1.0000,-0.0803,-0.0223,0.2296
7233,Pelvis,2,0.5063,0.3394,0.6128,-0.5030,-0.0961,-0.1737,-0.0450,-0.0733,-0.2830,-0.0966,9.4162,-0.9065,2.2361,-0.0012,-0.0022,-0.0006,1.0000,0.2353,-0.0227,0.0564
7234,Right,2,0.1715,-0.1003,-0.9794,-0.0363,0.0135,-0.0032,0.0070,0.0021,0.0720,0.0179,-3.3739,1.7373,9.0688,0.0002,-0.0000,0.0001,1.0000,-0.0844,0.0434,0.2267
7234,Left,2,0.1030,0.1388,-0.7812,0.5999,-0.0219,-0.0031,0.0013,0.0172,0.0029,-0.0239,-3.2137,-0.8920,9.2031,-0.0003,-0.0000,0.0000,1.0000,-0.0804,-0.0222,0.2301
7234,Pelvis,2,0.5083,0.3401,0.6123,-0.5011,-0.0998,-0.1930,-0.0463,-0.0728,-0.2476,-0.0669,9.4466,-0.9126,2.2306,-0.0012,-0.0024,-0.0006,1.0000,0.2360,-0.0229,0.0564
7235,Right,2,0.1713,-0.1007,-0.9794,-0.0366,0.0232,-0.0020,0.0094,-0.0061,0.0288,-0.0172,-3.3536,1.7785,9.0301,0.0003,-0.0000,0.0001,1.0000,-0.0839,0.0444,0.2258
7235,Left,2,0.1024,0.1392,-0.7811,0.6001,-0.0415,-0.0127,0.0010,-0.0186,0.0386,-0.0177,-3.2357,-0.9457,9.1967,-0.0005,-0.0002,0.0000,1.0000,-0.0809,-0.0235,0.2299
7235,Pelvis,2,0.5104,0.3409,0.6116,-0.4992,-0.1075,-0.2122,-0.0442,-0.0279,-0.2035,-0.0706,9.4445,-0.8761,2.2324,-0.0013,-0.0027,-0.0006,1.0000,0.2360,-0.0220,0.0565
7236,Right,2,0.1711,-0.1010,-0.9794,-0.0367,0.0249,-0.0051,0.0084,-0.0255,0.0224,-0.0208,-3.3320,1.7919,9.0316,0.0003,-0.0001,0.0001,1.0000,-0.0833,0.0447,0.2258
7236,Left,2,0.1019,0.1395,-0.7810,0.6001,-0.0371,-0.0091,-0.0006,-0.0309,-0.0223,-0.1505,-3.1298,-0.9422,9.0927,-0.0005,-0.0001,-0.0000,1.0000,-0.0783,-0.0234,0.2273
7236,Pelvis,2,0.5127,0.3417,0.6109,-0.4971,-0.1204,-0.2290,-0.0404,0.0277,-0.1681,-0.1221,9.3999,-0.8237,2.2134,-0.0015,-0.0029,-0.0005,1.0000,0.2348,-0.0206,0.0560
7237,Right,2,0.1710,-0.1012,-0.9794,-0.0368,0.0156,0.0009,0.0065,-0.0134,0.0469,-0.0432,-3.3325,1.7674,9.0120,0.0002,0.0000,0.0001,1.0000,-0.0833,0.0441,0.2253
7237,Left,2,0.1015,0.1398,-0.7810,0.6001,-0.0246,-0.0027,0.0035,-0.0014,-0.0263,-0.0975,-3.1484,-0.9275,9.1440,-0.0003,-0.0000,0.0000,1.0000,-0.0787,-0.0231,0.2286
7237,Pelvis,2,0.5154,0.3424,0.6102,-0.4949,-0.1374,-0.2486,-0.0376,0.0464,-0.1589,-0.1294,9.4049,-0.8055,2.1663,-0.0017,-0.0031,-0.0005,1.0000,0.2349,-0.0202,0.0549
7238,Right,2,0.1709,-0.1015,-0.9794,-0.0368,0.0244,-0.0020,0.0089,0.0002,0.0478,-0.0102,-3.3548,1.7760,9.0378,0.0003,-0.0000,0.0001,1.0000,-0.0839,0.0443,0.2260
7238,Left,2,0.1012,0.1401,-0.7810,0.6001,-0.0177,-0.0003,0.0017,0.0001,0.0179,-0.0621,-3.1988,-0.9477,9.1620,-0.0002,-0.0000,0.0000,1.0000,-0.0800,-0.0236,0.2291
7238,Pelvis,2,0.5181,0.3431,0.6094,-0.4925,-0.1472,-0.2535,-0.0387,-0.0236,-0.1363,-0.0994,9.4411,-0.8800,2.1113,-0.0018,-0.0032,-0.0005,1.0000,0.2358,-0.0220,0.0536
7239,Right,2,0.1708,-0.1019,-0.9793,-0.0366,0.0346,-0.0045,0.0114,0.0013,0.0359,-0.0184,-3.3512,1.7928,9.0269,0.0004,-0.0001,0.0001,1.0000,-0.0838,0.0447,0.2257
7239,Left,2,0.1010,0.1402,-0.7810,0.6002,-0.0121,-0.0005,0.0028,-0.0096,0.0214,-0.0663,-3.1967,-0.9636,9.1567,-0.0002,-0.0000,0.0000,1.0000,-0.0799,-0.0241,0.2289
7239,Pelvis,2,0.5208,0.3439,0.6085,-0.4902,-0.1413,-0.2602,-0.0344,-0.0082,-0.0704,-0.0480,9.4897,-0.8873,2.1243,-0.0018,-0.0033,-0.0004,1.0000,0.2371,-0.0222,0.0539
7240,Right,2,0.1707,-0.1023,-0.9793,-0.0363,0.0394,-0.0054,0.0111,-0.0160,0.0276,-0.0314,-3.3279,1.8090,9.0182,0.0005,-0.0001,0.0001,1.0000,-0.0832,0.0451,0.2255
7240,Left,2,0.1007,0.1403,-0.7810,0.6002,-0.0112,-0.0103,0.0037,0.0106,0.0169,-0.0536,-3.1993,-0.9496,9.1707,-0.0001,-0.0001,0.0000,1.0000,-0.0800,-0.0237,0.2293
7240,Pelvis,2,0.5235,0.3447,0.6076,-0.4879,-0.1351,-0.2630,-0.0352,-0.0102,-0.0350,0.0011,9.5436,-0.9026,2.1015,-0.0017,-0.0033,-0.0004,1.0000,0.2384,-0.0226,0.0534
7241,Right,2,0.1705,-0.1028,-0.9793,-0.0364,0.0353,-0.0039,0.0096,-0.0257,0.0085,-0.0407,-3.3131,1.8361,9.0080,0.0004,-0.0000,0.0001,1.0000,-0.0828,0.0458,0.2252
7241,Left,2,0.1004,0.1404,-0.7810,0.6002,-0.0094,-0.0066,0.0031,-0.0090,-0.0108,-0.0953,-3.1522,-0.9626,9.1414,-0.0001,-0.0001,0.0000,1.0000,-0.0788,-0.0240,0.2285
7241,Pelvis,2,0.5260,0.3454,0.6068,-0.4857,-0.1320,-0.2417,-0.0339,-0.0230,0.0137,-0.0006,9.5445,-0.9272,2.0788,-0.0017,-0.0030,-0.0004,1.0000,0.2384,-0.0232,0.0527
7242,Right,2,0.1704,-0.1032,-0.9793,-0.0365,0.0312,-0.0025,0.0087,-0.0321,0.0190,-0.0443,-3.3036,1.8335,9.0082,0.0004,-0.0000,0.0001,1.0000,-0.0826,0.0457,0.2252
7242,Left,2,0.1003,0.1405,-0.7810,0.6002,-0.0015,0.0004,0.0023,-0.0087,0.0017,-0.1019,-3.1595,-0.9684,9.1313,-0.0000,0.0000,0.0000,1.0000,-0.0790,-0.0242,0.2283
7242,Pelvis,2,0.5282,0.3458,0.6062,-0.4837,-0.1352,-0.2028,-0.0280,-0.0505,0.0319,-0.0240,9.5292,-0.9559,2.0258,-0.0017,-0.0025,-0.0003,1.0000,0.2381,-0.0239,0.0513
7243,Right,2,0.1703,-0.1035,-0.9793,-0.0365,0.0289,-0.0011,0.0067,-0.0049,0.0147,-0.0278,-3.3329,1.8449,9.0130,0.0004,-0.0000,0.0001,1.0000,-0.0833,0.0460,0.2253
7243,Left,2,0.1002,0.1406,-0.7810,0.6002,0.0070,0.0071,0.0029,-0.0101,0.0005,-0.0890,-3.1617,-0.9727,9.1438,0.0001,0.0001,0.0000,1.0000,-0.0790,-0.0243,0.2286
7243,Pelvis,2,0.5306,0.3463,0.6054,-0.4817,-0.1236,-0.2233,-0.0166,-0.0000,0.0891,-0.0368,9.5168,-0.9246,2.0375,-0.0015,-0.0028,-0.0002,1.0000,0.2378,-0.0231,0.0516
7244,Right,2,0.1701,-0.1038,-0.9792,-0.0368,0.0257,-0.0034,0.0066,-0.0253,0.0590,-0.0304,-3.3094,1.8096,9.0261,0.0003,-0.0000,0.0001,1.0000,-0.0827,0.0452,0.2257
7244,Left,2,0.1002,0.1405,-0.7810,0.6003,0.0115,0.0042,0.0032,0.0023,0.0283,-0.0300,-3.2093,-0.9736,9.1899,0.0001,0.0001,0.0000,1.0000,-0.0802,-0.0244,0.2297
7244,Pelvis,2,0.5329,0.3467,0.6045,-0.4799,-0.1204,-0.2080,-0.0085,0.0050,0.0415,0.0229,9.5967,-0.9142,1.9517,-0.0015,-0.0026,-0.0001,1.0000,0.2398,-0.0228,0.0494
7245,Right,2,0.1701,-0.1040,-0.9792,-0.0368,0.0146,0.0022,0.0039,-0.0375,0.0191,-0.0467,-3.2921,1.8513,9.0062,0.0002,0.0000,0.0000,1.0000,-0.0823,0.0462,0.2252
7245,Left,2,0.1002,0.1406,-0.7810,0.6002,0.0071,0.0028,0.0032,-0.0036,0.0061,-0.1104,-3.1609,-0.9666,9.1219,0.0001,0.0000,0.0000,1.0000,-0.0790,-0.0242,0.2280
7245,Pelvis,2,0.5351,0.3471,0.6037,-0.4782,-0.1120,-0.2031,-0.0046,-0.0362,0.1208,0.0372,9.6030,-0.9823,1.9628,-0.0014,-0.0025,-0.0001,1.0000,0.2399,-0.0245,0.0497
7246,Right,2,0.1701,-0.1040,-0.9792,-0.0366,0.0004,0.0073,0.0005,-0.0306,0.0202,-0.0255,-3.3050,1.8552,9.0236,0.0000,0.0001,0.0000,1.0000,-0.0826,0.0464,0.2256
7246,Left,2,0.1001,0.1406,-0.7810,0.6002,0.0084,0.0035,0.0031,0.0003,0.0078,-0.0656,-3.1774,-0.9684,9.1636,0.0001,0.0000,0.0000,1.0000,-0.0794,-0.0242,0.2291
7246,Pelvis,2,0.5370,0.3477,0.6028,-0.4769,-0.0762,-0.1906,-0.0003,-0.1209,0.1567,0.0455,9.6109,-1.0781,1.9209,-0.0010,-0.0024,-0.0000,1.0000,0.2402,-0.0269,0.0486
7247,Right,2,0.1701,-0.1040,-0.9792,-0.0368,-0.0013,0.0080,-0.0002,-0.0067,0.0460,-0.0150,-3.3309,1.8289,9.0309,-0.0000,0.0001,-0.0000,1.0000,-0.0833,0.0457,0.2258
7247,Left,2,0.1001,0.1406,-0.7810,0.6002,0.0107,0.0050,0.0042,0.0052,-0.0043,-0.1038,-3.1549,-0.9573,9.1320,0.0001,0.0001,0.0001,1.0000,-0.0789,-0.0240,0.2283
7247,Pelvis,2,0.5386,0.3483,0.6018,-0.4759,-0.0447,-0.1676,0.0062,-0.1039,0.1528,0.0182,9.5941,-1.0618,1.8726,-0.0006,-0.0021,0.0001,1.0000,0.2398,-0.0265,0.0473
7248,Right,2,0.1701,-0.1040,-0.9792,-0.0370,-0.0002,0.0074,0.0017,-0.0081,0.0247,-0.0219,-3.3289,1.8477,9.0202,-0.0000,0.0001,0.0000,1.0000,-0.0832,0.0462,0.2255
7248,Left,2,0.1001,0.1406,-0.7810,0.6002,0.0108,0.0042,0.0032,0.0167,0.0182,-0.0682,-3.1896,-0.9553,9.1581,0.0001,0.0001,0.0000,1.0000,-0.0797,-0.0239,0.2290
7248,Pelvis,2,0.5400,0.3490,0.6007,-0.4751,-0.0231,-0.1577,0.0153,-0.0778,0.1882,0.0217,9.5989,-1.0521,1.8740,-0.0003,-0.0020,0.0002,1.0000,0.2399,-0.0262,0.0473
7249,Right,2,0.1701,-0.1039,-0.9792,-0.0371,-0.0037,0.0088,-0.0010,-0.0211,0.0245,-0.0455,-3.3091,1.8441,9.0027,-0.0000,0.0001,-0.0000,1.0000,-0.0827,0.0461,0.2251
7249,Left,2,0.1000,0.1406,-0.7810,0.6002,0.0043,0.0020,-0.0001,0.0039,0.0028,-0.0760,-3.1690,-0.9641,9.1559,0.0001,0.0000,-0.0000,1.0000,-0.0792,-0.0241,0.2289
7249,Pelvis,2,0.5413,0.3497,0.5995,-0.4746,0.0017,-0.1580,0.0240,-0.0576,0.2193,0.0048,9.5839,-1.0460,1.8677,0.0000,-0.0020,0.0003,1.0000,0.2395,-0.0261,0.0472
7250,Right,2,0.1702,-0.1038,-0.9792,-0.0372,-0.0086,0.0091,0.0005,-0.0130,0.0348,-0.0255,-3.3244,1.8350,9.0206,-0.0001,0.0001,0.0000,1.0000,-0.0831,0.0459,0.2255
7250,Left,2,0.1000,0.1406,-0.7810,0.6002,0.0085,0.0031,0.0013,-0.0071,0.0010,-0.1034,-3.1549,-0.9728,9.1307,0.0001,0.0000,0.0000,1.0000,-0.0789,-0.0243,0.2283
7250,Pelvis,2,0.5426,0.3506,0.5982,-0.4742,0.0181,-0.1588,0.0279,-0.0597,0.1586,0.0832,9.6791,-1.0426,1.7853,0.0002,-0.0020,0.0003,1.0000,0.2419,-0.0260,0.0451
7251,Right,2,0.1703,-0.1037,-0.9792,-0.0373,-0.0097,0.0110,0.0004,-0.0056,0.0624,-0.0291,-3.3304,1.8040,9.0208,-0.0001,0.0001,0.0000,1.0000,-0.0832,0.0451,0.2255
7251,Left,2,0.1000,0.1406,-0.7810,0.6002,0.0152,0.0061,0.0025,0.0017,0.0088,-0.0930,-3.1673,-0.9672,9.1381,0.0002,0.0001,0.0000,1.0000,-0.0792,-0.0242,0.2285
7251,Pelvis,2,0.5435,0.3515,0.5970,-0.4741,0.0386,-0.1303,0.0311,-0.0087,0.1327,0.1295,9.7370,-0.9965,1.7500,0.0005,-0.0016,0.0004,1.0000,0.2434,-0.0248,0.0441
7252,Right,2,0.1704,-0.1035,-0.9792,-0.0373,-0.0133,0.0125,0.0002,-0.0083,0.0319,-0.0349,-3.3281,1.8300,9.0100,-0.0002,0.0002,0.0000,1.0000,-0.0832,0.0458,0.2253
7252,Left,2,0.1000,0.1405,-0.7811,0.6001,0.0177,0.0061,0.0021,-0.0071,-0.0132,-0.0710,-3.1522,-0.9716,9.1663,0.0002,0.0001,0.0000,1.0000,-0.0788,-0.0243,0.2292
7252,Pelvis,2,0.5442,0.3523,0.5958,-0.4741,0.0423,-0.1175,0.0316,-0.0183,0.1028,0.0690,9.6874,-0.9965,1.6796,0.0005,-0.0015,0.0004,1.0000,0.2421,-0.0248,0.0423
7253,Right,2,0.1704,-0.1034,-0.9792,-0.0374,-0.0099,0.0092,0.0005,-0.0002,0.0421,-0.0150,-3.3438,1.8197,9.0280,-0.0001,0.0001,0.0000,1.0000,-0.0836,0.0455,0.2257
7253,Left,2,0.1001,0.1405,-0.7811,0.6002,0.0157,0.0059,0.0045,0.0173,0.0065,-0.0313,-3.1894,-0.9555,9.1973,0.0002,0.0001,0.0001,1.0000,-0.0797,-0.0239,0.2299
7253,Pelvis,2,0.5449,0.3531,0.5947,-0.4741,0.0509,-0.1043,0.0263,-0.0416,0.0904,0.0462,9.6701,-1.0177,1.6308,0.0006,-0.0013,0.0003,1.0000,0.2417,-0.0254,0.0411
7254,Right,2,0.1703,-0.1035,-0.9792,-0.0375,0.0070,-0.0004,0.0060,0.0062,0.0653,0.0226,-3.3616,1.8030,9.0656,0.0001,-0.0000,0.0001,1.0000,-0.0840,0.0450,0.2266
7254,Left,2,0.0999,0.1405,-0.7811,0.6002,0.0039,-0.0035,0.0004,0.0186,0.0200,0.0068,-3.2133,-0.9616,9.2289,0.0000,-0.0000,0.0000,1.0000,-0.0803,-0.0241,0.2307
7254,Pelvis,2,0.5453,0.3539,0.5937,-0.4743,0.0625,-0.0889,0.0247,0.0417,0.0337,0.0475,9.6886,-0.9255,1.5815,0.0008,-0.0011,0.0003,1.0000,0.2422,-0.0231,0.0398
7255,Right,2,0.1702,-0.1037,-0.9792,-0.0378,0.0098,-0.0024,0.0068,-0.0114,0.0462,0.0015,-3.3369,1.8217,9.0480,0.0001,-0.0000,0.0001,1.0000,-0.0834,0.0455,0.2262
7255,Left,2,0.0997,0.1405,-0.7811,0.6002,-0.0016,-0.0057,-0.0002,-0.0177,0.0059,-0.0901,-3.1570,-0.9861,9.1427,-0.0000,-0.0001,-0.0000,1.0000,-0.0789,-0.0246,0.2286
7255,Pelvis,2,0.5457,0.3547,0.5927,-0.4744,0.0500,-0.0840,0.0217,0.0426,0.0212,0.0082,9.6551,-0.9204,1.5439,0.0006,-0.0010,0.0003,1.0000,0.2413,-0.0230,0.0388
7256,Right,2,0.1701,-0.1037,-0.9792,-0.0378,0.0058,0.0003,0.0059,-0.0163,0.0105,-0.0443,-3.3170,1.8499,8.9999,0.0001,0.0000,0.0001,1.0000,-0.0829,0.0462,0.2250
7256,Left,2,0.0996,0.1405,-0.7810,0.6003,0.0038,-0.0016,0.0006,-0.0178,-0.0166,-0.0724,-3.1400,-0.9852,9.1675,0.0000,-0.0000,0.0000,1.0000,-0.0785,-0.0246,0.2292
7256,Pelvis,2,0.5461,0.3555,0.5918,-0.4745,0.0552,-0.0849,0.0122,-0.0527,-0.0039,-0.0047,9.6454,-1.0041,1.4691,0.0007,-0.0011,0.0002,1.0000,0.2411,-0.0251,0.0370
7257,Right,2,0.1702,-0.1036,-0.9792,-0.0376,-0.0029,0.0051,0.0022,-0.0298,0.0099,-0.0678,-3.2958,1.8473,8.9827,-0.0000,0.0001,0.0000,1.0000,-0.0824,0.0462,0.2246
7257,Left,2,0.0995,0.1405,-0.7811,0.6002,0.0080,0.0007,0.0018,0.0002,-0.0009,-0.1094,-3.1455,-0.9693,9.1280,0.0001,0.0000,0.0000,1.0000,-0.0786,-0.0243,0.2282
7257,Pelvis,2,0.5464,0.3565,0.5908,-0.4747,0.0758,-0.0867,0.0131,-0.1321,-0.0423,-0.0056,9.6502,-1.0686,1.3888,0.0009,-0.0011,0.0002,1.0000,0.2412,-0.0267,0.0350
7258,Right,2,0.1702,-0.1036,-0.9792,-0.0376,-0.0057,0.0090,0.0020,-0.0205,0.0538,-0.0233,-3.3179,1.8109,9.0304,-0.0001,0.0001,0.0000,1.0000,-0.0829,0.0453,0.2258
7259,Right,2,0.1701,-0.1036,-0.9792,-0.0376,0.0054,0.0034,0.0058,0.0049,0.0402,-0.0055,-3.3479,1.8249,9.0356,0.0001,0.0000,0.0001,1.0000,-0.0837,0.0456,0.2259
7259,Left,2,0.0995,0.1405,-0.7811,0.6002,0.0148,0.0061,0.0041,-0.0006,-0.0016,-0.0741,-3.1563,-0.9717,9.1616,0.0004,0.0002,0.0001,1.0000,-0.1577,-0.0488,0.4581
7259,Pelvis,2,0.5468,0.3588,0.5884,-0.4755,0.1017,-0.0943,0.0212,-0.0936,-0.0485,0.0193,9.6818,-1.0343,1.3684,0.0025,-0.0024,0.0005,1.0000,0.4840,-0.0516,0.0694
7260,Right,2,0.1701,-0.1038,-0.9792,-0.0376,0.0106,-0.0006,0.0062,-0.0177,0.0416,-0.0314,-3.3167,1.8228,9.0195,0.0001,-0.0000,0.0001,1.0000,-0.0829,0.0455,0.2255
7260,Left,2,0.0996,0.1404,-0.7811,0.6002,0.0139,0.0050,0.0033,0.0005,0.0240,-0.0649,-3.1821,-0.9777,9.1618,0.0002,0.0001,0.0000,1.0000,-0.0795,-0.0245,0.2290
7260,Pelvis,2,0.5470,0.3602,0.5870,-0.4759,0.1217,-0.1081,0.0201,-0.0712,-0.0059,-0.0959,9.5668,-1.0158,1.3660,0.0015,-0.0014,0.0003,1.0000,0.2391,-0.0254,0.0344
7261,Right,2,0.1700,-0.1038,-0.9793,-0.0374,0.0063,0.0009,0.0077,-0.0161,0.0522,-0.0232,-3.3189,1.8160,9.0290,0.0001,0.0000,0.0001,1.0000,-0.0830,0.0454,0.2257
7261,Left,2,0.0996,0.1403,-0.7812,0.6001,0.0202,0.0052,0.0031,-0.0094,-0.0298,-0.0847,-3.1240,-0.9712,9.1615,0.0003,0.0001,0.0000,1.0000,-0.0781,-0.0243,0.2290
7261,Pelvis,2,0.5472,0.3619,0.5854,-0.4764,0.1389,-0.1293,0.0169,-0.0737,0.0165,-0.0765,9.5857,-1.0263,1.3635,0.0017,-0.0016,0.0002,1.0000,0.2396,-0.0257,0.0344
7262,Right,2,0.1700,-0.1038,-0.9793,-0.0372,0.0046,0.0035,0.0082,-0.0101,0.0196,-0.0266,-3.3237,1.8478,9.0170,0.0001,0.0000,0.0001,1.0000,-0.0831,0.0462,0.2254
7262,Left,2,0.0998,0.1402,-0.7812,0.6001,0.0259,0.0140,0.0055,-0.0089,-0.0131,-0.1127,-3.1311,-0.9691,9.1295,0.0003,0.0002,0.0001,1.0000,-0.0782,-0.0243,0.2282
7262,Pelvis,2,0.5472,0.3638,0.5836,-0.4770,0.1683,-0.1296,0.0143,-0.0774,0.0607,-0.0475,9.6111,-1.0436,1.3806,0.0021,-0.0016,0.0002,1.0000,0.2402,-0.0261,0.0349
7263,Right,2,0.1700,-0.1037,-0.9793,-0.0370,-0.0043,0.0046,0.0046,-0.0074,0.0280,-0.0279,-3.3255,1.8387,9.0169,-0.0001,0.0001,0.0001,1.0000,-0.0831,0.0460,0.2254
7263,Left,2,0.1001,0.1402,-0.7812,0.6001,0.0293,0.0207,0.0069,-0.0114,0.0069,-0.1045,-3.1540,-0.9733,9.1298,0.0004,0.0003,0.0001,1.0000,-0.0788,-0.0244,0.2283
7263,Pelvis,2,0.5471,0.3659,0.5818,-0.4778,0.1915,-0.1350,0.0110,-0.0905,0.0439,-0.0492,9.6156,-1.0480,1.3330,0.0024,-0.0017,0.0001,1.0000,0.2403,-0.0262,0.0337
7264,Right,2,0.1700,-0.1036,-0.9793,-0.0369,-0.0058,0.0072,0.0026,-0.0338,0.0219,-0.0431,-3.2954,1.8435,9.0104,-0.0001,0.0001,0.0000,1.0000,-0.0824,0.0461,0.2253
7264,Left,2,0.1004,0.1401,-0.7812,0.6001,0.0322,0.0224,0.0087,-0.0029,-0.0160,-0.0913,-3.1434,-0.9560,9.1494,0.0004,0.0003,0.0001,1.0000,-0.0785,-0.0240,0.2287
7264,Pelvis,2,0.5470,0.3682,0.5798,-0.4786,0.2113,-0.1384,0.0116,-0.0254,-0.0083,-0.0109,9.6694,-0.9711,1.2789,0.0026,-0.0017,0.0001,1.0000,0.2417,-0.0243,0.0323
7265,Right,2,0.1701,-0.1035,-0.9793,-0.0370,-0.0118,0.0100,0.0028,-0.0026,0.0142,-0.0454,-3.3248,1.8450,8.9967,-0.0001,0.0001,0.0000,1.0000,-0.0831,0.0462,0.2249
7265,Left,2,0.1008,0.1400,-0.7812,0.6000,0.0367,0.0271,0.0062,-0.0054,0.0083,-0.1045,-3.1650,-0.9572,9.1278,0.0005,0.0003,0.0001,1.0000,-0.0790,-0.0240,0.2282
7265,Pelvis,2,0.5466,0.3704,0.5779,-0.4796,0.2199,-0.1189,0.0117,0.0816,-0.0608,0.0430,9.7405,-0.8555,1.2394,0.0027,-0.0015,0.0001,1.0000,0.2435,-0.0214,0.0313
7266,Right,2,0.1701,-0.1033,-0.9793,-0.0371,-0.0201,0.0130,0.0010,-0.0272,0.0285,-0.0537,-3.2998,1.8282,9.0005,-0.0003,0.0002,0.0000,1.0000,-0.0825,0.0458,0.2250
7266,Left,2,0.1014,0.1398,-0.7811,0.6000,0.0513,0.0319,0.0084,-0.0064,0.0156,-0.1344,-3.1670,-0.9492,9.0961,0.0006,0.0004,0.0001,1.0000,-0.0791,-0.0239,0.2274
7266,Pelvis,2,0.5463,0.3727,0.5760,-0.4806,0.2125,-0.1239,0.0089,0.1002,-0.0734,0.0357,9.7398,-0.8294,1.2060,0.0027,-0.0015,0.0001,1.0000,0.2434,-0.0208,0.0305
7267,Right,2,0.1703,-0.1029,-0.9793,-0.0373,-0.0303,0.0173,0.0021,-0.0139,0.0182,-0.0290,-3.3235,1.8355,9.0170,-0.0004,0.0002,0.0000,1.0000,-0.0830,0.0460,0.2254
7267,Left,2,0.1020,0.1395,-0.7811,0.6000,0.0578,0.0299,0.0068,0.0103,0.0104,-0.0642,-3.1953,-0.9281,9.1630,0.0007,0.0004,0.0001,1.0000,-0.0798,-0.0234,0.2291
7267,Pelvis,2,0.5459,0.3747,0.5742,-0.4815,0.2033,-0.1130,0.0151,0.1711,-0.0863,-0.0336,9.6808,-0.7478,1.1791,0.0025,-0.0014,0.0002,1.0000,0.2420,-0.0187,0.0298
7268,Right,2,0.1704,-0.1025,-0.9793,-0.0373,-0.0320,0.0168,0.0002,-0.0054,0.0286,-0.0090,-3.3406,1.8209,9.0353,-0.0004,0.0002,0.0000,1.0000,-0.0835,0.0456,0.2259
7268,Left,2,0.1024,0.1394,-0.7811,0.6000,0.0364,0.0229,0.0040,0.0398,0.0471,0.0899,-3.2914,-0.9146,9.2949,0.0005,0.0003,0.0000,1.0000,-0.0822,-0.0230,0.2324
7268,Pelvis,2,0.5457,0.3765,0.5725,-0.4824,0.1839,-0.1081,0.0231,0.2131,-0.0117,-0.0476,9.6618,-0.7237,1.2361,0.0023,-0.0014,0.0003,1.0000,0.2415,-0.0181,0.0312
7269,Right,2,0.1705,-0.1023,-0.9793,-0.0375,-0.0207,0.0124,0.0009,-0.0018,0.0597,0.0062,-3.3501,1.7867,9.0553,-0.0003,0.0002,0.0000,1.0000,-0.0837,0.0447,0.2264
7269,Left,2,0.1022,0.1395,-0.7811,0.6000,-0.0002,0.0034,0.0011,0.0072,0.0262,0.0231,-3.2439,-0.9331,9.2385,-0.0000,0.0000,0.0000,1.0000,-0.0811,-0.0233,0.2310
7269,Pelvis,2,0.5456,0.3781,0.5709,-0.4832,0.1641,-0.0974,0.0238,0.1586,0.0240,0.0633,9.7658,-0.7959,1.2473,0.0021,-0.0012,0.0003,1.0000,0.2441,-0.0199,0.0314
7270,Right,2,0.1706,-0.1021,-0.9793,-0.0377,-0.0159,0.0115,0.0013,0.0044,0.0384,0.0109,-3.3598,1.8032,9.0534,-0.0002,0.0001,0.0000,1.0000,-0.0840,0.0451,0.2263
7270,Left,2,0.1021,0.1397,-0.7811,0.6000,-0.0072,0.0067,0.0005,-0.0182,-0.0269,-0.0900,-3.1518,-0.9376,9.1498,-0.0001,0.0001,0.0000,1.0000,-0.0788,-0.0234,0.2288
7270,Pelvis,2,0.5454,0.3795,0.5695,-0.4839,0.1492,-0.0811,0.0185,0.1770,0.0812,0.1249,9.8224,-0.7982,1.2949,0.0019,-0.0010,0.0002,1.0000,0.2455,-0.0200,0.0326
7271,Right,2,0.1707,-0.1020,-0.9793,-0.0377,-0.0117,0.0094,0.0010,-0.0211,0.0192,-0.0219,-3.3271,1.8148,9.0275,-0.0001,0.0001,0.0000,1.0000,-0.0832,0.0454,0.2257
7271,Left,2,0.1021,0.1398,-0.7810,0.6000,0.0070,0.0130,0.0010,-0.0393,-0.0112,-0.0962,-3.1594,-0.9641,9.1379,0.0001,0.0002,0.0000,1.0000,-0.0789,-0.0241,0.2285
7271,Pelvis,2,0.5452,0.3808,0.5684,-0.4844,0.1169,-0.0733,0.0068,0.2137,0.1165,0.0510,9.7491,-0.7631,1.3127,0.0015,-0.0009,0.0001,1.0000,0.2437,-0.0191,0.0330
7272,Right,2,0.1707,-0.1018,-0.9793,-0.0378,-0.0117,0.0087,0.0004,-0.0043,0.0561,-0.0150,-3.3450,1.7750,9.0365,-0.0001,0.0001,0.0000,1.0000,-0.0836,0.0444,0.2259
7272,Left,2,0.1023,0.1398,-0.7810,0.6001,0.0194,0.0179,0.0073,-0.0103,-0.0119,-0.1096,-3.1641,-0.9341,9.1250,0.0002,0.0002,0.0001,1.0000,-0.0790,-0.0234,0.2281
7272,Pelvis,2,0.5455,0.3819,0.5674,-0.4844,0.0768,-0.0951,-0.0010,0.2324,0.0558,-0.0253,9.6858,-0.7205,1.2311,0.0010,-0.0012,-0.0000,1.0000,0.2421,-0.0180,0.0310
7273,Right,2,0.1708,-0.1017,-0.9793,-0.0379,-0.0105,0.0099,0.0022,0.0017,0.0458,-0.0020,-3.3566,1.7839,9.0444,-0.0001,0.0001,0.0000,1.0000,-0.0839,0.0446,0.2261
7273,Left,2,0.1026,0.1398,-0.7809,0.6001,0.0255,0.0218,0.0070,-0.0100,0.0271,-0.0977,-3.2069,-0.9414,9.1221,0.0003,0.0003,0.0001,1.0000,-0.0801,-0.0236,0.2281
7274,Right,2,0.1708,-0.1016,-0.9793,-0.0381,-0.0112,0.0093,0.0022,-0.0062,0.0361,-0.0126,-3.3466,1.7897,9.0355,-0.0001,0.0001,0.0000,1.0000,-0.0836,0.0448,0.2259
7274,Left,2,0.1029,0.1397,-0.7809,0.6001,0.0317,0.0223,0.0081,0.0014,-0.0034,-0.0993,-3.1854,-0.9184,9.1302,0.0004,0.0003,0.0001,1.0000,-0.0796,-0.0231,0.2283
7274,Pelvis,2,0.5463,0.3836,0.5659,-0.4839,0.0362,-0.0894,-0.0057,0.2187,-0.0440,-0.0419,9.6859,-0.7045,1.0975,0.0009,-0.0022,-0.0001,1.0000,0.4842,-0.0353,0.0559
7275,Right,2,0.1709,-0.1013,-0.9793,-0.0378,-0.0148,0.0089,0.0014,-0.0157,0.0323,-0.0549,-3.3244,1.7831,8.9992,-0.0002,0.0001,0.0000,1.0000,-0.0831,0.0446,0.2250
7275,Left,2,0.1033,0.1396,-0.7809,0.6000,0.0356,0.0238,0.0056,0.0119,0.0139,-0.0871,-3.2118,-0.9083,9.1350,0.0004,0.0003,0.0001,1.0000,-0.0802,-0.0228,0.2284
7276,Right,2,0.1709,-0.1011,-0.9794,-0.0378,-0.0216,0.0088,0.0015,-0.0094,0.0331,-0.0337,-3.3384,1.7811,9.0173,-0.0003,0.0001,0.0000,1.0000,-0.0834,0.0446,0.2254
7277,Right,2,0.1710,-0.1007,-0.9794,-0.0377,-0.0268,0.0128,0.0005,-0.0159,0.0214,-0.0537,-3.3275,1.7835,8.9992,-0.0003,0.0002,0.0000,1.0000,-0.0832,0.0447,0.2250
7277,Left,2,0.1040,0.1392,-0.7810,0.5999,0.0409,0.0207,0.0036,-0.0088,0.0015,-0.0786,-3.2041,-0.9151,9.1459,0.0010,0.0005,0.0001,1.0000,-0.1600,-0.0462,0.4573
7278,Right,2,0.1712,-0.1003,-0.9794,-0.0375,-0.0296,0.0154,-0.0015,-0.0168,0.0223,-0.0443,-3.3319,1.7774,9.0090,-0.0004,0.0002,-0.0000,1.0000,-0.0833,0.0445,0.2252
7278,Left,2,0.1043,0.1391,-0.7810,0.5998,0.0358,0.0206,0.0050,-0.0049,0.0132,-0.0522,-3.2289,-0.9082,9.1661,0.0004,0.0003,0.0001,1.0000,-0.0807,-0.0228,0.2292
7279,Right,2,0.1713,-0.1000,-0.9794,-0.0376,-0.0251,0.0169,-0.0018,-0.0155,0.0328,-0.0361,-3.3381,1.7617,9.0187,-0.0003,0.0002,-0.0000,1.0000,-0.0834,0.0441,0.2255
7279,Left,2,0.1047,0.1389,-0.7810,0.5998,0.0383,0.0183,0.0057,-0.0006,-0.0074,-0.0474,-3.2160,-0.8933,9.1771,0.0005,0.0002,0.0001,1.0000,-0.0803,-0.0224,0.2294
7280,Right,2,0.1715,-0.0998,-0.9794,-0.0376,-0.0172,0.0195,0.0005,0.0113,0.0282,-0.0196,-3.3723,1.7610,9.0239,-0.0002,0.0002,0.0000,1.0000,-0.0843,0.0441,0.2256
7280,Left,2,0.1049,0.1388,-0.7810,0.5998,0.0278,0.0176,0.0043,0.0040,0.0028,-0.0455,-3.2299,-0.8864,9.1749,0.0003,0.0002,0.0001,1.0000,-0.0807,-0.0222,0.2294
7281,Right,2,0.1717,-0.0996,-0.9794,-0.0376,-0.0136,0.0168,-0.0005,0.0011,0.0310,-0.0126,-3.3681,1.7566,9.0340,-0.0002,0.0002,-0.0000,1.0000,-0.0842,0.0440,0.2259
7281,Left,2,0.1051,0.1388,-0.7810,0.5998,0.0254,0.0151,0.0047,-0.0101,0.0086,-0.0580,-3.2298,-0.8966,9.1607,0.0003,0.0002,0.0001,1.0000,-0.0807,-0.0225,0.2290
7282,Right,2,0.1718,-0.0994,-0.9794,-0.0375,-0.0113,0.0155,0.0009,0.0025,0.0415,-0.0043,-3.3742,1.7444,9.0431,-0.0001,0.0002,0.0000,1.0000,-0.0843,0.0436,0.2261
7282,Left,2,0.1053,0.1387,-0.7810,0.5998,0.0235,0.0138,0.0048,-0.0013,0.0164,-0.0477,-3.2446,-0.8877,9.1674,0.0003,0.0002,0.0001,1.0000,-0.0811,-0.0223,0.2292
7283,Right,2,0.1719,-0.0994,-0.9794,-0.0377,-0.0073,0.0128,0.0018,-0.0100,0.0350,0.0039,-3.3678,1.7511,9.0531,-0.0001,0.0002,0.0000,1.0000,-0.0842,0.0438,0.2263
7283,Left,2,0.1054,0.1386,-0.7810,0.5998,0.0218,0.0111,0.0040,0.0146,0.0144,-0.0437,-3.2497,-0.8694,9.1715,0.0003,0.0001,0.0000,1.0000,-0.0812,-0.0218,0.2293
7284,Right,2,0.1720,-0.0992,-0.9794,-0.0375,-0.0045,0.0089,0.0027,0.0024,0.0307,-0.0031,-3.3785,1.7509,9.0415,-0.0001,0.0001,0.0000,1.0000,-0.0844,0.0438,0.2260
7284,Left,2,0.1054,0.1386,-0.7810,0.5998,0.0132,0.0087,0.0031,-0.0039,0.0183,-0.0431,-3.2496,-0.8868,9.1705,0.0002,0.0001,0.0000,1.0000,-0.0812,-0.0222,0.2293
7284,Pelvis,2,0.5535,0.3840,0.5637,-0.4780,-0.0425,-0.0604,0.0027,0.0617,0.0260,0.0196,9.7381,-0.8851,1.0326,-0.0053,-0.0076,0.0003,1.0000,2.4326,-0.2190,0.2777
7285,Right,2,0.1720,-0.0992,-0.9794,-0.0375,-0.0024,0.0070,0.0053,-0.0087,0.0399,-0.0278,-3.3596,1.7377,9.0243,-0.0000,0.0001,0.0001,1.0000,-0.0840,0.0434,0.2256
7285,Left,2,0.1055,0.1386,-0.7810,0.5998,0.0150,0.0078,0.0047,0.0078,-0.0080,-0.0662,-3.2216,-0.8664,9.1578,0.0002,0.0001,0.0001,1.0000,-0.0805,-0.0217,0.2289
7286,Right,2,0.1720,-0.0992,-0.9794,-0.0376,-0.0009,0.0074,0.0029,-0.0094,0.0410,-0.0184,-3.3623,1.7380,9.0335,-0.0000,0.0001,0.0000,1.0000,-0.0840,0.0434,0.2258
7286,Left,2,0.1055,0.1386,-0.7810,0.5998,0.0145,0.0074,0.0028,-0.0050,0.0073,-0.0767,-3.2291,-0.8805,9.1426,0.0002,0.0001,0.0000,1.0000,-0.0807,-0.0221,0.2286
7287,Right,2,0.1721,-0.0992,-0.9794,-0.0377,0.0016,0.0098,0.0043,-0.0372,0.0015,-0.0583,-3.3251,1.7722,8.9974,0.0000,0.0001,0.0001,1.0000,-0.0831,0.0443,0.2249
7287,Left,2,0.1056,0.1386,-0.7810,0.5998,0.0151,0.0082,0.0033,-0.0133,0.0202,-0.0788,-3.2384,-0.8907,9.1361,0.0002,0.0001,0.0000,1.0000,-0.0809,-0.0223,0.2284
7288,Right,2,0.1723,-0.0992,-0.9793,-0.0374,0.0003,0.0227,-0.0002,-0.0368,0.0181,-0.0818,-3.3191,1.7513,8.9782,0.0000,0.0003,-0.0000,1.0000,-0.0829,0.0438,0.2245
7288,Left,2,0.1056,0.1385,-0.7810,0.5998,0.0157,0.0070,0.0037,-0.0075,0.0091,-0.0722,-3.2325,-0.8819,9.1461,0.0002,0.0001,0.0000,1.0000,-0.0808,-0.0221,0.2287
7288,Pelvis,2,0.5549,0.3825,0.5648,-0.4762,-0.0574,-0.0005,-0.0022,0.0184,0.0095,0.0444,9.7694,-0.9335,0.9215,-0.0029,-0.0000,-0.0001,1.0000,0.9769,-0.0932,0.0924
7289,Right,2,0.1725,-0.0992,-0.9793,-0.0375,0.0023,0.0256,-0.0007,0.0008,0.0386,-0.0067,-3.3840,1.7406,9.0376,0.0000,0.0003,-0.0000,1.0000,-0.0845,0.0435,0.2260
7289,Left,2,0.1057,0.1385,-0.7810,0.5998,0.0163,0.0078,0.0042,0.0113,-0.0048,-0.0617,-3.2285,-0.8601,9.1607,0.0002,0.0001,0.0001,1.0000,-0.0807,-0.0216,0.2290
7289,Pelvis,2,0.5551,0.3821,0.5651,-0.4759,-0.0528,0.0121,-0.0004,0.0017,0.0314,0.0126,9.7345,-0.9535,0.9311,-0.0007,0.0002,-0.0000,1.0000,0.2434,-0.0238,0.0233
7290,Right,2,0.1728,-0.0992,-0.9792,-0.0376,0.0044,0.0212,0.0007,0.0171,0.0420,-0.0243,-3.3976,1.7323,9.0149,0.0001,0.0003,0.0000,1.0000,-0.0849,0.0433,0.2254
7290,Left,2,0.1057,0.1385,-0.7810,0.5998,0.0158,0.0075,0.0029,0.0014,-0.0013,-0.0656,-3.2283,-0.8690,9.1558,0.0002,0.0001,0.0000,1.0000,-0.0807,-0.0218,0.2289
7291,Right,2,0.1729,-0.0993,-0.9792,-0.0378,0.0034,0.0170,0.0019,-0.0070,0.0500,-0.0008,-3.3865,1.7317,9.0448,0.0000,0.0002,0.0000,1.0000,-0.0846,0.0433,0.2261
7291,Left,2,0.1058,0.1384,-0.7809,0.5998,0.0153,0.0066,0.0018,-0.0070,0.0116,-0.0677,-3.2374,-0.8791,9.1494,0.0002,0.0001,0.0000,1.0000,-0.0809,-0.0220,0.2287
7291,Pelvis,2,0.5557,0.3811,0.5658,-0.4753,-0.0552,0.0124,0.0064,0.0197,0.0406,0.0101,9.7317,-0.9415,0.9464,-0.0014,0.0003,0.0002,1.0000,0.4866,-0.0469,0.0472
7292,Right,2,0.1730,-0.0994,-0.9792,-0.0378,0.0061,0.0119,0.0033,-0.0273,0.0501,-0.0360,-3.3570,1.7283,9.0183,0.0001,0.0001,0.0000,1.0000,-0.0839,0.0432,0.2255
7292,Left,2,0.1058,0.1384,-0.7810,0.5998,0.0157,0.0082,0.0034,-0.0140,0.0034,-0.0650,-3.2293,-0.8832,9.1548,0.0002,0.0001,0.0000,1.0000,-0.0807,-0.0221,0.2289
7292,Pelvis,2,0.5560,0.3806,0.5661,-0.4749,-0.0606,0.0087,0.0060,0.0116,0.0373,0.0040,9.7251,-0.9518,0.9417,-0.0008,0.0001,0.0001,1.0000,0.2431,-0.0238,0.0235
7293,Right,2,0.1731,-0.0995,-0.9791,-0.0378,0.0095,0.0184,0.0047,-0.0273,0.0159,-0.0606,-3.3525,1.7585,8.9873,0.0001,0.0002,0.0001,1.0000,-0.0838,0.0439,0.2247
7293,Left,2,0.1058,0.1384,-0.7809,0.5999,0.0146,0.0056,0.0032,-0.0109,0.0040,-0.0650,-3.2309,-0.8794,9.1546,0.0002,0.0001,0.0000,1.0000,-0.0808,-0.0220,0.2289
7293,Pelvis,2,0.5564,0.3801,0.5664,-0.4745,-0.0587,0.0058,0.0030,-0.0001,0.0423,-0.0074,9.7121,-0.9656,0.9421,-0.0007,0.0001,0.0000,1.0000,0.2428,-0.0241,0.0236
7294,Right,2,0.1734,-0.0996,-0.9791,-0.0379,0.0121,0.0280,0.0017,-0.0266,0.0041,-0.0688,-3.3550,1.7706,8.9751,0.0002,0.0004,0.0000,1.0000,-0.0838,0.0442,0.2244
7294,Left,2,0.1059,0.1383,-0.7809,0.5999,0.0150,0.0072,0.0048,-0.0166,0.0052,-0.0604,-3.2322,-0.8846,9.1585,0.0002,0.0001,0.0001,1.0000,-0.0808,-0.0222,0.2290
7294,Pelvis,2,0.5567,0.3797,0.5667,-0.4742,-0.0557,0.0056,0.0059,-0.0085,0.0298,0.0211,9.7410,-0.9754,0.9299,-0.0007,0.0001,0.0001,1.0000,0.2435,-0.0244,0.0232
7295,Right,2,0.1738,-0.0997,-0.9790,-0.0375,0.0120,0.0335,-0.0002,0.0083,0.0434,-0.0078,-3.4133,1.7415,9.0252,0.0002,0.0004,-0.0000,1.0000,-0.0852,0.0435,0.2257
7295,Left,2,0.1059,0.1383,-0.7809,0.5998,0.0171,0.0063,0.0033,0.0125,0.0044,-0.0741,-3.2347,-0.8540,9.1460,0.0002,0.0001,0.0000,1.0000,-0.0808,-0.0214,0.2287
7295,Pelvis,2,0.5570,0.3792,0.5670,-0.4739,-0.0510,0.0132,0.0053,0.0087,0.0172,0.0234,9.7457,-0.9582,0.9232,-0.0006,0.0002,0.0001,1.0000,0.2436,-0.0239,0.0231
7296,Right,2,0.1740,-0.0998,-0.9789,-0.0376,0.0102,0.0251,0.0010,0.0125,0.0458,0.0227,-3.4334,1.7462,9.0498,0.0001,0.0003,0.0000,1.0000,-0.0858,0.0436,0.2263
7296,Left,2,0.1060,0.1382,-0.7809,0.5999,0.0156,0.0068,0.0056,-0.0032,-0.0034,-0.0668,-3.2261,-0.8666,9.1555,0.0002,0.0001,0.0001,1.0000,-0.0806,-0.0217,0.2289
7296,Pelvis,2,0.5572,0.3788,0.5672,-0.4736,-0.0447,0.0138,0.0044,0.0415,0.0000,0.0082,9.7345,-0.9228,0.9159,-0.0006,0.0002,0.0001,1.0000,0.2434,-0.0230,0.0229
7297,Right,2,0.1742,-0.0999,-0.9789,-0.0377,0.0089,0.0179,0.0041,0.0041,0.0360,0.0122,-3.4260,1.7567,9.0391,0.0001,0.0002,0.0001,1.0000,-0.0856,0.0439,0.2260
7297,Left,2,0.1060,0.1382,-0.7809,0.5999,0.0153,0.0066,0.0018,0.0055,0.0086,-0.0780,-3.2358,-0.8590,9.1409,0.0002,0.0001,0.0000,1.0000,-0.0809,-0.0215,0.2285
7297,Pelvis,2,0.5574,0.3783,0.5675,-0.4734,-0.0451,0.0137,0.0078,0.0863,0.0439,0.0043,9.7283,-0.8934,0.9717,-0.0006,0.0002,0.0001,1.0000,0.2432,-0.0223,0.0243
7298,Right,2,0.1742,-0.1000,-0.9789,-0.0376,0.0053,0.0114,0.0045,-0.0018,0.0356,0.0004,-3.4182,1.7571,9.0293,0.0001,0.0001,0.0001,1.0000,-0.0854,0.0439,0.2257
7298,Left,2,0.1060,0.1382,-0.7809,0.5999,0.0132,0.0075,0.0033,-0.0101,0.0008,-0.0707,-3.2273,-0.8722,9.1504,0.0002,0.0001,0.0000,1.0000,-0.0807,-0.0218,0.2288
7298,Pelvis,2,0.5577,0.3779,0.5678,-0.4731,-0.0466,0.0071,0.0017,0.0979,0.0400,0.0157,9.7406,-0.8845,0.9732,-0.0006,0.0001,0.0000,1.0000,0.2435,-0.0221,0.0243
7299,Right,2,0.1743,-0.1000,-0.9789,-0.0377,0.0033,0.0090,0.0044,-0.0080,0.0352,-0.0113,-3.4093,1.7569,9.0199,0.0000,0.0001,0.0001,1.0000,-0.0852,0.0439,0.2255
7299,Left,2,0.1061,0.1382,-0.7809,0.5999,0.0126,0.0070,0.0040,-0.0157,0.0020,-0.0661,-3.2288,-0.8778,9.1543,0.0002,0.0001,0.0001,1.0000,-0.0807,-0.0220,0.2289
7299,Pelvis,2,0.5579,0.3776,0.5680,-0.4728,-0.0444,0.0062,-0.0013,0.0756,0.0581,-0.0464,9.6753,-0.9056,0.9787,-0.0006,0.0001,-0.0000,1.0000,0.2419,-0.0226,0.0245
7300,Right,2,0.1743,-0.1001,-0.9789,-0.0378,0.0016,0.0091,0.0037,0.0021,0.0215,-0.0172,-3.4182,1.7684,9.0078,0.0000,0.0001,0.0000,1.0000,-0.0854,0.0442,0.2252
7301,Right,2,0.1743,-0.1000,-0.9789,-0.0377,-0.0005,0.0062,0.0048,0.0013,0.0335,0.0005,-3.4237,1.7599,9.0266,-0.0000,0.0001,0.0001,1.0000,-0.0856,0.0440,0.2257
7301,Left,2,0.1061,0.1382,-0.7809,0.5999,0.0126,0.0075,0.0036,-0.0019,0.0031,-0.0772,-3.2309,-0.8617,9.1432,0.0003,0.0002,0.0001,1.0000,-0.1615,-0.0432,0.4572
7301,Pelvis,2,0.5585,0.3771,0.5683,-0.4721,-0.0395,-0.0082,-0.0022,0.0109,0.0394,-0.0256,9.6938,-0.9652,0.9417,-0.0010,-0.0002,-0.0001,1.0000,0.4847,-0.0482,0.0472
7302,Right,2,0.1743,-0.1000,-0.9789,-0.0378,0.0006,0.0031,0.0037,-0.0072,0.0237,-0.0101,-3.4123,1.7683,9.0178,0.0000,0.0000,0.0000,1.0000,-0.0853,0.0442,0.2254
7302,Left,2,0.1061,0.1382,-0.7809,0.5999,0.0121,0.0073,0.0026,0.0037,0.0130,-0.0689,-3.2439,-0.8605,9.1476,0.0002,0.0001,0.0000,1.0000,-0.0811,-0.0215,0.2287
7302,Pelvis,2,0.5588,0.3770,0.5684,-0.4718,-0.0276,-0.0121,0.0017,-0.0266,0.0124,-0.0109,9.7094,-0.9959,0.9009,-0.0003,-0.0002,0.0000,1.0000,0.2427,-0.0249,0.0226
7303,Right,2,0.1743,-0.1000,-0.9789,-0.0379,-0.0007,0.0032,0.0036,0.0087,0.0337,-0.0595,-3.4088,1.7477,8.9695,-0.0000,0.0000,0.0000,1.0000,-0.0852,0.0437,0.2242
7303,Left,2,0.1061,0.1382,-0.7809,0.5999,0.0108,0.0060,0.0028,-0.0078,0.0071,-0.0746,-3.2338,-0.8695,9.1443,0.0001,0.0001,0.0000,1.0000,-0.0808,-0.0218,0.2286
7303,Pelvis,2,0.5590,0.3770,0.5683,-0.4716,-0.0159,-0.0173,0.0027,0.0109,0.0520,-0.0256,9.6932,-0.9701,0.9433,-0.0002,-0.0002,0.0000,1.0000,0.2423,-0.0242,0.0236
7304,Right,2,0.1742,-0.1000,-0.9789,-0.0380,-0.0009,0.0020,0.0060,-0.0115,0.0230,-0.0218,-3.4023,1.7673,9.0090,-0.0000,0.0000,0.0001,1.0000,-0.0851,0.0442,0.2252
7304,Left,2,0.1061,0.1382,-0.7809,0.5999,0.0108,0.0067,0.0033,-0.0007,0.0055,-0.0661,-3.2372,-0.8628,9.1527,0.0001,0.0001,0.0000,1.0000,-0.0809,-0.0216,0.2288
7304,Pelvis,2,0.5593,0.3770,0.5682,-0.4713,-0.0173,-0.0244,0.0006,0.0151,0.0437,-0.0250,9.6956,-0.9645,0.9307,-0.0002,-0.0003,0.0000,1.0000,0.2424,-0.0241,0.0233
7305,Right,2,0.1741,-0.1001,-0.9789,-0.0382,0.0010,0.0025,0.0062,0.0198,0.0372,-0.0078,-3.4352,1.7526,9.0147,0.0000,0.0000,0.0001,1.0000,-0.0859,0.0438,0.2254
7305,Left,2,0.1061,0.1382,-0.7808,0.5999,0.0096,0.0060,0.0027,0.0066,0.0040,-0.0577,-3.2405,-0.8562,9.1611,0.0001,0.0001,0.0000,1.0000,-0.0810,-0.0214,0.2290
7305,Pelvis,2,0.5596,0.3770,0.5681,-0.4711,-0.0160,-0.0250,0.0004,0.0357,0.0878,-0.0125,9.7051,-0.9583,0.9729,-0.0002,-0.0003,0.0000,1.0000,0.2426,-0.0240,0.0244
7306,Right,2,0.1740,-0.1002,-0.9789,-0.0384,0.0059,-0.0052,0.0078,0.0189,0.0383,0.0016,-3.4359,1.7543,9.0243,0.0001,-0.0001,0.0001,1.0000,-0.0859,0.0438,0.2256
7306,Left,2,0.1061,0.1382,-0.7808,0.6000,0.0071,0.0048,0.0034,-0.0005,-0.0044,-0.0549,-3.2319,-0.8619,9.1665,0.0001,0.0001,0.0000,1.0000,-0.0808,-0.0216,0.2292
7306,Pelvis,2,0.5600,0.3772,0.5679,-0.4708,-0.0137,-0.0370,0.0009,0.0414,0.1014,-0.0216,9.6957,-0.9560,0.9782,-0.0002,-0.0005,0.0000,1.0000,0.2424,-0.0239,0.0246
7307,Right,2,0.1738,-0.1003,-0.9789,-0.0385,0.0038,-0.0088,0.0071,-0.0136,0.0418,-0.0265,-3.3930,1.7503,9.0109,0.0000,-0.0001,0.0001,1.0000,-0.0849,0.0437,0.2253
7307,Left,2,0.1060,0.1383,-0.7807,0.6001,0.0046,0.0052,0.0030,-0.0047,0.0104,-0.0700,-3.2391,-0.8693,9.1473,0.0001,0.0001,0.0000,1.0000,-0.0810,-0.0217,0.2287
7307,Pelvis,2,0.5604,0.3773,0.5676,-0.4705,-0.0119,-0.0458,0.0009,0.0373,0.0801,0.0075,9.7276,-0.9574,0.9485,-0.0001,-0.0006,0.0000,1.0000,0.2432,-0.0239,0.0239
7308,Right,2,0.1736,-0.1003,-0.9790,-0.0382,0.0035,-0.0111,0.0102,-0.0070,0.0315,-0.0136,-3.4000,1.7631,9.0197,0.0000,-0.0001,0.0001,1.0000,-0.0850,0.0441,0.2255
7308,Left,2,0.1059,0.1384,-0.7808,0.6000,0.0029,0.0029,0.0015,0.0014,-0.0007,-0.0634,-3.2323,-0.8633,9.1573,0.0000,0.0000,0.0000,1.0000,-0.0808,-0.0216,0.2289
7308,Pelvis,2,0.5608,0.3775,0.5673,-0.4701,-0.0099,-0.0484,0.0015,0.0483,0.0413,-0.0107,9.7159,-0.9349,0.9006,-0.0001,-0.0006,0.0000,1.0000,0.2429,-0.0234,0.0227
7309,Right,2,0.1734,-0.1003,-0.9790,-0.0381,0.0036,-0.0093,0.0096,0.0025,0.0285,-0.0113,-3.4069,1.7660,9.0190,0.0000,-0.0001,0.0001,1.0000,-0.0852,0.0441,0.2255
7309,Left,2,0.1058,0.1384,-0.7807,0.6001,0.0034,0.0026,0.0029,0.0031,-0.0054,-0.0866,-3.2200,-0.8605,9.1371,0.0000,0.0000,0.0000,1.0000,-0.0805,-0.0215,0.2284
7309,Pelvis,2,0.5613,0.3778,0.5670,-0.4698,-0.0098,-0.0517,0.0006,0.0684,0.0198,0.0020,9.7334,-0.9113,0.8740,-0.0001,-0.0006,0.0000,1.0000,0.2433,-0.0228,0.0220
7310,Right,2,0.1732,-0.1002,-0.9790,-0.0377,0.0064,-0.0144,0.0092,-0.0028,0.0215,0.0088,-3.4051,1.7783,9.0390,0.0001,-0.0002,0.0001,1.0000,-0.0852,0.0444,0.2260
7310,Left,2,0.1058,0.1385,-0.7808,0.6000,0.0064,0.0041,0.0034,-0.0036,0.0128,-0.0654,-3.2413,-0.8749,9.1509,0.0001,0.0001,0.0000,1.0000,-0.0810,-0.0219,0.2288
7310,Pelvis,2,0.5617,0.3780,0.5668,-0.4695,-0.0092,-0.0460,-0.0029,0.0369,-0.0143,0.0372,9.7709,-0.9353,0.8229,-0.0001,-0.0006,-0.0000,1.0000,0.2443,-0.0234,0.0207
7311,Right,2,0.1729,-0.1004,-0.9791,-0.0377,0.0116,-0.0191,0.0090,-0.0029,0.0272,-0.0230,-3.3887,1.7692,9.0125,0.0001,-0.0002,0.0001,1.0000,-0.0848,0.0442,0.2253
7311,Left,2,0.1057,0.1385,-0.7808,0.6001,0.0084,0.0035,0.0031,0.0297,0.0057,-0.0493,-3.2483,-0.8431,9.1686,0.0001,0.0000,0.0000,1.0000,-0.0812,-0.0211,0.2292
7311,Pelvis,2,0.5620,0.3781,0.5666,-0.4692,-0.0090,-0.0301,0.0006,0.0528,-0.0270,0.0493,9.7862,-0.9176,0.8062,-0.0001,-0.0004,0.0000,1.0000,0.2446,-0.0229,0.0203
7312,Right,2,0.1726,-0.1006,-0.9791,-0.0375,0.0206,-0.0209,0.0103,-0.0054,0.0409,0.0041,-3.3890,1.7649,9.0427,0.0003,-0.0003,0.0001,1.0000,-0.0848,0.0441,0.2261
7312,Left,2,0.1056,0.1385,-0.7808,0.6000,0.0024,-0.0008,0.0017,-0.0074,0.0011,-0.0412,-3.2362,-0.8801,9.1780,0.0000,-0.0000,0.0000,1.0000,-0.0809,-0.0220,0.2294
7312,Pelvis,2,0.5623,0.3782,0.5664,-0.4690,-0.0121,-0.0258,0.0035,0.0623,-0.0353,0.0112,9.7506,-0.9030,0.7902,-0.0002,-0.0003,0.0000,1.0000,0.2438,-0.0226,0.0198
7313,Right,2,0.1723,-0.1009,-0.9791,-0.0377,0.0257,-0.0181,0.0100,-0.0241,0.0284,-0.0487,-3.3475,1.7752,8.9988,0.0003,-0.0002,0.0001,1.0000,-0.0837,0.0443,0.2250
7313,Left,2,0.1055,0.1385,-0.7808,0.6000,0.0031,-0.0009,0.0011,0.0038,0.0096,-0.0887,-3.2295,-0.8689,9.1308,0.0000,-0.0000,0.0000,1.0000,-0.0807,-0.0217,0.2283
7313,Pelvis,2,0.5626,0.3782,0.5663,-0.4688,-0.0128,-0.0242,0.0067,0.0101,-0.0083,-0.0255,9.7080,-0.9580,0.7915,-0.0002,-0.0003,0.0001,1.0000,0.2427,-0.0239,0.0199
7314,Right,2,0.1720,-0.1012,-0.9792,-0.0377,0.0212,-0.0142,0.0084,-0.0097,0.0226,-0.0652,-3.3505,1.7818,8.9785,0.0003,-0.0002,0.0001,1.0000,-0.0838,0.0445,0.2245
7314,Left,2,0.1054,0.1386,-0.7808,0.6000,0.0049,0.0016,0.0007,-0.0089,-0.0100,-0.0747,-3.2117,-0.8796,9.1510,0.0001,0.0000,0.0000,1.0000,-0.0803,-0.0220,0.2288
7314,Pelvis,2,0.5629,0.3783,0.5661,-0.4687,-0.0066,-0.0313,0.0072,-0.0099,-0.0163,-0.0085,9.7247,-0.9784,0.7721,-0.0001,-0.0004,0.0001,1.0000,0.2431,-0.0244,0.0194
7315,Right,2,0.1718,-0.1013,-0.9792,-0.0379,0.0081,-0.0090,0.0074,-0.0219,0.0272,-0.0487,-3.3405,1.7852,8.9995,0.0001,-0.0001,0.0001,1.0000,-0.0835,0.0446,0.2250
7315,Left,2,0.1053,0.1386,-0.7808,0.6001,0.0079,0.0026,0.0020,-0.0016,-0.0116,-0.0662,-3.2140,-0.8740,9.1597,0.0001,0.0000,0.0000,1.0000,-0.0803,-0.0219,0.2290
7315,Pelvis,2,0.5632,0.3784,0.5658,-0.4685,-0.0013,-0.0389,0.0090,-0.0011,-0.0420,0.0223,9.7591,-0.9678,0.7434,-0.0000,-0.0005,0.0001,1.0000,0.2440,-0.0242,0.0187
7316,Right,2,0.1717,-0.1014,-0.9792,-0.0379,0.0054,-0.0046,0.0066,-0.0137,0.0372,-0.0288,-3.3522,1.7796,9.0179,0.0001,-0.0001,0.0001,1.0000,-0.0838,0.0445,0.2254
7316,Left,2,0.1053,0.1386,-0.7808,0.6001,0.0072,0.0033,0.0024,-0.0014,0.0009,-0.0729,-3.2225,-0.8771,9.1493,0.0001,0.0000,0.0000,1.0000,-0.0806,-0.0220,0.2287
7316,Pelvis,2,0.5636,0.3786,0.5654,-0.4684,0.0025,-0.0434,0.0104,-0.0015,-0.0328,-0.0073,9.7293,-0.9699,0.7392,0.0000,-0.0005,0.0001,1.0000,0.2432,-0.0242,0.0186
7317,Right,2,0.1715,-0.1015,-0.9792,-0.0379,0.0107,-0.0068,0.0070,-0.0038,0.0234,-0.0347,-3.3576,1.7926,9.0068,0.0001,-0.0001,0.0001,1.0000,-0.0840,0.0448,0.2252
7317,Left,2,0.1052,0.1386,-0.7807,0.6001,0.0103,0.0047,0.0024,0.0016,0.0016,-0.0729,-3.2235,-0.8749,9.1492,0.0001,0.0001,0.0000,1.0000,-0.0806,-0.0219,0.2287
7317,Pelvis,2,0.5639,0.3789,0.5650,-0.4682,0.0055,-0.0452,0.0087,0.0321,-0.0455,0.0367,9.7774,-0.9408,0.7288,0.0001,-0.0006,0.0001,1.0000,0.2444,-0.0235,0.0184
7318,Right,2,0.1714,-0.1016,-0.9792,-0.0381,0.0096,-0.0048,0.0069,-0.0044,0.0356,-0.0170,-3.3599,1.7865,9.0264,0.0001,-0.0001,0.0001,1.0000,-0.0840,0.0446,0.2257
7318,Left,2,0.1052,0.1386,-0.7807,0.6002,0.0085,0.0044,0.0017,-0.0068,0.0104,-0.0534,-3.2355,-0.8872,9.1645,0.0001,0.0001,0.0000,1.0000,-0.0809,-0.0222,0.2291
7318,Pelvis,2,0.5642,0.3790,0.5647,-0.4681,0.0048,-0.0280,0.0069,0.0402,-0.0538,0.0083,9.7512,-0.9295,0.7116,0.0001,-0.0003,0.0001,1.0000,0.2438,-0.0232,0.0179
7319,Right,2,0.1712,-0.1018,-0.9792,-0.0383,0.0103,-0.0043,0.0063,-0.0145,0.0387,-0.0099,-3.3503,1.7883,9.0373,0.0001,-0.0001,0.0001,1.0000,-0.0838,0.0447,0.2259
7319,Left,2,0.1051,0.1386,-0.7807,0.6002,0.0066,0.0039,0.0023,0.0049,0.0106,-0.0580,-3.2367,-0.8765,9.1602,0.0001,0.0000,0.0000,1.0000,-0.0809,-0.0219,0.2290
7319,Pelvis,2,0.5643,0.3791,0.5646,-0.4681,-0.0013,-0.0155,0.0044,0.0459,-0.0926,0.0289,9.7763,-0.9166,0.6719,-0.0000,-0.0002,0.0001,1.0000,0.2444,-0.0229,0.0168
7320,Right,2,0.1711,-0.1019,-0.9792,-0.0384,0.0098,-0.0036,0.0056,-0.0063,0.0267,-0.0064,-3.3574,1.8021,9.0357,0.0001,-0.0000,0.0001,1.0000,-0.0839,0.0450,0.2259
7320,Left,2,0.1050,0.1387,-0.7807,0.6002,0.0049,0.0016,0.0007,-0.0184,-0.0097,-0.0841,-3.2028,-0.8930,9.1428,0.0001,0.0000,0.0000,1.0000,-0.0801,-0.0223,0.2286
7320,Pelvis,2,0.5644,0.3791,0.5646,-0.4680,-0.0037,-0.0073,0.0005,0.0068,-0.0482,-0.0061,9.7344,-0.9631,0.6974,-0.0000,-0.0001,0.0000,1.0000,0.2434,-0.0241,0.0175
7321,Right,2,0.1710,-0.1021,-0.9792,-0.0384,0.0122,-0.0026,0.0070,0.0016,0.0434,-0.0182,-3.3577,1.7854,9.0262,0.0002,-0.0000,0.0001,1.0000,-0.0840,0.0446,0.2257
7321,Left,2,0.1050,0.1387,-0.7807,0.6002,0.0059,0.0040,0.0028,0.0005,0.0072,-0.0767,-3.2248,-0.8808,9.1441,0.0001,0.0000,0.0000,1.0000,-0.0806,-0.0220,0.2286
7321,Pelvis,2,0.5645,0.3791,0.5645,-0.4679,-0.0014,-0.0113,0.0003,0.0157,-0.0215,-0.0050,9.7337,-0.9620,0.7227,-0.0000,-0.0001,0.0000,1.0000,0.2433,-0.0241,0.0181
7322,Right,2,0.1709,-0.1021,-0.9792,-0.0381,0.0104,-0.0031,0.0069,-0.0125,0.0209,-0.0581,-3.3298,1.8038,8.9895,0.0001,-0.0000,0.0001,1.0000,-0.0833,0.0451,0.2247
7322,Left,2,0.1050,0.1387,-0.7808,0.6001,0.0085,0.0044,0.0017,-0.0149,-0.0007,-0.0692,-3.2157,-0.8956,9.1538,0.0001,0.0001,0.0000,1.0000,-0.0804,-0.0224,0.2288
7322,Pelvis,2,0.5647,0.3792,0.5644,-0.4678,-0.0031,-0.0137,0.0018,0.0186,-0.0297,0.0053,9.7452,-0.9582,0.7128,-0.0000,-0.0002,0.0000,1.0000,0.2436,-0.0239,0.0179
7323,Right,2,0.1709,-0.1021,-0.9793,-0.0380,0.0034,0.0005,0.0051,-0.0061,0.0216,-0.0370,-3.3414,1.8079,9.0073,0.0000,0.0000,0.0001,1.0000,-0.0835,0.0452,0.2252
7323,Left,2,0.1050,0.1387,-0.7808,0.6001,0.0102,0.0061,0.0033,-0.0077,0.0018,-0.0823,-3.2154,-0.8885,9.1407,0.0001,0.0001,0.0000,1.0000,-0.0804,-0.0222,0.2285
7323,Pelvis,2,0.5648,0.3793,0.5643,-0.4677,-0.0045,-0.0171,0.0015,0.0087,-0.0116,0.0138,9.7513,-0.9737,0.7236,-0.0001,-0.0002,0.0000,1.0000,0.2438,-0.0243,0.0181
7324,Right,2,0.1708,-0.1021,-0.9793,-0.0381,0.0002,0.0007,0.0061,-0.0150,0.0117,-0.0475,-3.3291,1.8168,8.9987,0.0000,0.0000,0.0001,1.0000,-0.0832,0.0454,0.2250
7324,Left,2,0.1049,0.1387,-0.7807,0.6002,0.0097,0.0051,0.0016,0.0013,0.0097,-0.0721,-3.2281,-0.8830,9.1477,0.0001,0.0001,0.0000,1.0000,-0.0807,-0.0221,0.2287
7324,Pelvis,2,0.5650,0.3793,0.5642,-0.4676,-0.0037,-0.0122,0.0050,-0.0240,-0.0238,0.0587,9.7949,-1.0068,0.7019,-0.0000,-0.0002,0.0001,1.0000,0.2449,-0.0252,0.0176
7325,Right,2,0.1708,-0.1021,-0.9793,-0.0379,-0.0036,0.0034,0.0028,0.0007,0.0391,-0.0393,-3.3442,1.7894,9.0075,-0.0000,0.0000,0.0000,1.0000,-0.0836,0.0447,0.2252
7325,Left,2,0.1049,0.1387,-0.7808,0.6001,0.0102,0.0049,0.0036,-0.0101,0.0037,-0.0776,-3.2177,-0.8924,9.1445,0.0001,0.0001,0.0000,1.0000,-0.0804,-0.0223,0.2286
7325,Pelvis,2,0.5650,0.3793,0.5642,-0.4676,0.0006,-0.0002,0.0043,-0.0232,-0.0364,0.0194,9.7573,-0.9996,0.6850,0.0000,-0.0000,0.0001,1.0000,0.2439,-0.0250,0.0171
7326,Right,2,0.1708,-0.1020,-0.9793,-0.0378,-0.0049,0.0041,0.0039,-0.0069,0.0228,-0.0181,-3.3448,1.8088,9.0263,-0.0001,0.0001,0.0000,1.0000,-0.0836,0.0452,0.2257
7326,Left,2,0.1049,0.1387,-0.7808,0.6001,0.0103,0.0053,0.0023,0.0062,-0.0025,-0.0524,-3.2244,-0.8776,9.1704,0.0001,0.0001,0.0000,1.0000,-0.0806,-0.0220,0.2293
7326,Pelvis,2,0.5651,0.3792,0.5641,-0.4676,0.0006,-0.0004,0.0073,-0.0090,-0.0404,0.0115,9.7508,-0.9853,0.6841,0.0000,-0.0000,0.0001,1.0000,0.2438,-0.0246,0.0171
7327,Right,2,0.1708,-0.1019,-0.9793,-0.0379,-0.0070,0.0066,0.0013,-0.0019,0.0298,-0.0287,-3.3459,1.7976,9.0167,-0.0001,0.0001,0.0000,1.0000,-0.0836,0.0450,0.2254
7327,Left,2,0.1049,0.1387,-0.7808,0.6001,0.0122,0.0046,0.0020,-0.0053,-0.0045,-0.0794,-3.2105,-0.8860,9.1457,0.0002,0.0001,0.0000,1.0000,-0.0802,-0.0222,0.2286
7327,Pelvis,2,0.5651,0.3791,0.5641,-0.4677,0.0013,0.0040,0.0101,-0.0089,-0.0703,0.0412,9.7831,-0.9819,0.6576,0.0000,0.0001,0.0001,1.0000,0.2446,-0.0245,0.0164
7328,Right,2,0.1709,-0.1017,-0.9793,-0.0379,-0.0106,0.0075,0.0016,0.0050,0.0351,-0.0487,-3.3462,1.7854,8.9973,-0.0001,0.0001,0.0000,1.0000,-0.0836,0.0447,0.2249
7328,Left,2,0.1049,0.1387,-0.7808,0.6001,0.0117,0.0033,0.0016,-0.0107,-0.0033,-0.0748,-3.2112,-0.8920,9.1498,0.0001,0.0000,0.0000,1.0000,-0.0803,-0.0223,0.2287
7328,Pelvis,2,0.5651,0.3789,0.5641,-0.4679,0.0011,0.0204,0.0148,0.0212,-0.0875,0.0454,9.7907,-0.9516,0.6525,0.0000,0.0003,0.0002,1.0000,0.2448,-0.0237,0.0163
7329,Right,2,0.1709,-0.1015,-0.9793,-0.0378,-0.0154,0.0103,0.0025,0.0041,0.0361,-0.0393,-3.3494,1.7830,9.0068,-0.0002,0.0001,0.0000,1.0000,-0.0837,0.0446,0.2252
7329,Left,2,0.1049,0.1387,-0.7808,0.6001,0.0134,0.0060,0.0024,0.0139,-0.0059,-0.0757,-3.2146,-0.8672,9.1501,0.0002,0.0001,0.0000,1.0000,-0.0803,-0.0217,0.2288
7329,Pelvis,2,0.5650,0.3786,0.5643,-0.4680,-0.0069,0.0291,0.0117,0.0294,-0.0958,0.0170,9.7633,-0.9417,0.6502,-0.0001,0.0004,0.0001,1.0000,0.2441,-0.0235,0.0162
7330,Right,2,0.1710,-0.1012,-0.9793,-0.0379,-0.0220,0.0113,0.0008,-0.0313,0.0081,-0.0826,-3.3042,1.8013,8.9729,-0.0003,0.0001,0.0000,1.0000,-0.0826,0.0451,0.2243
7330,Left,2,0.1049,0.1387,-0.7808,0.6002,0.0140,0.0061,0.0025,-0.0003,-0.0002,-0.0878,-3.2121,-0.8808,9.1367,0.0002,0.0001,0.0000,1.0000,-0.0803,-0.0221,0.2284
7330,Pelvis,2,0.5648,0.3783,0.5645,-0.4682,-0.0057,0.0346,0.0126,-0.0212,-0.0775,0.0002,9.7402,-0.9963,0.6593,-0.0001,0.0004,0.0002,1.0000,0.2435,-0.0249,0.0164
7331,Right,2,0.1712,-0.1008,-0.9793,-0.0377,-0.0323,0.0193,-0.0025,-0.0218,0.0294,-0.0544,-3.3238,1.7782,9.0009,-0.0004,0.0002,-0.0000,1.0000,-0.0830,0.0445,0.2250
7331,Left,2,0.1050,0.1387,-0.7808,0.6001,0.0157,0.0088,0.0033,-0.0029,-0.0068,-0.0980,-3.2025,-0.8803,9.1293,0.0002,0.0001,0.0000,1.0000,-0.0800,-0.0221,0.2282
7331,Pelvis,2,0.5647,0.3780,0.5647,-0.4684,-0.0039,0.0382,0.0114,-0.0168,-0.0638,0.0008,9.7389,-0.9987,0.6819,-0.0000,0.0005,0.0001,1.0000,0.2435,-0.0249,0.0169
7332,Right,2,0.1715,-0.1004,-0.9793,-0.0378,-0.0343,0.0243,-0.0039,0.0053,0.0357,-0.0299,-3.3616,1.7653,9.0160,-0.0004,0.0003,-0.0000,1.0000,-0.0840,0.0442,0.2254
7332,Left,2,0.1050,0.1387,-0.7808,0.6001,0.0150,0.0114,0.0039,-0.0111,0.0021,-0.0786,-3.2158,-0.8911,9.1443,0.0002,0.0001,0.0000,1.0000,-0.0804,-0.0223,0.2286
7332,Pelvis,2,0.5644,0.3776,0.5650,-0.4686,-0.0016,0.0410,0.0101,0.0098,-0.0372,0.0338,9.7701,-0.9865,0.7265,-0.0000,0.0005,0.0001,1.0000,0.2443,-0.0246,0.0180
7333,Right,2,0.1718,-0.1000,-0.9793,-0.0378,-0.0298,0.0271,-0.0042,0.0036,0.0144,-0.0370,-3.3636,1.7768,9.0052,-0.0004,0.0003,-0.0001,1.0000,-0.0840,0.0445,0.2251
7333,Left,2,0.1052,0.1387,-0.7808,0.6001,0.0192,0.0160,0.0039,-0.0094,-0.0108,-0.0589,-3.2128,-0.8865,9.1667,0.0002,0.0002,0.0000,1.0000,-0.0803,-0.0222,0.2292
7333,Pelvis,2,0.5642,0.3773,0.5652,-0.4688,-0.0052,0.0427,0.0085,0.0170,-0.0018,0.0150,9.7473,-0.9896,0.7705,-0.0001,0.0005,0.0001,1.0000,0.2437,-0.0247,0.0191
7334,Right,2,0.1721,-0.0996,-0.9793,-0.0378,-0.0256,0.0268,-0.0033,-0.0007,0.0408,0.0078,-3.3792,1.7525,9.0528,-0.0003,0.0003,-0.0000,1.0000,-0.0844,0.0439,0.2263
7334,Left,2,0.1054,0.1386,-0.7808,0.6001,0.0228,0.0158,0.0055,-0.0052,0.0035,-0.0785,-3.2227,-0.8817,9.1428,0.0003,0.0002,0.0001,1.0000,-0.0805,-0.0221,0.2286
7334,Pelvis,2,0.5640,0.3770,0.5655,-0.4690,-0.0032,0.0436,0.0090,0.0155,0.0292,-0.0051,9.7231,-0.9996,0.8081,-0.0000,0.0005,0.0001,1.0000,0.2431,-0.0250,0.0201
7335,Right,2,0.1723,-0.0994,-0.9793,-0.0379,-0.0178,0.0232,-0.0034,0.0021,0.0275,-0.0099,-3.3810,1.7563,9.0322,-0.0002,0.0003,-0.0000,1.0000,-0.0845,0.0440,0.2258
7335,Left,2,0.1056,0.1386,-0.7807,0.6001,0.0247,0.0155,0.0064,-0.0050,0.0160,-0.0852,-3.2342,-0.8809,9.1318,0.0003,0.0002,0.0001,1.0000,-0.0808,-0.0221,0.2283
7335,Pelvis,2,0.5638,0.3766,0.5658,-0.4692,-0.0053,0.0427,0.0067,0.0466,0.0207,-0.0402,9.6905,-0.9657,0.8158,-0.0001,0.0005,0.0001,1.0000,0.2423,-0.0241,0.0203
7336,Right,2,0.1725,-0.0992,-0.9793,-0.0379,-0.0145,0.0206,-0.0013,-0.0117,0.0273,-0.0333,-3.3642,1.7493,9.0145,-0.0002,0.0003,-0.0000,1.0000,-0.0840,0.0438,0.2254
7336,Left,2,0.1058,0.1385,-0.7807,0.6001,0.0215,0.0172,0.0063,-0.0090,-0.0042,-0.0757,-3.2205,-0.8778,9.1470,0.0003,0.0002,0.0001,1.0000,-0.0805,-0.0220,0.2287
7336,Pelvis,2,0.5636,0.3763,0.5661,-0.4693,-0.0072,0.0357,0.0050,-0.0020,0.0217,-0.0074,9.7184,-1.0171,0.8145,-0.0001,0.0004,0.0001,1.0000,0.2430,-0.0254,0.0203
7337,Right,2,0.1728,-0.0991,-0.9792,-0.0379,-0.0112,0.0302,-0.0036,-0.0278,0.0177,-0.0555,-3.3468,1.7527,8.9962,-0.0001,0.0004,-0.0000,1.0000,-0.0836,0.0439,0.2249
7337,Left,2,0.1060,0.1386,-0.7807,0.6001,0.0201,0.0192,0.0070,-0.0129,0.0064,-0.0692,-3.2341,-0.8823,9.1486,0.0003,0.0002,0.0001,1.0000,-0.0808,-0.0221,0.2287
7337,Pelvis,2,0.5635,0.3760,0.5663,-0.4695,-0.0060,0.0368,0.0064,-0.0048,0.0005,0.0120,9.7389,-1.0173,0.8031,-0.0001,0.0005,0.0001,1.0000,0.2435,-0.0254,0.0200
7338,Right,2,0.1732,-0.0989,-0.9792,-0.0377,-0.0069,0.0305,-0.0033,0.0111,0.0423,-0.0216,-3.4001,1.7274,9.0179,-0.0001,0.0004,-0.0000,1.0000,-0.0849,0.0432,0.2255
7338,Left,2,0.1062,0.1386,-0.7807,0.6001,0.0176,0.0219,0.0055,-0.0079,0.0125,-0.0460,-3.2521,-0.8791,9.1673,0.0002,0.0003,0.0001,1.0000,-0.0812,-0.0220,0.2292
7338,Pelvis,2,0.5633,0.3757,0.5666,-0.4696,-0.0082,0.0386,0.0042,0.0366,-0.0124,-0.0020,9.7286,-0.9740,0.8099,-0.0001,0.0005,0.0001,1.0000,0.2432,-0.0243,0.0201
7339,Right,2,0.1736,-0.0989,-0.9791,-0.0379,-0.0018,0.0338,-0.0036,-0.0067,0.0454,-0.0262,-3.3884,1.7236,9.0181,-0.0000,0.0004,-0.0000,1.0000,-0.0846,0.0431,0.2255
7339,Left,2,0.1064,0.1387,-0.7806,0.6001,0.0162,0.0199,0.0077,-0.0079,-0.0058,-0.0496,-3.2378,-0.8727,9.1692,0.0002,0.0002,0.0001,1.0000,-0.0809,-0.0219,0.2292
7339,Pelvis,2,0.5631,0.3754,0.5669,-0.4696,-0.0117,0.0342,-0.0004,0.0296,0.0275,-0.0130,9.7121,-0.9911,0.8531,-0.0001,0.0004,-0.0000,1.0000,0.2428,-0.0248,0.0212
7340,Right,2,0.1738,-0.0989,-0.9791,-0.0381,0.0014,0.0281,-0.0021,0.0318,0.0481,-0.0088,-3.4365,1.7191,9.0197,0.0000,0.0004,-0.0000,1.0000,-0.0858,0.0430,0.2255
7340,Left,2,0.1066,0.1387,-0.7805,0.6001,0.0190,0.0218,0.0044,-0.0239,0.0212,-0.0665,-3.2561,-0.8913,9.1429,0.0002,0.0003,0.0001,1.0000,-0.0813,-0.0223,0.2286
7340,Pelvis,2,0.5629,0.3751,0.5672,-0.4697,-0.0125,0.0392,0.0008,0.0447,0.0804,0.0085,9.7281,-0.9936,0.9178,-0.0002,0.0005,0.0000,1.0000,0.2432,-0.0248,0.0228
7341,Right,2,0.1740,-0.0990,-0.9790,-0.0384,0.0031,0.0219,0.0024,0.0168,0.0430,0.0089,-3.4340,1.7286,9.0380,0.0000,0.0003,0.0000,1.0000,-0.0858,0.0432,0.2260
7341,Left,2,0.1067,0.1388,-0.7804,0.6003,0.0158,0.0183,0.0062,0.0121,0.0065,-0.0655,-3.2556,-0.8513,9.1479,0.0002,0.0002,0.0001,1.0000,-0.0813,-0.0213,0.2287
7341,Pelvis,2,0.5628,0.3748,0.5676,-0.4697,-0.0154,0.0388,-0.0018,0.0488,0.1026,-0.0206,9.6962,-0.9929,0.9464,-0.0002,0.0005,-0.0000,1.0000,0.2424,-0.0248,0.0235
7342,Right,2,0.1742,-0.0990,-0.9790,-0.0382,0.0026,0.0140,0.0025,0.0176,0.0421,0.0089,-3.4379,1.7295,9.0364,0.0000,0.0002,0.0000,1.0000,-0.0859,0.0432,0.2259
7342,Left,2,0.1068,0.1388,-0.7804,0.6002,0.0141,0.0142,0.0050,0.0030,0.0017,-0.0263,-3.2644,-0.8615,9.1856,0.0002,0.0002,0.0001,1.0000,-0.0816,-0.0216,0.2296
7342,Pelvis,2,0.5626,0.3745,0.5680,-0.4697,-0.0174,0.0392,-0.0067,0.0333,0.0772,0.0267,9.7440,-1.0047,0.9304,-0.0002,0.0005,-0.0001,1.0000,0.2436,-0.0251,0.0231
7343,Right,2,0.1742,-0.0990,-0.9790,-0.0382,0.0037,0.0127,0.0026,0.0002,0.0345,-0.0039,-3.4189,1.7372,9.0281,0.0000,0.0002,0.0000,1.0000,-0.0854,0.0434,0.2257
7343,Left,2,0.1069,0.1388,-0.7804,0.6002,0.0150,0.0132,0.0034,0.0100,0.0043,-0.0394,-3.2660,-0.8531,9.1719,0.0002,0.0002,0.0000,1.0000,-0.0816,-0.0214,0.2293
7343,Pelvis,2,0.5622,0.3741,0.5685,-0.4699,-0.0102,0.0575,-0.0043,0.0185,0.0346,0.1333,9.8524,-1.0168,0.9056,-0.0001,0.0007,-0.0001,1.0000,0.2463,-0.0254,0.0225
7344,Right,2,0.1743,-0.0990,-0.9790,-0.0379,0.0040,0.0096,0.0045,0.0085,0.0224,-0.0004,-3.4296,1.7493,9.0255,0.0001,0.0001,0.0001,1.0000,-0.0857,0.0437,0.2256
7344,Left,2,0.1069,0.1388,-0.7805,0.6001,0.0097,0.0070,0.0018,0.0024,0.0041,-0.0794,-3.2515,-0.8567,9.1341,0.0001,0.0001,0.0000,1.0000,-0.0813,-0.0214,0.2284
7344,Pelvis,2,0.5617,0.3736,0.5691,-0.4702,-0.0049,0.0861,0.0025,0.0024,-0.0258,0.1511,9.8743,-1.0170,0.8620,-0.0001,0.0011,0.0000,1.0000,0.2469,-0.0254,0.0213
7345,Right,2,0.1744,-0.0990,-0.9790,-0.0378,0.0039,0.0078,0.0045,0.0136,0.0294,-0.0110,-3.4312,1.7406,9.0150,0.0000,0.0001,0.0001,1.0000,-0.0858,0.0435,0.2254
7345,Left,2,0.1069,0.1388,-0.7805,0.6001,0.0084,0.0064,0.0019,0.0033,0.0084,-0.0431,-3.2678,-0.8608,9.1665,0.0001,0.0001,0.0000,1.0000,-0.0817,-0.0215,0.2292
7345,Pelvis,2,0.5610,0.3729,0.5698,-0.4707,-0.0041,0.1064,0.0051,0.0067,-0.0300,0.0532,9.7760,-1.0024,0.8734,-0.0001,0.0013,0.0001,1.0000,0.2444,-0.0250,0.0215
7346,Right,2,0.1744,-0.0990,-0.9790,-0.0378,0.0018,0.0048,0.0050,-0.0020,0.0418,-0.0167,-3.4146,1.7294,9.0173,0.0000,0.0001,0.0001,1.0000,-0.0854,0.0432,0.2254
7346,Left,2,0.1069,0.1389,-0.7805,0.6001,0.0085,0.0062,0.0013,-0.0174,0.0110,-0.0868,-3.2503,-0.8783,9.1245,0.0001,0.0001,0.0000,1.0000,-0.0812,-0.0220,0.2281
7346,Pelvis,2,0.5603,0.3722,0.5706,-0.4712,-0.0037,0.1124,0.0039,-0.0090,-0.0123,-0.0574,9.6607,-1.0120,0.9015,-0.0000,0.0014,0.0000,1.0000,0.2415,-0.0253,0.0222
7347,Right,2,0.1744,-0.0990,-0.9790,-0.0375,0.0016,0.0030,0.0056,-0.0199,0.0338,-0.0295,-3.3934,1.7370,9.0100,0.0000,0.0000,0.0001,1.0000,-0.0848,0.0434,0.2253
7347,Left,2,0.1069,0.1389,-0.7805,0.6001,0.0092,0.0031,0.0014,0.0036,0.0026,-0.0533,-3.2589,-0.8597,9.1590,0.0001,0.0000,0.0000,1.0000,-0.0815,-0.0215,0.2290
7347,Pelvis,2,0.5597,0.3715,0.5713,-0.4716,-0.0080,0.0976,0.0043,-0.0111,-0.0162,-0.1069,9.6095,-1.0088,0.9170,-0.0001,0.0012,0.0001,1.0000,0.2403,-0.0252,0.0226
7348,Right,2,0.1743,-0.0990,-0.9790,-0.0377,0.0016,0.0024,0.0056,-0.0007,0.0182,-0.0332,-3.4102,1.7498,8.9970,0.0000,0.0000,0.0001,1.0000,-0.0853,0.0437,0.2249
7348,Left,2,0.1068,0.1389,-0.7805,0.6001,0.0106,0.0035,0.0002,-0.0069,0.0101,-0.0784,-3.2541,-0.8697,9.1329,0.0001,0.0000,0.0000,1.0000,-0.0813,-0.0218,0.2283
7348,Pelvis,2,0.5592,0.3709,0.5719,-0.4718,-0.0114,0.0791,0.0010,0.0016,-0.0420,-0.1051,9.6134,-0.9903,0.9168,-0.0001,0.0010,0.0000,1.0000,0.2404,-0.0248,0.0227
7349,Right,2,0.1743,-0.0991,-0.9790,-0.0379,0.0016,0.0024,0.0062,-0.0064,0.0401,-0.0284,-3.4050,1.7303,9.0081,0.0000,0.0000,0.0001,1.0000,-0.0851,0.0432,0.2252
7349,Left,2,0.1068,0.1389,-0.7805,0.6002,0.0121,0.0043,0.0033,-0.0275,0.0086,-0.1006,-3.2396,-0.8872,9.1128,0.0002,0.0001,0.0000,1.0000,-0.0810,-0.0222,0.2278
7349,Pelvis,2,0.5590,0.3705,0.5724,-0.4719,-0.0197,0.0488,-0.0023,-0.0062,-0.0895,-0.1158,9.6069,-0.9834,0.8827,-0.0002,0.0006,-0.0000,1.0000,0.2402,-0.0246,0.0219
7350,Right,2,0.1743,-0.0990,-0.9790,-0.0375,0.0005,0.0043,0.0061,-0.0225,0.0303,-0.0506,-3.3822,1.7375,8.9912,0.0000,0.0001,0.0001,1.0000,-0.0845,0.0434,0.2248
7350,Left,2,0.1068,0.1388,-0.7805,0.6001,0.0147,0.0036,0.0025,-0.0134,0.0102,-0.0607,-3.2574,-0.8772,9.1500,0.0002,0.0000,0.0000,1.0000,-0.0814,-0.0220,0.2287
7350,Pelvis,2,0.5590,0.3703,0.5726,-0.4718,-0.0226,0.0197,-0.0029,0.0043,-0.0715,-0.0947,9.6256,-0.9803,0.9122,-0.0003,0.0002,-0.0000,1.0000,0.2406,-0.0245,0.0228
7351,Right,2,0.1743,-0.0990,-0.9790,-0.0376,0.0017,0.0097,0.0031,-0.0406,0.0115,-0.0717,-3.3590,1.7543,8.9738,0.0000,0.0001,0.0000,1.0000,-0.0839,0.0438,0.2244
7351,Left,2,0.1069,0.1388,-0.7805,0.6002,0.0151,0.0082,0.0033,-0.0119,0.0014,-0.0624,-3.2493,-0.8725,9.1514,0.0002,0.0001,0.0000,1.0000,-0.0812,-0.0219,0.2288
7351,Pelvis,2,0.5591,0.3701,0.5728,-0.4716,-0.0242,0.0071,-0.0012,0.0020,-0.0795,-0.0457,9.6747,-0.9852,0.9110,-0.0003,0.0001,-0.0000,1.0000,0.2419,-0.0246,0.0228
7352,Right,2,0.1745,-0.0990,-0.9789,-0.0375,0.0030,0.0182,0.0006,-0.0269,0.0227,-0.0306,-3.3881,1.7491,9.0084,0.0000,0.0002,0.0000,1.0000,-0.0847,0.0437,0.2252
7352,Left,2,0.1069,0.1388,-0.7804,0.6002,0.0163,0.0079,0.0048,-0.0151,-0.0011,-0.0940,-3.2362,-0.8712,9.1226,0.0002,0.0001,0.0001,1.0000,-0.0809,-0.0218,0.2281
7352,Pelvis,2,0.5593,0.3699,0.5729,-0.4713,-0.0280,-0.0043,0.0004,0.0365,-0.0353,0.0277,9.7442,-0.9727,0.9697,-0.0004,-0.0001,0.0000,1.0000,0.2436,-0.0243,0.0243
7353,Left,2,0.1070,0.1387,-0.7804,0.6002,0.0163,0.0096,0.0038,-0.0002,0.0141,-0.0737,-3.2612,-0.8609,9.1363,0.0002,0.0001,0.0000,1.0000,-0.0815,-0.0216,0.2284
7353,Pelvis,2,0.5595,0.3697,0.5730,-0.4711,-0.0312,0.0003,0.0004,0.0164,-0.0128,0.0150,9.7275,-0.9976,0.9823,-0.0004,0.0000,0.0000,1.0000,0.2432,-0.0249,0.0246
7354,Right,2,0.1750,-0.0992,-0.9788,-0.0377,0.0059,0.0235,0.0005,0.0105,0.0351,-0.0203,-3.4323,1.7362,9.0054,0.0001,0.0006,0.0000,1.0000,-0.1714,0.0867,0.4504
7354,Left,2,0.1071,0.1387,-0.7804,0.6002,0.0144,0.0095,0.0036,-0.0013,0.0130,-0.0606,-3.2651,-0.8617,9.1487,0.0002,0.0001,0.0000,1.0000,-0.0816,-0.0216,0.2287
7354,Pelvis,2,0.5597,0.3695,0.5732,-0.4708,-0.0326,0.0008,-0.0031,0.0350,0.0267,-0.0221,9.6872,-0.9875,1.0204,-0.0004,0.0000,-0.0000,1.0000,0.2422,-0.0247,0.0255
7355,Right,2,0.1751,-0.0992,-0.9788,-0.0378,0.0060,0.0180,0.0015,0.0142,0.0351,-0.0050,-3.4465,1.7395,9.0160,0.0001,0.0002,0.0000,1.0000,-0.0861,0.0435,0.2254
7355,Left,2,0.1071,0.1387,-0.7804,0.6002,0.0131,0.0091,0.0048,-0.0042,0.0064,-0.0708,-3.2559,-0.8613,9.1412,0.0002,0.0001,0.0001,1.0000,-0.0814,-0.0216,0.2285
7355,Pelvis,2,0.5599,0.3692,0.5734,-0.4705,-0.0355,0.0012,-0.0060,0.0584,0.0403,0.0008,9.7099,-0.9709,1.0413,-0.0004,0.0000,-0.0001,1.0000,0.2427,-0.0243,0.0260
7356,Right,2,0.1752,-0.0993,-0.9788,-0.0377,0.0043,0.0145,0.0051,-0.0128,0.0293,-0.0201,-3.4185,1.7464,9.0089,0.0001,0.0002,0.0001,1.0000,-0.0854,0.0436,0.2252
7356,Left,2,0.1071,0.1387,-0.7804,0.6002,0.0145,0.0082,0.0033,-0.0113,-0.0019,-0.0678,-3.2481,-0.8656,9.1467,0.0002,0.0001,0.0000,1.0000,-0.0812,-0.0217,0.2287
7356,Pelvis,2,0.5601,0.3690,0.5736,-0.4702,-0.0345,0.0014,-0.0061,0.0123,0.0195,0.0143,9.7229,-1.0096,1.0083,-0.0004,0.0000,-0.0001,1.0000,0.2431,-0.0252,0.0252
7357,Right,2,0.1754,-0.0993,-0.9788,-0.0375,0.0061,0.0186,0.0008,-0.0129,0.0061,-0.0366,-3.4166,1.7665,8.9877,0.0001,0.0002,0.0000,1.0000,-0.0854,0.0441,0.2247
7357,Left,2,0.1072,0.1387,-0.7804,0.6003,0.0125,0.0077,0.0045,-0.0025,0.0101,-0.0792,-3.2579,-0.8586,9.1318,0.0002,0.0001,0.0001,1.0000,-0.0814,-0.0215,0.2283
7357,Pelvis,2,0.5603,0.3688,0.5738,-0.4699,-0.0309,-0.0000,-0.0056,0.0352,0.0502,-0.0222,9.6847,-0.9921,1.0394,-0.0004,-0.0000,-0.0001,1.0000,0.2421,-0.0248,0.0260
7358,Right,2,0.1756,-0.0994,-0.9787,-0.0376,0.0074,0.0216,0.0021,-0.0050,0.0338,-0.0401,-3.4251,1.7391,8.9861,0.0001,0.0003,0.0000,1.0000,-0.0856,0.0435,0.2247
7358,Left,2,0.1072,0.1387,-0.7804,0.6002,0.0145,0.0110,0.0020,-0.0166,0.0117,-0.0697,-3.2597,-0.8728,9.1399,0.0002,0.0001,0.0000,1.0000,-0.0815,-0.0219,0.2285
7358,Pelvis,2,0.5605,0.3687,0.5739,-0.4696,-0.0339,-0.0088,-0.0065,0.0193,0.0639,-0.0342,9.6703,-1.0092,1.0441,-0.0004,-0.0001,-0.0001,1.0000,0.2418,-0.0252,0.0261
7359,Right,2,0.1758,-0.0995,-0.9787,-0.0375,0.0096,0.0178,0.0023,0.0164,0.0339,0.0044,-3.4638,1.7464,9.0182,0.0001,0.0002,0.0000,1.0000,-0.0865,0.0436,0.2255
7359,Left,2,0.1073,0.1387,-0.7804,0.6002,0.0150,0.0085,0.0045,-0.0105,0.0006,-0.0631,-3.2544,-0.8640,9.1497,0.0002,0.0001,0.0001,1.0000,-0.0813,-0.0216,0.2287
7359,Pelvis,2,0.5608,0.3686,0.5740,-0.4692,-0.0322,-0.0106,-0.0039,0.0122,0.0515,-0.0154,9.6904,-1.0137,1.0284,-0.0004,-0.0001,-0.0000,1.0000,0.2423,-0.0253,0.0258
7360,Right,2,0.1759,-0.0995,-0.9787,-0.0374,0.0042,0.0108,0.0033,0.0151,0.0236,0.0056,-3.4656,1.7579,9.0166,0.0001,0.0001,0.0000,1.0000,-0.0866,0.0439,0.2254
7360,Left,2,0.1074,0.1387,-0.7804,0.6002,0.0145,0.0089,0.0038,-0.0059,0.0108,-0.0614,-3.2660,-0.8613,9.1477,0.0002,0.0001,0.0000,1.0000,-0.0816,-0.0216,0.2287
7360,Pelvis,2,0.5611,0.3684,0.5741,-0.4689,-0.0332,-0.0183,-0.0005,0.0080,0.0608,-0.0160,9.6888,-1.0205,1.0311,-0.0004,-0.0002,-0.0000,1.0000,0.2422,-0.0255,0.0258
7361,Right,2,0.1759,-0.0995,-0.9787,-0.0373,0.0024,0.0048,0.0050,-0.0042,0.0395,0.0188,-3.4523,1.7474,9.0381,0.0000,0.0001,0.0001,1.0000,-0.0863,0.0437,0.2260
7361,Left,2,0.1074,0.1387,-0.7804,0.6002,0.0140,0.0079,0.0021,-0.0029,0.0116,-0.0614,-3.2680,-0.8578,9.1473,0.0002,0.0001,0.0000,1.0000,-0.0817,-0.0215,0.2287
7361,Pelvis,2,0.5615,0.3683,0.5741,-0.4685,-0.0308,-0.0219,0.0000,0.0168,0.0657,-0.0149,9.6906,-1.0144,1.0322,-0.0004,-0.0003,0.0000,1.0000,0.2423,-0.0253,0.0259
7362,Right,2,0.1758,-0.0995,-0.9787,-0.0375,0.0017,0.0049,0.0062,-0.0014,0.0372,0.0093,-3.4517,1.7480,9.0280,0.0000,0.0001,0.0001,1.0000,-0.0863,0.0437,0.2257
7362,Left,2,0.1074,0.1386,-0.7804,0.6002,0.0127,0.0055,0.0031,-0.0075,-0.0044,-0.0732,-3.2485,-0.8567,9.1417,0.0002,0.0001,0.0000,1.0000,-0.0812,-0.0215,0.2285
7362,Pelvis,2,0.5619,0.3683,0.5740,-0.4681,-0.0292,-0.0275,-0.0009,0.0138,0.0749,-0.0252,9.6797,-1.0193,1.0318,-0.0004,-0.0003,-0.0000,1.0000,0.2420,-0.0255,0.0259
7363,Right,2,0.1758,-0.0996,-0.9787,-0.0375,0.0027,0.0030,0.0069,-0.0078,0.0258,-0.0106,-3.4385,1.7568,9.0096,0.0000,0.0000,0.0001,1.0000,-0.0860,0.0439,0.2252
7363,Left,2,0.1074,0.1386,-0.7804,0.6002,0.0128,0.0042,0.0028,0.0017,0.0035,-0.0631,-3.2612,-0.8504,9.1485,0.0002,0.0001,0.0000,1.0000,-0.0815,-0.0213,0.2287
7363,Pelvis,2,0.5623,0.3683,0.5739,-0.4677,-0.0301,-0.0350,-0.0005,0.0194,0.0666,-0.0343,9.6731,-1.0111,1.0159,-0.0004,-0.0004,-0.0000,1.0000,0.2418,-0.0253,0.0255
7364,Right,2,0.1757,-0.0996,-0.9787,-0.0375,0.0015,0.0006,0.0050,0.0184,0.0385,-0.0179,-3.4590,1.7407,8.9970,0.0000,0.0000,0.0001,1.0000,-0.0865,0.0435,0.2249
7364,Left,2,0.1074,0.1386,-0.7804,0.6002,0.0134,0.0042,0.0028,-0.0043,0.0087,-0.0798,-3.2584,-0.8555,9.1312,0.0002,0.0001,0.0000,1.0000,-0.0814,-0.0214,0.2283
7364,Pelvis,2,0.5629,0.3683,0.5737,-0.4673,-0.0271,-0.0454,0.0043,0.0109,0.0847,-0.0355,9.6700,-1.0253,1.0194,-0.0003,-0.0006,0.0001,1.0000,0.2417,-0.0256,0.0256
7365,Right,2,0.1757,-0.0996,-0.9787,-0.0373,0.0007,0.0007,0.0080,0.0038,0.0225,-0.0083,-3.4480,1.7599,9.0077,0.0000,0.0000,0.0001,1.0000,-0.0862,0.0440,0.2252
7365,Left,2,0.1074,0.1386,-0.7804,0.6002,0.0116,0.0047,0.0025,-0.0092,0.0058,-0.0537,-3.2629,-0.8616,9.1570,0.0001,0.0001,0.0000,1.0000,-0.0816,-0.0216,0.2289
7365,Pelvis,2,0.5634,0.3684,0.5734,-0.4669,-0.0245,-0.0543,0.0052,0.0170,0.0896,-0.0150,9.6914,-1.0248,1.0147,-0.0003,-0.0007,0.0001,1.0000,0.2423,-0.0256,0.0255
7366,Right,2,0.1756,-0.0996,-0.9787,-0.0375,-0.0008,-0.0035,0.0067,-0.0067,0.0254,-0.0012,-3.4393,1.7595,9.0190,-0.0000,-0.0000,0.0001,1.0000,-0.0860,0.0440,0.2255
7366,Left,2,0.1074,0.1385,-0.7804,0.6002,0.0135,0.0035,0.0024,-0.0021,0.0082,-0.0668,-3.2622,-0.8539,9.1440,0.0002,0.0000,0.0000,1.0000,-0.0815,-0.0214,0.2286
7366,Pelvis,2,0.5640,0.3685,0.5731,-0.4665,-0.0207,-0.0548,0.0072,0.0274,0.0858,0.0061,9.7148,-1.0179,1.0018,-0.0003,-0.0007,0.0001,1.0000,0.2429,-0.0254,0.0252
7367,Right,2,0.1754,-0.0995,-0.9787,-0.0375,-0.0028,-0.0052,0.0084,0.0077,0.0305,-0.0095,-3.4474,1.7511,9.0085,-0.0000,-0.0001,0.0001,1.0000,-0.0862,0.0438,0.2252
7367,Left,2,0.1074,0.1385,-0.7804,0.6002,0.0128,0.0030,0.0031,0.0041,-0.0028,-0.0601,-3.2553,-0.8455,9.1542,0.0002,0.0000,0.0000,1.0000,-0.0814,-0.0212,0.2289
7367,Pelvis,2,0.5646,0.3686,0.5727,-0.4662,-0.0207,-0.0554,0.0094,0.0374,0.0905,-0.0024,9.7077,-1.0113,0.9941,-0.0003,-0.0007,0.0001,1.0000,0.2427,-0.0252,0.0250
7368,Right,2,0.1753,-0.0995,-0.9788,-0.0373,-0.0027,-0.0095,0.0110,-0.0081,0.0320,-0.0234,-3.4248,1.7483,9.0025,-0.0000,-0.0001,0.0001,1.0000,-0.0857,0.0437,0.2251
7368,Left,2,0.1073,0.1385,-0.7804,0.6002,0.0103,0.0029,0.0028,-0.0045,0.0101,-0.0620,-3.2635,-0.8566,9.1483,0.0001,0.0000,0.0000,1.0000,-0.0816,-0.0214,0.2287
7368,Pelvis,2,0.5652,0.3688,0.5724,-0.4658,-0.0193,-0.0587,0.0060,0.0361,0.0911,0.0073,9.7184,-1.0160,0.9803,-0.0002,-0.0007,0.0001,1.0000,0.2429,-0.0254,0.0247
7369,Right,2,0.1751,-0.0994,-0.9788,-0.0374,-0.0051,-0.0112,0.0090,-0.0111,0.0345,-0.0046,-3.4249,1.7490,9.0229,-0.0001,-0.0001,0.0001,1.0000,-0.0857,0.0437,0.2256
7369,Left,2,0.1073,0.1385,-0.7804,0.6003,0.0099,0.0012,0.0013,0.0161,0.0058,-0.0500,-3.2680,-0.8370,9.1613,0.0001,0.0000,0.0000,1.0000,-0.0817,-0.0210,0.2290
7369,Pelvis,2,0.5657,0.3690,0.5720,-0.4654,-0.0144,-0.0574,0.0073,0.0169,0.0699,-0.0149,9.6988,-1.0275,0.9374,-0.0002,-0.0007,0.0001,1.0000,0.2425,-0.0257,0.0236
7370,Right,2,0.1748,-0.0994,-0.9789,-0.0375,-0.0035,-0.0131,0.0097,-0.0065,0.0197,-0.0317,-3.4161,1.7575,8.9950,-0.0000,-0.0002,0.0001,1.0000,-0.0854,0.0439,0.2249
7370,Left,2,0.1071,0.1385,-0.7804,0.6003,0.0006,0.0002,0.0006,0.0206,0.0252,0.0112,-3.3059,-0.8440,9.2124,0.0000,0.0000,0.0000,1.0000,-0.0826,-0.0211,0.2303
7370,Pelvis,2,0.5663,0.3692,0.5716,-0.4651,-0.0070,-0.0595,0.0080,0.0085,0.0880,-0.0162,9.6961,-1.0427,0.9369,-0.0001,-0.0007,0.0001,1.0000,0.2424,-0.0260,0.0236
7371,Right,2,0.1745,-0.0995,-0.9789,-0.0377,0.0019,-0.0154,0.0095,0.0378,0.0455,0.0232,-3.4715,1.7374,9.0376,0.0000,-0.0002,0.0001,1.0000,-0.0868,0.0434,0.2259
7371,Left,2,0.1068,0.1386,-0.7803,0.6004,-0.0066,-0.0085,-0.0006,-0.0096,0.0014,-0.0459,-3.2552,-0.8658,9.1675,-0.0001,-0.0001,-0.0000,1.0000,-0.0814,-0.0216,0.2292
7371,Pelvis,2,0.5668,0.3695,0.5711,-0.4649,-0.0011,-0.0620,0.0103,0.0100,0.0798,0.0038,9.7182,-1.0431,0.9160,-0.0000,-0.0008,0.0001,1.0000,0.2429,-0.0260,0.0231
7372,Right,2,0.1742,-0.0996,-0.9789,-0.0377,0.0122,-0.0240,0.0110,-0.0139,0.0312,-0.0257,-3.4008,1.7499,9.0089,0.0002,-0.0003,0.0001,1.0000,-0.0851,0.0437,0.2252
7372,Left,2,0.1065,0.1387,-0.7803,0.6005,-0.0086,-0.0095,0.0008,-0.0152,-0.0065,-0.1007,-3.2249,-0.8690,9.1197,-0.0001,-0.0001,0.0000,1.0000,-0.0806,-0.0217,0.2280
7372,Pelvis,2,0.5673,0.3698,0.5705,-0.4646,0.0040,-0.0662,0.0082,0.0404,0.0844,0.0079,9.7252,-1.0181,0.9139,0.0000,-0.0008,0.0001,1.0000,0.2431,-0.0254,0.0230
7373,Right,2,0.1738,-0.0997,-0.9790,-0.0378,0.0088,-0.0220,0.0101,-0.0296,0.0328,-0.0396,-3.3746,1.7502,9.0036,0.0001,-0.0003,0.0001,1.0000,-0.0844,0.0437,0.2251
7373,Left,2,0.1063,0.1388,-0.7803,0.6005,-0.0060,-0.0061,-0.0011,-0.0176,-0.0171,-0.0893,-3.2152,-0.8742,9.1347,-0.0001,-0.0001,-0.0000,1.0000,-0.0804,-0.0218,0.2284
7373,Pelvis,2,0.5678,0.3703,0.5700,-0.4643,0.0056,-0.0715,0.0043,0.0526,0.0149,0.0100,9.7373,-0.9875,0.8347,0.0001,-0.0009,0.0001,1.0000,0.2434,-0.0247,0.0211
7374,Right,2,0.1735,-0.0998,-0.9790,-0.0379,0.0050,-0.0143,0.0104,-0.0190,0.0304,-0.0373,-3.3796,1.7540,9.0034,0.0001,-0.0002,0.0001,1.0000,-0.0845,0.0438,0.2251
7374,Left,2,0.1061,0.1388,-0.7803,0.6005,0.0007,-0.0065,0.0016,-0.0066,-0.0037,-0.0560,-3.2385,-0.8730,9.1620,0.0000,-0.0001,0.0000,1.0000,-0.0810,-0.0218,0.2290
7374,Pelvis,2,0.5683,0.3707,0.5694,-0.4641,0.0040,-0.0697,0.0083,0.0454,-0.0497,0.0587,9.7934,-0.9818,0.7574,0.0001,-0.0009,0.0001,1.0000,0.2448,-0.0245,0.0191
