PacketId,Role,StatusWord,Qx,Qy,Qz,Qw,Gx,Gy,Gz,FreeAx,FreeAy,FreeAz,Ax,Ay,Az,DQx,DQy,DQz,DQw,DVx,DVy,DVz
246,Left,0,0.0625,0.0872,-0.9528,0.2840,0.1502,0.2484,-0.0070,-0.0000,-0.0000,-0.2471,-1.6415,-1.2326,9.3428,0.0019,0.0031,-0.0001,1.0000,-0.0403,-0.0312,0.2336
246,Pelvis,0,-0.2918,0.4476,-0.7336,-0.4199,-0.0913,0.2508,-0.4084,0.0000,0.0000,-5.0793,3.8093,-1.9319,2.0403,-0.0011,0.0031,-0.0051,1.0000,0.0951,-0.0487,0.0508
246,Right,0,-0.2114,-0.3395,0.5893,0.7020,1.6685,1.6869,0.3154,-0.0000,-0.0000,7.0022,3.5357,-11.4928,11.7574,0.0209,0.0211,0.0039,0.9996,0.0956,-0.2930,0.2859
247,Left,0,0.0680,0.0878,-0.9524,0.2838,0.0805,0.4359,0.0314,-0.5710,-0.2695,-0.5404,-0.9961,-1.2954,9.1491,0.0010,0.0054,0.0004,1.0000,-0.0236,-0.0326,0.2288
247,Pelvis,0,-0.2926,0.4454,-0.7329,-0.4229,0.0627,0.1209,-0.2810,-0.1320,0.5883,-3.8647,5.0596,-2.4590,2.0237,0.0008,0.0015,-0.0035,1.0000,0.1263,-0.0620,0.0504
247,Right,0,-0.2106,-0.3303,0.5823,0.7124,0.4644,0.8781,-0.7476,1.7131,-1.6100,7.6119,2.5379,-13.5767,10.8804,0.0058,0.0110,-0.0093,0.9999,0.0632,-0.3416,0.2693
248,Left,0,0.0745,0.0887,-0.9518,0.2840,0.0685,0.5180,0.0669,0.2887,-0.0916,0.2052,-2.0516,-1.0432,9.7547,0.0009,0.0065,0.0008,1.0000,-0.0497,-0.0263,0.2442
248,Pelvis,0,-0.2926,0.4409,-0.7338,-0.4260,0.2398,0.2829,-0.2470,-0.0712,0.9229,-3.3851,5.5455,-2.7460,1.9693,0.0030,0.0035,-0.0031,1.0000,0.1386,-0.0692,0.0485
248,Right,0,-0.2448,-0.3759,0.5510,0.7037,-4.8943,-0.7023,-1.3737,-13.8282,-2.1079,0.4678,-1.0322,0.8779,17.3179,-0.0611,-0.0088,-0.0172,0.9979,-0.0289,0.0488,0.4303
249,Left,0,0.0804,0.0906,-0.9510,0.2846,-0.0150,0.4915,0.0955,0.1121,0.1317,0.0118,-2.1101,-1.2893,9.5098,-0.0002,0.0061,0.0012,1.0000,-0.0513,-0.0322,0.2381
249,Pelvis,0,-0.2956,0.4357,-0.7344,-0.4282,0.5171,0.3393,-0.3235,-0.6657,-0.0851,-3.4566,5.4101,-1.8871,2.8321,0.0065,0.0042,-0.0040,1.0000,0.1354,-0.0482,0.0699
249,Right,0,-0.2170,-0.3902,0.5571,0.7002,-2.5431,-3.8162,-0.8141,-9.3293,-18.7992,11.3222,-13.3319,-14.4294,22.4036,-0.0318,-0.0477,-0.0102,0.9983,-0.3634,-0.3395,0.5542
250,Left,0,0.0864,0.0934,-0.9499,0.2855,-0.0966,0.5255,0.1172,0.0712,0.2189,0.1775,-2.2818,-1.4120,9.6259,-0.0012,0.0066,0.0015,1.0000,-0.0554,-0.0351,0.2411
250,Pelvis,0,-0.3008,0.4279,-0.7352,-0.4312,0.5716,0.3054,-0.2585,-1.2491,-1.6209,-3.8328,4.8134,-0.7173,4.0329,0.0071,0.0038,-0.0032,1.0000,0.1207,-0.0190,0.1002
250,Right,0,-0.2331,-0.2911,0.6193,0.6910,-0.5890,-2.7912,-0.0801,-9.7027,4.7957,0.6189,4.8321,0.5607,14.2263,-0.0074,-0.0349,-0.0010,0.9994,0.1083,0.0165,0.3595
251,Left,0,0.0927,0.0971,-0.9487,0.2864,-0.1514,0.5619,0.1179,0.1173,0.2661,0.0802,-2.4581,-1.4353,9.4791,-0.0019,0.0070,0.0015,1.0000,-0.0597,-0.0355,0.2375
251,Pelvis,0,-0.3081,0.4154,-0.7363,-0.4363,0.2849,-0.1482,-0.1206,-2.4235,-1.9360,-3.2661,5.6278,0.4387,4.5404,0.0036,-0.0019,-0.0015,1.0000,0.1405,0.0103,0.1138
251,Right,0,-0.1953,-0.1925,0.6471,0.7114,-0.2513,-0.0486,-0.1141,-6.7230,0.2643,-0.9616,-0.1499,1.0780,11.0647,-0.0031,-0.0006,-0.0014,1.0000,-0.0039,0.0278,0.2765
252,Left,0,0.0984,0.1010,-0.9474,0.2874,-0.1787,0.5158,0.1244,0.1594,0.6726,0.0878,-2.8409,-1.7762,9.3420,-0.0022,0.0064,0.0016,1.0000,-0.0694,-0.0440,0.2341
252,Pelvis,0,-0.3187,0.4008,-0.7353,-0.4439,-0.1103,-0.5246,0.1279,-3.1007,-1.8004,-1.2663,7.5447,0.7295,5.3333,-0.0014,-0.0066,0.0016,1.0000,0.1877,0.0187,0.1345
252,Right,0,-0.1510,-0.1084,0.6638,0.7244,-0.0538,0.4834,-0.0593,-4.1571,-4.4379,-1.9995,-5.0960,0.7132,8.4585,-0.0007,0.0060,-0.0007,1.0000,-0.1261,0.0181,0.2122
253,Left,0,0.1025,0.1040,-0.9462,0.2888,-0.1475,0.3654,0.1387,0.5134,0.6505,0.1346,-3.2405,-1.5948,9.3055,-0.0018,0.0046,0.0017,1.0000,-0.0799,-0.0396,0.2331
253,Pelvis,0,-0.3319,0.3855,-0.7318,-0.4536,-0.3043,-0.6064,0.2238,-1.1350,-1.4878,0.4398,8.3338,-1.1738,6.1472,-0.0038,-0.0076,0.0028,1.0000,0.2073,-0.0282,0.1554
253,Right,0,-0.1244,-0.0452,0.6775,0.7235,-0.1454,-0.5257,0.0468,-4.8477,-6.3461,-2.4552,-7.4791,2.6085,7.4275,-0.0018,-0.0066,0.0006,1.0000,-0.1882,0.0654,0.1843
254,Left,0,0.1039,0.1065,-0.9456,0.2894,-0.1510,0.1352,0.0522,0.6997,0.4725,0.1500,-3.3696,-1.3763,9.3123,-0.0019,0.0017,0.0007,1.0000,-0.0838,-0.0340,0.2330
254,Pelvis,0,-0.3416,0.3725,-0.7293,-0.4611,-0.1200,-0.5383,0.0723,-0.6288,-1.4929,1.5387,9.1019,-1.5463,6.8002,-0.0015,-0.0067,0.0009,1.0000,0.2264,-0.0382,0.1716
254,Right,0,-0.1061,0.0007,0.6853,0.7205,-0.4061,-1.8193,-0.1262,-3.3493,-2.9383,-0.7683,-4.6270,1.8721,8.7611,-0.0051,-0.0227,-0.0016,0.9997,-0.1205,0.0481,0.2161
255,Left,0,0.1047,0.1086,-0.9452,0.2896,-0.1348,0.0777,0.0113,-0.2359,0.1605,0.0125,-2.4463,-1.6704,9.3723,-0.0017,0.0010,0.0001,1.0000,-0.0609,-0.0414,0.2344
255,Pelvis,0,-0.3495,0.3623,-0.7275,-0.4661,-0.0314,-0.6156,-0.0207,-1.3650,-0.9170,1.3747,9.4702,-0.7032,6.1388,-0.0004,-0.0077,-0.0003,1.0000,0.2356,-0.0176,0.1553
255,Right,0,-0.0965,0.0411,0.6888,0.7173,-0.1479,-0.8232,0.1131,-0.7907,3.0170,0.0774,0.9152,0.0965,10.3294,-0.0018,-0.0103,0.0014,0.9999,0.0202,0.0029,0.2584
256,Left,0,0.1062,0.1096,-0.9446,0.2905,-0.0363,0.1033,0.0860,-0.3638,0.3464,-0.3538,-2.3750,-1.8612,8.9788,-0.0005,0.0013,0.0011,1.0000,-0.0590,-0.0465,0.2246
256,Pelvis,0,-0.3585,0.3568,-0.7247,-0.4680,-0.0339,-0.7780,0.1326,-0.8668,-1.4680,0.9925,8.8058,-0.6847,6.4538,-0.0004,-0.0097,0.0017,1.0000,0.2186,-0.0167,0.1635
256,Right,0,-0.0900,0.0621,0.6901,0.7154,-0.2872,0.1963,-0.1902,-3.5830,-0.4127,-0.2793,-2.5467,3.1949,9.3382,-0.0036,0.0025,-0.0024,1.0000,-0.0629,0.0809,0.2333
257,Left,0,0.1091,0.1094,-0.9439,0.2919,0.0863,0.1737,0.1526,-0.2325,0.1508,-0.1253,-2.4824,-1.6539,9.2209,0.0011,0.0022,0.0019,1.0000,-0.0615,-0.0417,0.2306
257,Pelvis,0,-0.3669,0.3558,-0.7215,-0.4671,-0.1509,-1.0046,0.2690,-1.3063,-1.1950,2.0247,10.0138,-0.3818,6.5456,-0.0019,-0.0126,0.0034,0.9999,0.2483,-0.0084,0.1668
257,Right,0,-0.0825,0.0780,0.6925,0.7125,-0.3500,0.0881,-0.2206,-0.7118,-1.9276,-0.2863,-4.0331,0.6182,8.8503,-0.0044,0.0011,-0.0028,1.0000,-0.1005,0.0167,0.2213
258,Left,0,0.1136,0.1094,-0.9430,0.2930,0.1186,0.3152,0.1451,-0.3994,-0.1381,-0.0446,-2.2860,-1.5024,9.3868,0.0015,0.0039,0.0018,1.0000,-0.0562,-0.0380,0.2348
258,Pelvis,0,-0.3748,0.3547,-0.7182,-0.4668,-0.1199,-0.8827,0.2067,-0.6101,-0.5569,3.3073,11.2869,-1.3089,6.6119,-0.0015,-0.0110,0.0026,0.9999,0.2804,-0.0317,0.1684
258,Right,0,-0.0796,0.0895,0.6925,0.7114,-0.2684,-0.0793,-0.1336,-0.6139,-0.9966,-0.1341,-3.2907,0.7258,9.1482,-0.0034,-0.0010,-0.0017,1.0000,-0.0825,0.0190,0.2286
259,Left,0,0.1203,0.1090,-0.9418,0.2944,0.1891,0.4768,0.2028,-0.4737,0.2045,-0.0243,-2.5159,-1.7840,9.3042,0.0024,0.0060,0.0025,1.0000,-0.0614,-0.0453,0.2329
259,Pelvis,0,-0.3834,0.3546,-0.7150,-0.4648,-0.0005,-0.9068,0.1893,-0.4820,-0.7981,3.0370,11.0284,-1.2070,6.5504,-0.0000,-0.0113,0.0024,0.9999,0.2739,-0.0295,0.1669
259,Right,0,-0.0801,0.0989,0.6913,0.7113,-0.2375,0.0597,-0.1241,-1.2829,-0.2089,-0.1266,-2.6604,1.5279,9.2789,-0.0030,0.0007,-0.0016,1.0000,-0.0663,0.0390,0.2319
260,Left,0,0.1270,0.1086,-0.9405,0.2959,0.1970,0.4904,0.2169,0.3628,0.0624,-0.0636,-3.2176,-1.1276,9.1410,0.0025,0.0061,0.0027,1.0000,-0.0790,-0.0290,0.2289
260,Pelvis,0,-0.3916,0.3562,-0.7118,-0.4616,0.0109,-0.9573,0.2315,-0.6593,-1.2384,2.6751,10.7017,-0.7733,6.5420,0.0001,-0.0120,0.0029,0.9999,0.2656,-0.0186,0.1667
260,Right,0,-0.0833,0.1066,0.6895,0.7116,-0.3398,0.2820,-0.2636,-1.2295,-0.1804,-0.0021,-2.7841,1.5499,9.3616,-0.0042,0.0035,-0.0033,1.0000,-0.0686,0.0400,0.2341
261,Left,0,0.1323,0.1086,-0.9394,0.2970,0.1300,0.3786,0.1636,0.5458,0.2529,-0.0202,-3.5841,-1.1324,9.0624,0.0016,0.0047,0.0020,1.0000,-0.0885,-0.0289,0.2269
261,Pelvis,0,-0.3997,0.3581,-0.7084,-0.4585,0.0189,-0.9740,0.2120,-0.7483,-1.4465,2.6873,10.7750,-0.5665,6.5183,0.0002,-0.0122,0.0026,0.9999,0.2674,-0.0135,0.1662
261,Right,0,-0.0875,0.1127,0.6877,0.7119,-0.3787,0.3513,-0.3259,-0.4562,-0.8086,-0.0044,-3.5004,0.7802,9.1764,-0.0047,0.0044,-0.0041,1.0000,-0.0864,0.0209,0.2297
262,Left,0,0.1368,0.1095,-0.9385,0.2976,0.0444,0.3424,0.1029,0.2929,-0.0754,0.0262,-3.3171,-0.9981,9.2139,0.0006,0.0043,0.0013,1.0000,-0.0819,-0.0252,0.2307
262,Pelvis,0,-0.4068,0.3593,-0.7051,-0.4563,0.0445,-0.8850,0.1606,-0.7631,-1.3644,3.4844,11.6318,-0.6235,6.6013,0.0006,-0.0111,0.0020,0.9999,0.2890,-0.0151,0.1682
262,Right,0,-0.0922,0.1176,0.6853,0.7128,-0.3490,0.2960,-0.2760,-0.0575,-0.9526,-0.0258,-3.7541,0.3594,9.0814,-0.0044,0.0037,-0.0035,1.0000,-0.0930,0.0103,0.2273
263,Left,0,0.1410,0.1111,-0.9376,0.2977,-0.0082,0.3312,0.0455,0.2600,-0.0213,0.0377,-3.4093,-1.0556,9.1849,-0.0001,0.0041,0.0006,1.0000,-0.0843,-0.0264,0.2300
263,Pelvis,0,-0.4129,0.3594,-0.7024,-0.4550,0.0881,-0.7356,0.1187,-0.7490,-1.4009,3.2510,11.4957,-0.5180,6.3850,0.0011,-0.0092,0.0015,1.0000,0.2859,-0.0127,0.1622
263,Right,0,-0.0964,0.1219,0.6829,0.7138,-0.2653,0.2277,-0.1437,0.1840,-0.7853,-0.0303,-3.7046,0.0962,9.0891,-0.0033,0.0028,-0.0018,1.0000,-0.0920,0.0033,0.2275
264,Left,0,0.1438,0.1126,-0.9371,0.2976,-0.0375,0.2234,0.0130,0.4136,0.4196,-0.0055,-3.8178,-1.3166,8.9565,-0.0005,0.0028,0.0002,1.0000,-0.0948,-0.0328,0.2242
264,Pelvis,0,-0.4177,0.3593,-0.7001,-0.4543,0.0743,-0.6265,0.1164,-0.6103,-1.3893,2.8132,11.1370,-0.5213,6.1168,0.0009,-0.0078,0.0015,1.0000,0.2772,-0.0128,0.1551
264,Right,0,-0.1002,0.1253,0.6803,0.7152,-0.2141,0.1614,-0.0732,-0.3186,-0.7179,0.0163,-3.7772,0.5729,9.0901,-0.0027,0.0020,-0.0009,1.0000,-0.0940,0.0150,0.2274
265,Left,0,0.1441,0.1134,-0.9369,0.2976,-0.0470,0.0140,0.0014,0.4172,0.5483,-0.1348,-3.8798,-1.4123,8.7801,-0.0006,0.0002,0.0000,1.0000,-0.0970,-0.0352,0.2195
265,Pelvis,0,-0.4210,0.3589,-0.6983,-0.4541,0.0657,-0.4973,0.1271,-0.6141,-1.2629,2.4044,10.8555,-0.4492,5.7609,0.0008,-0.0062,0.0016,1.0000,0.2705,-0.0109,0.1457
265,Right,0,-0.1036,0.1279,0.6777,0.7167,-0.2072,0.1080,-0.0621,-0.2434,-0.5339,-0.0146,-3.6753,0.4802,9.0889,-0.0026,0.0013,-0.0008,1.0000,-0.0916,0.0127,0.2273
266,Left,0,0.1437,0.1143,-0.9369,0.2976,-0.0573,-0.0600,-0.0133,-0.1535,0.0418,-0.0773,-3.1924,-1.3682,9.0961,-0.0007,-0.0007,-0.0002,1.0000,-0.0800,-0.0340,0.2274
266,Pelvis,0,-0.4230,0.3591,-0.6970,-0.4542,0.0224,-0.4107,0.1659,-0.7704,-1.0386,2.1884,10.7994,-0.3098,5.3829,0.0003,-0.0051,0.0021,1.0000,0.2693,-0.0072,0.1360
266,Right,0,-0.1067,0.1304,0.6754,0.7180,-0.1725,0.1205,-0.0296,-0.0474,-0.3195,-0.0300,-3.5314,0.2723,9.1247,-0.0022,0.0015,-0.0004,1.0000,-0.0879,0.0073,0.2282
267,Left,0,0.1449,0.1155,-0.9365,0.2977,-0.0505,0.0839,0.0052,-0.3747,-0.0151,-0.0212,-3.0203,-1.4770,9.2038,-0.0006,0.0010,0.0001,1.0000,-0.0753,-0.0368,0.2302
267,Pelvis,0,-0.4246,0.3596,-0.6956,-0.4544,-0.0258,-0.3720,0.1726,-0.8607,-1.0070,1.7244,10.4285,-0.1591,5.1071,-0.0003,-0.0047,0.0022,1.0000,0.2601,-0.0034,0.1289
267,Right,0,-0.1094,0.1333,0.6734,0.7189,-0.1166,0.1524,0.0054,-0.0031,-0.2970,-0.0484,-3.5715,0.2118,9.0900,-0.0015,0.0019,0.0001,1.0000,-0.0889,0.0056,0.2274
268,Left,0,0.1466,0.1169,-0.9361,0.2976,-0.0492,0.1403,0.0052,0.1189,0.0561,-0.0532,-3.4643,-1.2529,9.0385,-0.0006,0.0018,0.0001,1.0000,-0.0862,-0.0312,0.2261
268,Pelvis,0,-0.4259,0.3601,-0.6943,-0.4548,-0.0402,-0.3206,0.1532,-0.5555,-0.8143,1.9013,10.6053,-0.5099,5.0456,-0.0005,-0.0040,0.0019,1.0000,0.2646,-0.0122,0.1272
268,Right,0,-0.1116,0.1359,0.6717,0.7196,-0.0718,0.1358,0.0251,-0.1150,-0.4494,-0.0385,-3.7897,0.3042,9.0164,-0.0009,0.0017,0.0003,1.0000,-0.0944,0.0078,0.2256
269,Left,0,0.1474,0.1179,-0.9360,0.2972,-0.0454,0.0581,-0.0250,0.1925,0.3808,-0.0849,-3.7086,-1.4785,8.8810,-0.0006,0.0007,-0.0003,1.0000,-0.0926,-0.0368,0.2221
269,Pelvis,0,-0.4268,0.3600,-0.6936,-0.4552,-0.0067,-0.2368,0.1405,-0.5049,-0.8045,1.9758,10.6795,-0.5515,5.0513,-0.0001,-0.0030,0.0018,1.0000,0.2666,-0.0133,0.1271
269,Right,0,-0.1127,0.1381,0.6702,0.7204,-0.0337,0.0682,0.0420,-0.1042,-0.5048,-0.0622,-3.8849,0.2883,8.9533,-0.0004,0.0009,0.0005,1.0000,-0.0969,0.0073,0.2239
270,Left,0,0.1470,0.1182,-0.9361,0.2970,-0.0040,-0.0514,-0.0242,0.0577,0.3548,-0.0768,-3.5994,-1.5501,8.9196,-0.0000,-0.0006,-0.0003,1.0000,-0.0901,-0.0387,0.2229
270,Pelvis,0,-0.4267,0.3600,-0.6932,-0.4558,-0.0344,-0.1560,0.1530,-0.6899,-0.7826,1.6284,10.4131,-0.3355,4.8419,-0.0004,-0.0019,0.0019,1.0000,0.2601,-0.0078,0.1216
270,Right,0,-0.1133,0.1400,0.6688,0.7213,-0.0096,0.0236,0.0603,-0.1586,-0.2627,0.0097,-3.7256,0.3694,9.0860,-0.0001,0.0003,0.0008,1.0000,-0.0931,0.0092,0.2272
271,Left,0,0.1466,0.1181,-0.9362,0.2969,0.0127,-0.0641,-0.0154,-0.1118,0.0930,-0.0836,-3.3217,-1.4461,9.0306,0.0002,-0.0008,-0.0002,1.0000,-0.0832,-0.0362,0.2257
271,Pelvis,0,-0.4265,0.3606,-0.6926,-0.4565,-0.0926,-0.1504,0.1552,-0.6194,-0.6019,1.0257,9.9040,-0.3937,4.4690,-0.0012,-0.0019,0.0019,1.0000,0.2474,-0.0092,0.1122
271,Right,0,-0.1140,0.1418,0.6677,0.7219,-0.0159,0.0414,0.0640,-0.2993,-0.1279,0.0752,-3.6642,0.5317,9.1742,-0.0002,0.0005,0.0008,1.0000,-0.0915,0.0133,0.2294
272,Left,0,0.1469,0.1182,-0.9362,0.2967,0.0205,-0.0054,-0.0043,-0.1723,0.0152,-0.0428,-3.2459,-1.4269,9.1054,0.0003,-0.0001,-0.0001,1.0000,-0.0812,-0.0357,0.2276
272,Pelvis,0,-0.4264,0.3609,-0.6921,-0.4571,-0.0729,-0.1287,0.1210,-0.4772,-0.3492,0.5345,9.5060,-0.5558,4.0916,-0.0009,-0.0016,0.0015,1.0000,0.2375,-0.0134,0.1027
272,Right,0,-0.1150,0.1432,0.6667,0.7223,-0.0491,0.0610,0.0315,-0.4724,-0.1721,-0.0002,-3.7221,0.7031,9.0658,-0.0006,0.0008,0.0004,1.0000,-0.0929,0.0177,0.2267
273,Left,0,0.1475,0.1183,-0.9361,0.2967,0.0265,0.0294,0.0060,-0.0392,0.0441,-0.0663,-3.3645,-1.3671,9.0448,0.0003,0.0004,0.0001,1.0000,-0.0840,-0.0343,0.2261
273,Pelvis,0,-0.4267,0.3608,-0.6915,-0.4577,-0.0549,-0.1180,0.0754,-0.3958,-0.1771,0.5937,9.6019,-0.6864,3.9766,-0.0007,-0.0015,0.0009,1.0000,0.2399,-0.0169,0.0998
273,Right,0,-0.1161,0.1441,0.6657,0.7229,-0.0697,0.0380,-0.0041,-0.2500,-0.2948,-0.0437,-3.8327,0.4669,8.9819,-0.0009,0.0005,-0.0001,1.0000,-0.0957,0.0119,0.2246
274,Left,0,0.1480,0.1187,-0.9360,0.2965,-0.0007,0.0270,-0.0062,0.0714,0.0328,-0.0803,-3.4507,-1.2921,9.0082,-0.0000,0.0003,-0.0001,1.0000,-0.0862,-0.0323,0.2252
274,Pelvis,0,-0.4268,0.3600,-0.6913,-0.4586,-0.0382,-0.0413,0.0361,-0.5266,-0.2586,0.5523,9.5661,-0.5172,3.9998,-0.0005,-0.0005,0.0005,1.0000,0.2391,-0.0128,0.1001
274,Right,0,-0.1164,0.1448,0.6649,0.7234,-0.0438,-0.0067,0.0018,-0.0478,-0.2964,-0.0752,-3.8267,0.2602,8.9553,-0.0005,-0.0001,0.0000,1.0000,-0.0957,0.0066,0.2239
275,Left,0,0.1482,0.1194,-0.9360,0.2963,-0.0277,0.0172,-0.0221,0.0477,0.0228,-0.0727,-3.4382,-1.3071,9.0189,-0.0003,0.0002,-0.0003,1.0000,-0.0859,-0.0326,0.2255
275,Pelvis,0,-0.4269,0.3594,-0.6911,-0.4594,-0.0588,-0.0268,0.0279,-0.4762,-0.2022,0.6151,9.6295,-0.5707,3.9940,-0.0007,-0.0003,0.0003,1.0000,0.2407,-0.0141,0.0999
275,Right,0,-0.1163,0.1454,0.6643,0.7239,-0.0121,-0.0334,0.0226,-0.0672,-0.1575,-0.0158,-3.7306,0.2951,9.0557,-0.0002,-0.0004,0.0003,1.0000,-0.0934,0.0074,0.2264
276,Left,0,0.1486,0.1204,-0.9359,0.2958,-0.0538,0.0422,-0.0391,-0.0773,0.0025,-0.0540,-3.3460,-1.3821,9.0627,-0.0007,0.0005,-0.0005,1.0000,-0.0835,-0.0344,0.2266
276,Pelvis,0,-0.4269,0.3589,-0.6910,-0.4599,-0.0760,-0.0228,0.0364,-0.3340,-0.1051,0.2262,9.2718,-0.6814,3.8041,-0.0010,-0.0003,0.0005,1.0000,0.2318,-0.0168,0.0952
276,Right,0,-0.1162,0.1462,0.6636,0.7244,0.0054,-0.0131,0.0250,-0.1319,-0.0470,-0.0096,-3.6425,0.3773,9.0945,0.0001,-0.0002,0.0003,1.0000,-0.0911,0.0094,0.2273
277,Left,0,0.1492,0.1217,-0.9358,0.2954,-0.0639,0.0688,-0.0358,-0.0765,0.1076,-0.0591,-3.4136,-1.4839,9.0164,-0.0008,0.0009,-0.0004,1.0000,-0.0852,-0.0369,0.2255
277,Pelvis,0,-0.4269,0.3585,-0.6910,-0.4601,-0.0642,-0.0187,0.0459,-0.2896,-0.0024,0.0859,9.1661,-0.7332,3.6759,-0.0008,-0.0002,0.0006,1.0000,0.2291,-0.0181,0.0920
277,Right,0,-0.1161,0.1473,0.6631,0.7246,0.0194,0.0174,0.0284,-0.0910,-0.0648,-0.0272,-3.6603,0.3457,9.0693,0.0002,0.0002,0.0004,1.0000,-0.0915,0.0086,0.2268
278,Left,0,0.1497,0.1230,-0.9357,0.2949,-0.0711,0.0592,-0.0395,0.0261,0.0909,-0.0653,-3.4987,-1.4306,8.9852,-0.0009,0.0007,-0.0005,1.0000,-0.0873,-0.0355,0.2247
278,Pelvis,0,-0.4272,0.3581,-0.6912,-0.4600,-0.0581,-0.0232,0.0456,-0.2758,-0.0273,0.0392,9.1115,-0.7279,3.6860,-0.0007,-0.0003,0.0006,1.0000,0.2278,-0.0180,0.0922
278,Right,0,-0.1158,0.1482,0.6628,0.7248,0.0296,0.0032,0.0347,-0.1102,-0.1673,-0.0550,-3.7576,0.3681,8.9999,0.0004,0.0000,0.0004,1.0000,-0.0939,0.0091,0.2250
279,Left,0,0.1497,0.1241,-0.9357,0.2944,-0.0614,0.0228,-0.0478,-0.0154,0.1252,-0.0992,-3.4822,-1.4990,8.9440,-0.0008,0.0003,-0.0006,1.0000,-0.0870,-0.0373,0.2237
279,Pelvis,0,-0.4276,0.3578,-0.6911,-0.4599,-0.0650,-0.0415,0.0256,-0.3265,-0.0397,-0.0630,9.0254,-0.6603,3.6428,-0.0008,-0.0005,0.0003,1.0000,0.2256,-0.0164,0.0912
279,Right,0,-0.1149,0.1489,0.6626,0.7250,0.0482,-0.0417,0.0464,-0.0113,-0.2404,-0.1418,-3.7893,0.2773,8.8966,0.0006,-0.0005,0.0006,1.0000,-0.0949,0.0067,0.2224
280,Left,0,0.1496,0.1249,-0.9358,0.2938,-0.0490,0.0018,-0.0541,-0.0062,0.0025,-0.0655,-3.4416,-1.4203,9.0081,-0.0006,0.0000,-0.0007,1.0000,-0.0861,-0.0353,0.2252
280,Pelvis,0,-0.4285,0.3577,-0.6907,-0.4598,-0.0755,-0.0745,-0.0014,-0.2823,0.0031,-0.1898,8.9181,-0.6944,3.5588,-0.0009,-0.0009,-0.0000,1.0000,0.2229,-0.0173,0.0892
280,Right,0,-0.1133,0.1500,0.6626,0.7250,0.1197,-0.0581,0.0762,0.0963,-0.1532,-0.0747,-3.7211,0.2090,8.9984,0.0015,-0.0007,0.0010,1.0000,-0.0932,0.0048,0.2249
281,Left,0,0.1495,0.1260,-0.9359,0.2930,-0.0591,0.0118,-0.0752,-0.0437,0.0274,-0.0313,-3.4384,-1.4873,9.0357,-0.0007,0.0001,-0.0009,1.0000,-0.0860,-0.0369,0.2259
281,Pelvis,0,-0.4296,0.3576,-0.6901,-0.4597,-0.0837,-0.0866,-0.0188,-0.3103,0.0010,-0.2823,8.8453,-0.6473,3.5025,-0.0010,-0.0011,-0.0002,1.0000,0.2210,-0.0161,0.0878
281,Right,0,-0.1112,0.1516,0.6627,0.7249,0.1656,-0.0486,0.1113,0.0080,-0.0504,-0.0281,-3.6444,0.3520,9.0738,0.0021,-0.0006,0.0014,1.0000,-0.0913,0.0082,0.2268
282,Left,0,0.1491,0.1272,-0.9360,0.2922,-0.0769,0.0006,-0.0781,-0.0855,0.1290,-0.0400,-3.4549,-1.6156,8.9990,-0.0010,0.0000,-0.0010,1.0000,-0.0864,-0.0401,0.2250
282,Pelvis,0,-0.4311,0.3577,-0.6895,-0.4591,-0.0663,-0.1221,-0.0135,-0.2901,0.0725,-0.2523,8.9016,-0.6809,3.4334,-0.0008,-0.0015,-0.0002,1.0000,0.2224,-0.0170,0.0862
282,Right,0,-0.1088,0.1535,0.6630,0.7246,0.1997,-0.0356,0.1342,0.1276,-0.0668,-0.0385,-3.6425,0.2861,9.0667,0.0025,-0.0004,0.0017,1.0000,-0.0912,0.0064,0.2266
283,Left,0,0.1488,0.1283,-0.9361,0.2916,-0.0745,-0.0014,-0.0644,-0.2488,0.2861,-0.0840,-3.3896,-1.8552,8.9364,-0.0009,-0.0000,-0.0008,1.0000,-0.0848,-0.0461,0.2235
283,Pelvis,0,-0.4333,0.3577,-0.6890,-0.4579,-0.0177,-0.1705,-0.0048,-0.2565,0.1580,-0.3665,8.8301,-0.7176,3.2919,-0.0002,-0.0021,-0.0001,1.0000,0.2206,-0.0179,0.0828
283,Right,0,-0.1069,0.1551,0.6633,0.7242,0.1576,-0.0295,0.1341,-0.0423,0.0155,-0.0271,-3.5801,0.5179,9.0926,0.0020,-0.0004,0.0017,1.0000,-0.0896,0.0123,0.2273
284,Left,0,0.1485,0.1282,-0.9362,0.2915,0.0135,-0.0296,-0.0057,-0.2172,0.2647,-0.0659,-3.4062,-1.8352,8.9524,0.0002,-0.0004,-0.0001,1.0000,-0.0852,-0.0459,0.2238
284,Pelvis,0,-0.4359,0.3572,-0.6886,-0.4563,0.0312,-0.1763,-0.0156,-0.0734,0.2961,-0.5476,8.6843,-0.9036,3.1147,0.0004,-0.0022,-0.0002,1.0000,0.2169,-0.0227,0.0783
284,Right,0,-0.1057,0.1564,0.6635,0.7240,0.1107,-0.0155,0.0883,-0.4838,0.0335,0.0932,-3.6377,1.0069,9.1715,0.0014,-0.0002,0.0011,1.0000,-0.0910,0.0248,0.2293
285,Left,0,0.1484,0.1276,-0.9363,0.2914,0.0583,-0.0268,0.0008,-0.1263,0.0499,-0.0786,-3.3588,-1.6045,8.9953,0.0007,-0.0003,0.0000,1.0000,-0.0840,-0.0403,0.2248
285,Pelvis,0,-0.4389,0.3561,-0.6884,-0.4546,0.0929,-0.1636,-0.0420,-0.0090,0.2017,-0.5593,8.6456,-0.9109,3.1766,0.0012,-0.0020,-0.0005,1.0000,0.2160,-0.0230,0.0798
285,Right,0,-0.1050,0.1569,0.6634,0.7241,0.0494,-0.0206,0.0298,-0.4515,-0.0086,0.0630,-3.6619,0.9957,9.1287,0.0006,-0.0003,0.0004,1.0000,-0.0916,0.0247,0.2282
286,Left,0,0.1484,0.1269,-0.9365,0.2914,0.0703,-0.0276,0.0032,-0.0367,0.0668,-0.0581,-3.4399,-1.5575,8.9944,0.0009,-0.0003,0.0000,1.0000,-0.0861,-0.0391,0.2248
286,Pelvis,0,-0.4422,0.3546,-0.6883,-0.4529,0.1299,-0.1642,-0.0624,-0.2241,0.0200,-0.2592,8.9260,-0.6463,3.3509,0.0016,-0.0021,-0.0008,1.0000,0.2230,-0.0165,0.0842
286,Right,0,-0.1044,0.1572,0.6634,0.7241,0.0256,-0.0270,0.0126,-0.0348,-0.0682,-0.0015,-3.6617,0.5866,9.0837,0.0003,-0.0003,0.0002,1.0000,-0.0916,0.0146,0.2271
287,Left,0,0.1480,0.1265,-0.9367,0.2911,0.0391,-0.0429,-0.0212,0.1211,-0.0310,-0.0699,-3.5028,-1.3772,8.9873,0.0005,-0.0005,-0.0003,1.0000,-0.0877,-0.0345,0.2246
287,Pelvis,0,-0.4456,0.3529,-0.6881,-0.4510,0.1454,-0.1725,-0.0734,-0.0716,0.0407,-0.1779,8.9943,-0.7678,3.3689,0.0018,-0.0022,-0.0009,1.0000,0.2247,-0.0196,0.0847
287,Right,0,-0.1035,0.1573,0.6636,0.7240,0.0406,-0.0585,0.0309,-0.0388,-0.1785,-0.0333,-3.7458,0.5909,9.0161,0.0005,-0.0007,0.0004,1.0000,-0.0938,0.0146,0.2253
288,Left,0,0.1472,0.1263,-0.9370,0.2907,0.0123,-0.0681,-0.0414,-0.0034,0.0750,-0.0829,-3.4413,-1.5319,8.9713,0.0002,-0.0009,-0.0005,1.0000,-0.0862,-0.0383,0.2242
288,Pelvis,0,-0.4493,0.3511,-0.6878,-0.4492,0.1743,-0.1836,-0.0853,-0.0388,0.0555,-0.1548,9.0314,-0.7665,3.3353,0.0022,-0.0023,-0.0011,1.0000,0.2256,-0.0196,0.0839
288,Right,0,-0.1019,0.1569,0.6639,0.7241,0.0503,-0.1213,0.0389,-0.1019,-0.1869,-0.0533,-3.7331,0.6681,8.9949,0.0006,-0.0015,0.0005,1.0000,-0.0937,0.0165,0.2247
289,Left,0,0.1461,0.1263,-0.9373,0.2901,-0.0037,-0.0831,-0.0570,-0.0227,0.0145,-0.0373,-3.3933,-1.5074,9.0428,-0.0000,-0.0010,-0.0007,1.0000,-0.0851,-0.0376,0.2260
289,Pelvis,0,-0.4529,0.3489,-0.6877,-0.4475,0.1923,-0.1587,-0.1023,0.0621,0.1143,-0.3412,8.8726,-0.8239,3.2130,0.0024,-0.0020,-0.0013,1.0000,0.2216,-0.0211,0.0807
289,Right,0,-0.1000,0.1562,0.6642,0.7242,0.0540,-0.1638,0.0427,-0.1787,-0.0842,-0.0454,-3.6163,0.7732,9.0423,0.0007,-0.0020,0.0005,1.0000,-0.0909,0.0191,0.2259
290,Left,0,0.1447,0.1263,-0.9377,0.2896,-0.0160,-0.1055,-0.0612,-0.0629,0.0848,-0.0632,-3.3654,-1.5926,9.0112,-0.0002,-0.0013,-0.0008,1.0000,-0.0845,-0.0397,0.2252
290,Pelvis,0,-0.4565,0.3466,-0.6875,-0.4458,0.2086,-0.1566,-0.1092,0.0882,0.1779,-0.3678,8.8774,-0.8240,3.1239,0.0026,-0.0020,-0.0014,1.0000,0.2218,-0.0211,0.0785
290,Right,0,-0.0981,0.1552,0.6646,0.7243,0.0360,-0.1745,0.0439,-0.2519,0.0137,0.0199,-3.5175,0.8765,9.1435,0.0004,-0.0022,0.0005,1.0000,-0.0884,0.0218,0.2284
291,Left,0,0.1428,0.1262,-0.9381,0.2891,-0.0171,-0.1527,-0.0565,0.0017,0.1858,-0.0652,-3.4363,-1.6466,8.9738,-0.0002,-0.0019,-0.0007,1.0000,-0.0864,-0.0411,0.2242
291,Pelvis,0,-0.4599,0.3447,-0.6875,-0.4439,0.1970,-0.1557,-0.0740,0.1352,0.2179,-0.0838,9.1616,-0.8607,3.1689,0.0025,-0.0019,-0.0009,1.0000,0.2289,-0.0219,0.0796
291,Right,0,-0.0966,0.1542,0.6650,0.7244,0.0145,-0.1561,0.0336,-0.1717,0.0927,0.0163,-3.4011,0.8167,9.1877,0.0002,-0.0020,0.0004,1.0000,-0.0855,0.0203,0.2295
292,Left,0,0.1399,0.1257,-0.9387,0.2890,-0.0083,-0.2337,-0.0451,0.0252,0.1901,-0.0822,-3.4066,-1.6434,8.9674,-0.0001,-0.0029,-0.0006,1.0000,-0.0858,-0.0410,0.2239
292,Pelvis,0,-0.4629,0.3432,-0.6878,-0.4415,0.2013,-0.1497,-0.0061,0.0141,0.2038,0.0107,9.2819,-0.7207,3.1412,0.0025,-0.0019,-0.0001,1.0000,0.2319,-0.0182,0.0789
292,Right,0,-0.0955,0.1533,0.6654,0.7243,0.0000,-0.1179,0.0318,-0.0574,0.1153,0.0078,-3.3391,0.7125,9.2088,0.0000,-0.0015,0.0004,1.0000,-0.0838,0.0178,0.2301
293,Left,0,0.1363,0.1249,-0.9393,0.2889,-0.0126,-0.3052,-0.0426,0.0217,0.0672,-0.0904,-3.2772,-1.5538,9.0208,-0.0002,-0.0038,-0.0005,1.0000,-0.0828,-0.0388,0.2252
293,Pelvis,0,-0.4656,0.3419,-0.6885,-0.4385,0.2164,-0.1475,0.0514,-0.0611,0.2525,-0.0254,9.2876,-0.6534,3.0285,0.0027,-0.0018,0.0006,1.0000,0.2321,-0.0164,0.0761
293,Right,0,-0.0947,0.1530,0.6660,0.7240,0.0069,-0.0712,0.0431,-0.0439,0.0545,-0.0094,-3.3683,0.6991,9.1802,0.0001,-0.0009,0.0005,1.0000,-0.0844,0.0174,0.2294
294,Left,0,0.1328,0.1245,-0.9399,0.2889,-0.0324,-0.2773,-0.0422,-0.1552,-0.0378,-0.0553,-3.0276,-1.5877,9.1403,-0.0004,-0.0035,-0.0005,1.0000,-0.0765,-0.0396,0.2283
294,Pelvis,0,-0.4682,0.3404,-0.6895,-0.4353,0.2290,-0.1241,0.0657,-0.1302,0.1572,0.0315,9.3369,-0.5507,3.0770,0.0029,-0.0016,0.0008,1.0000,0.2333,-0.0138,0.0772
294,Right,0,-0.0940,0.1525,0.6665,0.7237,-0.0004,-0.0696,0.0344,-0.1459,-0.0181,0.0014,-3.4312,0.8011,9.1610,-0.0000,-0.0009,0.0004,1.0000,-0.0860,0.0200,0.2289
295,Left,0,0.1301,0.1247,-0.9403,0.2888,-0.0641,-0.2070,-0.0479,-0.1532,-0.1341,-0.0571,-2.9230,-1.5255,9.1838,-0.0008,-0.0026,-0.0006,1.0000,-0.0737,-0.0379,0.2294
295,Pelvis,0,-0.4705,0.3388,-0.6906,-0.4324,0.2136,-0.0994,0.0568,-0.1237,0.1092,0.2902,9.5748,-0.5483,3.1807,0.0027,-0.0012,0.0007,1.0000,0.2393,-0.0138,0.0798
295,Right,0,-0.0934,0.1519,0.6669,0.7235,-0.0122,-0.0781,0.0271,-0.1624,0.0022,-0.0024,-3.3955,0.8231,9.1684,-0.0002,-0.0010,0.0003,1.0000,-0.0851,0.0206,0.2291
296,Left,0,0.1280,0.1254,-0.9406,0.2884,-0.0882,-0.1436,-0.0584,-0.1121,-0.0114,-0.0657,-2.9737,-1.6221,9.1402,-0.0011,-0.0018,-0.0007,1.0000,-0.0748,-0.0402,0.2284
296,Pelvis,0,-0.4727,0.3372,-0.6917,-0.4294,0.2147,-0.0833,0.0650,-0.1024,0.1074,0.3460,9.6305,-0.5656,3.1866,0.0027,-0.0010,0.0008,1.0000,0.2407,-0.0142,0.0799
296,Right,0,-0.0930,0.1511,0.6674,0.7233,-0.0284,-0.0723,0.0168,-0.1474,0.0329,0.0357,-3.3622,0.8137,9.2220,-0.0004,-0.0009,0.0002,1.0000,-0.0843,0.0204,0.2305
297,Left,0,0.1260,0.1262,-0.9409,0.2881,-0.0946,-0.1288,-0.0606,-0.1371,0.0657,-0.0690,-2.9586,-1.7247,9.1233,-0.0012,-0.0016,-0.0008,1.0000,-0.0744,-0.0428,0.2280
297,Pelvis,0,-0.4746,0.3357,-0.6931,-0.4262,0.2099,-0.0777,0.0948,-0.0954,0.0628,0.5773,9.8416,-0.5677,3.2841,0.0026,-0.0010,0.0012,1.0000,0.2460,-0.0141,0.0823
297,Right,0,-0.0928,0.1503,0.6678,0.7231,-0.0424,-0.0650,0.0114,-0.0973,0.0294,0.0241,-3.3431,0.7586,9.2206,-0.0005,-0.0008,0.0001,1.0000,-0.0838,0.0191,0.2304
298,Left,0,0.1244,0.1272,-0.9411,0.2877,-0.0995,-0.0988,-0.0564,-0.1987,-0.0305,-0.0449,-2.8391,-1.7152,9.1896,-0.0012,-0.0012,-0.0007,1.0000,-0.0713,-0.0425,0.2297
298,Pelvis,0,-0.4763,0.3344,-0.6947,-0.4227,0.2138,-0.0560,0.1326,-0.2910,-0.0324,0.4666,9.7530,-0.3522,3.2412,0.0027,-0.0007,0.0017,1.0000,0.2438,-0.0086,0.0812
298,Right,0,-0.0927,0.1495,0.6683,0.7228,-0.0543,-0.0558,0.0135,-0.1210,0.0278,-0.0009,-3.3241,0.7730,9.1999,-0.0007,-0.0007,0.0002,1.0000,-0.0833,0.0195,0.2299
299,Left,0,0.1233,0.1289,-0.9411,0.2872,-0.1393,-0.0371,-0.0641,-0.0742,-0.1193,-0.0877,-2.8624,-1.5988,9.1568,-0.0017,-0.0005,-0.0008,1.0000,-0.0717,-0.0395,0.2290
299,Pelvis,0,-0.5113,0.2789,-0.7383,-0.3402,0.1822,-0.0541,0.1578,-0.2980,0.0097,0.4879,9.8054,-0.4178,3.1416,0.0023,-0.0007,0.0020,1.0000,0.2451,-0.0101,0.0787
299,Right,0,-0.0929,0.1485,0.6688,0.7225,-0.0704,-0.0533,0.0134,-0.1442,0.0350,0.0146,-3.3118,0.7871,9.2201,-0.0009,-0.0007,0.0002,1.0000,-0.0830,0.0199,0.2304
300,Left,0,0.1230,0.1313,-0.9410,0.2865,-0.1762,0.0387,-0.0773,-0.1668,-0.1283,-0.0653,-2.7871,-1.6911,9.1885,-0.0022,0.0005,-0.0010,1.0000,-0.0696,-0.0417,0.2298
300,Pelvis,0,-0.5354,0.2298,-0.7672,-0.2681,0.2049,-0.0271,0.1525,-0.3606,-0.0953,0.4364,9.7695,-0.3533,3.1010,0.0026,-0.0003,0.0019,1.0000,0.2442,-0.0086,0.0776
300,Right,0,-0.0932,0.1474,0.6694,0.7222,-0.0871,-0.0495,0.0129,-0.1318,0.0257,0.0166,-3.3088,0.7597,9.2253,-0.0011,-0.0006,0.0002,1.0000,-0.0829,0.0192,0.2306
301,Left,0,0.1232,0.1340,-0.9409,0.2856,-0.1862,0.0934,-0.0846,-0.2502,0.0738,-0.0532,-2.8370,-1.9515,9.1356,-0.0023,0.0012,-0.0011,1.0000,-0.0707,-0.0482,0.2286
301,Pelvis,0,-0.5513,0.1886,-0.7857,-0.2079,0.2317,0.0019,0.1526,-0.4339,-0.1610,0.4550,9.8138,-0.3113,3.0387,0.0029,0.0000,0.0019,1.0000,0.2454,-0.0075,0.0759
301,Right,0,-0.0936,0.1462,0.6700,0.7218,-0.0991,-0.0527,0.0165,-0.1171,-0.0059,-0.0049,-3.3187,0.7233,9.2016,-0.0012,-0.0007,0.0002,1.0000,-0.0831,0.0184,0.2300
302,Left,0,0.1233,0.1365,-0.9408,0.2848,-0.1773,0.0755,-0.0745,-0.0344,0.1175,-0.0895,-3.0366,-1.9053,9.0391,-0.0022,0.0009,-0.0009,1.0000,-0.0757,-0.0471,0.2262
302,Pelvis,0,-0.5613,0.1549,-0.7972,-0.1592,0.2423,0.0241,0.1457,-0.3023,-0.3243,0.1981,9.5255,-0.2538,3.1002,0.0030,0.0003,0.0018,1.0000,0.2382,-0.0061,0.0774
302,Right,0,-0.0940,0.1449,0.6707,0.7214,-0.1087,-0.0550,0.0181,-0.0323,-0.0085,-0.0387,-3.2924,0.6168,9.1821,-0.0014,-0.0007,0.0002,1.0000,-0.0825,0.0157,0.2295
303,Left,0,0.1232,0.1389,-0.9406,0.2841,-0.1718,0.0602,-0.0750,-0.1127,0.1079,-0.0764,-2.9838,-1.9913,9.0527,-0.0021,0.0008,-0.0009,1.0000,-0.0745,-0.0492,0.2265
303,Pelvis,0,-0.5678,0.1273,-0.8045,-0.1187,0.2369,0.0343,0.1698,-0.2866,-0.3846,0.2314,9.5583,-0.2348,3.1141,0.0030,0.0004,0.0021,1.0000,0.2390,-0.0056,0.0777
303,Right,0,-0.0944,0.1437,0.6714,0.7209,-0.0978,-0.0512,0.0275,-0.0198,-0.0001,-0.0006,-3.2845,0.5877,9.2274,-0.0012,-0.0006,0.0003,1.0000,-0.0823,0.0149,0.2306
304,Left,0,0.1233,0.1413,-0.9405,0.2832,-0.1617,0.0751,-0.0881,-0.0883,0.0494,-0.0683,-2.9875,-1.9776,9.0624,-0.0020,0.0009,-0.0011,1.0000,-0.0745,-0.0489,0.2267
304,Pelvis,0,-0.5719,0.1060,-0.8088,-0.0867,0.1824,0.0294,0.1782,-0.3050,-0.5415,0.0776,9.4233,-0.1011,3.0653,0.0023,0.0004,0.0022,1.0000,0.2356,-0.0022,0.0765
304,Right,0,-0.0948,0.1427,0.6721,0.7204,-0.0905,-0.0386,0.0337,-0.0408,0.0502,-0.0300,-3.2181,0.5939,9.2194,-0.0011,-0.0005,0.0004,1.0000,-0.0806,0.0151,0.2304
305,Left,0,0.1234,0.1439,-0.9404,0.2823,-0.1794,0.0734,-0.0887,-0.1477,-0.0395,-0.0727,-2.9056,-1.9860,9.0832,-0.0022,0.0009,-0.0011,1.0000,-0.0725,-0.0491,0.2273
305,Pelvis,0,-0.5743,0.0893,-0.8115,-0.0609,0.1585,0.0389,0.1814,-0.2693,-0.5400,-0.0115,9.3356,-0.1383,3.0423,0.0020,0.0005,0.0023,1.0000,0.2334,-0.0031,0.0759
305,Right,0,-0.0953,0.1420,0.6728,0.7198,-0.0789,-0.0216,0.0332,0.0264,-0.0034,-0.0335,-3.2565,0.5078,9.2071,-0.0010,-0.0003,0.0004,1.0000,-0.0815,0.0129,0.2301
306,Left,0,0.1233,0.1462,-0.9404,0.2814,-0.1588,0.0598,-0.0864,-0.1427,0.1444,-0.0893,-3.0055,-2.1729,8.9906,-0.0020,0.0007,-0.0011,1.0000,-0.0750,-0.0538,0.2249
306,Pelvis,0,-0.5755,0.0773,-0.8130,-0.0416,0.1458,0.0506,0.1837,-0.2684,-0.5194,0.1886,9.5277,-0.2075,3.0901,0.0018,0.0006,0.0023,1.0000,0.2383,-0.0048,0.0771
306,Right,0,-0.0955,0.1415,0.6734,0.7193,-0.0483,-0.0169,0.0335,0.1194,-0.0635,-0.0525,-3.2972,0.3996,9.1787,-0.0006,-0.0002,0.0004,1.0000,-0.0825,0.0101,0.2294
307,Left,0,0.1230,0.1481,-0.9403,0.2808,-0.1456,0.0297,-0.0599,-0.1176,0.1224,-0.0827,-3.0225,-2.1838,8.9887,-0.0018,0.0004,-0.0007,1.0000,-0.0755,-0.0541,0.2248
307,Pelvis,0,-0.5766,0.0670,-0.8139,-0.0247,0.1072,0.0294,0.1770,-0.1054,-0.6279,-0.0359,9.2685,-0.1375,3.1729,0.0013,0.0004,0.0022,1.0000,0.2317,-0.0030,0.0792
307,Right,0,-0.0953,0.1413,0.6739,0.7189,-0.0126,-0.0200,0.0334,0.0464,-0.0831,-0.0209,-3.3259,0.4698,9.1982,-0.0002,-0.0002,0.0004,1.0000,-0.0832,0.0117,0.2299
308,Left,0,0.1223,0.1497,-0.9402,0.2803,-0.1224,-0.0034,-0.0604,-0.0935,0.0596,-0.1159,-2.9998,-2.1492,8.9678,-0.0015,-0.0000,-0.0008,1.0000,-0.0750,-0.0533,0.2243
308,Pelvis,0,-0.5775,0.0594,-0.8142,-0.0116,0.0737,-0.0009,0.1630,-0.2163,-0.5935,0.2807,9.6067,-0.2162,3.1526,0.0009,-0.0000,0.0020,1.0000,0.2402,-0.0050,0.0788
308,Right,0,-0.0950,0.1411,0.6743,0.7186,0.0024,-0.0327,0.0301,0.0017,-0.0395,-0.0178,-3.2820,0.5205,9.2141,0.0000,-0.0004,0.0004,1.0000,-0.0821,0.0130,0.2303
309,Left,0,0.1217,0.1514,-0.9402,0.2797,-0.1295,-0.0032,-0.0639,-0.0800,0.0876,-0.0379,-3.0442,-2.2151,9.0214,-0.0016,-0.0000,-0.0008,1.0000,-0.0762,-0.0550,0.2256
309,Pelvis,0,-0.5781,0.0544,-0.8142,-0.0025,0.0229,-0.0013,0.1308,-0.1412,-0.6876,-0.0596,9.2707,-0.1287,3.1070,0.0003,-0.0000,0.0016,1.0000,0.2318,-0.0029,0.0777
309,Right,0,-0.0945,0.1410,0.6746,0.7184,0.0126,-0.0333,0.0263,-0.0854,-0.0099,-0.0179,-3.2509,0.6147,9.2195,0.0002,-0.0004,0.0003,1.0000,-0.0814,0.0153,0.2305
310,Left,0,0.1212,0.1532,-0.9402,0.2789,-0.1319,0.0157,-0.0813,-0.2089,0.0343,-0.0985,-2.8910,-2.2683,8.9948,-0.0016,0.0002,-0.0010,1.0000,-0.0723,-0.0563,0.2250
310,Pelvis,0,-0.5785,0.0501,-0.8141,0.0054,-0.0257,0.0085,0.1052,-0.1444,-0.5844,-0.2315,9.1073,-0.2405,3.0268,-0.0003,0.0001,0.0013,1.0000,0.2277,-0.0057,0.0756
310,Right,0,-0.0941,0.1408,0.6749,0.7182,0.0077,-0.0385,0.0139,-0.0198,-0.0104,-0.0024,-3.2451,0.5554,9.2414,0.0001,-0.0005,0.0002,1.0000,-0.0812,0.0138,0.2310
311,Left,0,0.1212,0.1551,-0.9402,0.2781,-0.1306,0.0540,-0.0732,-0.2901,0.0074,-0.1298,-2.8045,-2.3221,8.9769,-0.0016,0.0007,-0.0009,1.0000,-0.0700,-0.0576,0.2246
311,Pelvis,0,-0.5794,0.0473,-0.8136,0.0112,-0.0661,-0.0495,0.0849,-0.3186,-0.4765,0.0753,9.4502,-0.3902,2.9400,-0.0008,-0.0006,0.0011,1.0000,0.2362,-0.0094,0.0737
311,Right,0,-0.0937,0.1406,0.6751,0.7181,0.0064,-0.0355,0.0148,-0.0038,0.0545,-0.0050,-3.1739,0.5478,9.2639,0.0001,-0.0004,0.0002,1.0000,-0.0795,0.0137,0.2316
312,Left,0,0.1214,0.1567,-0.9401,0.2774,-0.1066,0.0648,-0.0655,-0.2049,0.1074,-0.0506,-2.9559,-2.4050,8.9906,-0.0013,0.0008,-0.0008,1.0000,-0.0738,-0.0598,0.2249
312,Pelvis,0,-0.5801,0.0457,-0.8131,0.0151,-0.0891,-0.0357,0.0771,-0.3050,-0.2563,0.2629,9.6103,-0.6491,2.9829,-0.0011,-0.0004,0.0010,1.0000,0.2402,-0.0159,0.0747
312,Right,0,-0.0935,0.1402,0.6753,0.7180,-0.0152,-0.0341,0.0053,-0.0947,0.0668,0.0270,-3.1693,0.6418,9.2939,-0.0002,-0.0004,0.0001,1.0000,-0.0793,0.0161,0.2323
313,Left,0,0.1217,0.1583,-0.9399,0.2771,-0.1028,0.0707,-0.0258,-0.2841,0.0511,-0.1691,-2.8382,-2.4058,8.9016,-0.0013,0.0009,-0.0003,1.0000,-0.0708,-0.0598,0.2227
313,Pelvis,0,-0.5807,0.0451,-0.8127,0.0180,-0.0989,-0.0312,0.0835,-0.1179,-0.2466,0.1937,9.4863,-0.6796,3.1226,-0.0012,-0.0004,0.0010,1.0000,0.2371,-0.0166,0.0782
313,Right,0,-0.0936,0.1398,0.6755,0.7179,-0.0286,-0.0232,0.0023,-0.0603,0.1123,-0.0166,-3.1039,0.6047,9.2725,-0.0004,-0.0003,0.0000,1.0000,-0.0777,0.0152,0.2318
314,Left,0,0.1220,0.1598,-0.9397,0.2767,-0.1006,0.0618,-0.0315,-0.0027,0.1483,-0.0081,-3.1780,-2.3894,8.9634,-0.0013,0.0008,-0.0004,1.0000,-0.0793,-0.0594,0.2242
314,Pelvis,0,-0.5817,0.0446,-0.8119,0.0209,-0.1251,-0.0674,0.0933,-0.0951,-0.2591,0.0724,9.3698,-0.6814,3.0877,-0.0016,-0.0008,0.0012,1.0000,0.2342,-0.0166,0.0774
314,Right,0,-0.0938,0.1393,0.6758,0.7177,-0.0434,-0.0171,0.0044,-0.0729,0.0215,-0.0011,-3.1907,0.6048,9.2589,-0.0005,-0.0002,0.0001,1.0000,-0.0798,0.0152,0.2314
315,Left,0,0.1216,0.1609,-0.9396,0.2765,-0.0858,0.0027,-0.0235,-0.1039,0.1278,-0.0190,-3.0867,-2.4518,8.9668,-0.0011,0.0000,-0.0003,1.0000,-0.0772,-0.0610,0.2242
315,Pelvis,0,-0.5828,0.0438,-0.8110,0.0246,-0.1449,-0.0793,0.0972,-0.1739,-0.0973,-0.1381,9.1879,-0.8497,2.9150,-0.0018,-0.0010,0.0012,1.0000,0.2297,-0.0208,0.0731
315,Right,0,-0.0939,0.1387,0.6762,0.7174,-0.0438,-0.0259,0.0135,0.0845,-0.0177,-0.0495,-3.1993,0.4344,9.2143,-0.0005,-0.0003,0.0002,1.0000,-0.0801,0.0110,0.2303
316,Left,0,0.1211,0.1618,-0.9396,0.2762,-0.0703,-0.0116,-0.0339,-0.0952,0.0570,-0.0652,-3.0416,-2.4011,8.9448,-0.0009,-0.0001,-0.0004,1.0000,-0.0761,-0.0598,0.2237
316,Pelvis,0,-0.5839,0.0434,-0.8102,0.0275,-0.1451,-0.0736,0.0872,-0.1560,-0.1935,-0.3822,8.9659,-0.7580,2.8345,-0.0018,-0.0009,0.0011,1.0000,0.2241,-0.0186,0.0711
316,Right,0,-0.0938,0.1384,0.6767,0.7170,-0.0150,-0.0297,0.0370,0.1054,-0.0455,-0.0414,-3.2207,0.4084,9.2169,-0.0002,-0.0004,0.0005,1.0000,-0.0806,0.0102,0.2304
317,Left,0,0.1208,0.1624,-0.9397,0.2758,-0.0399,-0.0009,-0.0398,-0.1784,0.1220,-0.0849,-2.9940,-2.5113,8.9110,-0.0005,-0.0000,-0.0005,1.0000,-0.0749,-0.0626,0.2228
317,Pelvis,0,-0.5853,0.0438,-0.8091,0.0294,-0.1886,-0.1091,0.0731,-0.1300,-0.2802,-0.6335,8.7353,-0.6721,2.7561,-0.0024,-0.0014,0.0009,1.0000,0.2183,-0.0164,0.0692
317,Right,0,-0.0933,0.1384,0.6772,0.7166,0.0158,-0.0256,0.0501,0.0905,0.0350,-0.0093,-3.1492,0.4346,9.2742,0.0002,-0.0003,0.0006,1.0000,-0.0788,0.0108,0.2318
318,Left,0,0.1207,0.1628,-0.9397,0.2754,-0.0170,0.0082,-0.0352,-0.2021,0.1334,-0.1136,-2.9685,-2.5375,8.8814,-0.0002,0.0001,-0.0004,1.0000,-0.0742,-0.0634,0.2221
318,Pelvis,0,-0.5869,0.0450,-0.8079,0.0302,-0.2229,-0.1361,0.0696,-0.2747,-0.1195,-0.7184,8.6924,-0.8488,2.5530,-0.0028,-0.0017,0.0009,1.0000,0.2172,-0.0209,0.0643
318,Right,0,-0.0928,0.1385,0.6776,0.7162,0.0296,-0.0157,0.0402,0.0237,0.0755,-0.0099,-3.1084,0.5133,9.2831,0.0004,-0.0002,0.0005,1.0000,-0.0778,0.0127,0.2321
319,Left,0,0.1207,0.1626,-0.9398,0.2752,0.0183,-0.0036,-0.0153,-0.2026,0.1901,-0.1102,-2.9944,-2.5870,8.8632,0.0002,-0.0000,-0.0002,1.0000,-0.0749,-0.0647,0.2216
319,Pelvis,0,-0.5886,0.0459,-0.8066,0.0311,-0.2059,-0.1375,0.0573,-0.2763,0.0381,-0.6536,8.7463,-1.0373,2.5284,-0.0026,-0.0017,0.0007,1.0000,0.2186,-0.0256,0.0637
319,Right,0,-0.0924,0.1388,0.6778,0.7161,0.0379,-0.0104,0.0112,0.0194,0.0671,-0.0268,-3.1078,0.5266,9.2646,0.0005,-0.0001,0.0001,1.0000,-0.0777,0.0130,0.2316
320,Left,0,0.1203,0.1624,-0.9399,0.2753,0.0171,-0.0329,0.0103,-0.1452,0.0896,-0.0196,-3.0170,-2.4948,8.9781,0.0002,-0.0004,0.0001,1.0000,-0.0755,-0.0624,0.2244
320,Pelvis,0,-0.5902,0.0465,-0.8053,0.0315,-0.1883,-0.1321,0.0223,-0.0968,0.0475,-0.5282,8.8181,-1.0795,2.7000,-0.0024,-0.0017,0.0003,1.0000,0.2203,-0.0268,0.0679
320,Right,0,-0.0916,0.1391,0.6779,0.7161,0.0574,-0.0257,0.0110,0.0921,-0.0482,-0.0240,-3.2103,0.4594,9.2365,0.0007,-0.0003,0.0001,1.0000,-0.0803,0.0113,0.2309
321,Left,0,0.1194,0.1622,-0.9399,0.2757,-0.0007,-0.0731,0.0196,-0.0553,0.1731,-0.0244,-3.1174,-2.5087,8.9348,-0.0000,-0.0009,0.0002,1.0000,-0.0781,-0.0627,0.2233
321,Pelvis,0,-0.5917,0.0460,-0.8041,0.0326,-0.1574,-0.1255,-0.0145,-0.0191,0.0467,-0.3704,8.9541,-1.1060,2.7858,-0.0020,-0.0016,-0.0002,1.0000,0.2237,-0.0276,0.0701
321,Right,0,-0.0903,0.1395,0.6783,0.7158,0.0891,-0.0505,0.0502,0.1399,-0.1176,-0.0143,-3.2679,0.4277,9.2293,0.0011,-0.0006,0.0006,1.0000,-0.0819,0.0104,0.2307
322,Left,0,0.1178,0.1616,-0.9401,0.2760,0.0121,-0.1343,0.0058,-0.0593,0.2081,-0.1067,-3.0820,-2.5187,8.8550,0.0002,-0.0017,0.0001,1.0000,-0.0774,-0.0630,0.2212
322,Pelvis,0,-0.5930,0.0455,-0.8032,0.0332,-0.1300,-0.0976,-0.0290,-0.0720,0.1663,-0.2184,9.1104,-1.2439,2.7452,-0.0016,-0.0012,-0.0004,1.0000,0.2277,-0.0311,0.0690
322,Right,0,-0.0885,0.1398,0.6790,0.7153,0.1118,-0.0745,0.0852,0.0699,-0.0724,-0.0276,-3.2088,0.5286,9.2294,0.0014,-0.0009,0.0011,1.0000,-0.0804,0.0128,0.2307
323,Left,0,0.1160,0.1603,-0.9405,0.2763,0.0727,-0.1685,0.0069,-0.2152,0.1965,-0.1085,-2.9141,-2.5877,8.8920,0.0009,-0.0021,0.0001,1.0000,-0.0733,-0.0649,0.2221
323,Pelvis,0,-0.5940,0.0452,-0.8025,0.0334,-0.1102,-0.0751,-0.0325,-0.1373,0.2298,-0.1236,9.2205,-1.3161,2.6834,-0.0014,-0.0009,-0.0004,1.0000,0.2304,-0.0329,0.0673
323,Right,0,-0.0867,0.1403,0.6798,0.7146,0.1182,-0.0731,0.1070,0.0110,0.0201,-0.0115,-3.1103,0.6285,9.2734,0.0015,-0.0009,0.0013,1.0000,-0.0780,0.0153,0.2318
324,Left,0,0.1149,0.1585,-0.9409,0.2764,0.1215,-0.1281,0.0083,-0.1985,-0.0346,-0.1017,-2.7851,-2.3756,8.9969,0.0015,-0.0016,0.0001,1.0000,-0.0700,-0.0597,0.2247
324,Pelvis,0,-0.5951,0.0446,-0.8017,0.0340,-0.0964,-0.0827,-0.0331,-0.2428,0.1433,-0.1429,9.2491,-1.2255,2.5567,-0.0012,-0.0010,-0.0004,1.0000,0.2311,-0.0307,0.0642
324,Right,0,-0.0852,0.1408,0.6805,0.7140,0.0967,-0.0465,0.0912,-0.0777,0.1501,-0.0054,-2.9769,0.7579,9.3153,0.0012,-0.0006,0.0011,1.0000,-0.0746,0.0186,0.2329
325,Left,0,0.1144,0.1568,-0.9412,0.2765,0.1192,-0.0787,0.0143,-0.1769,-0.0059,-0.0632,-2.8050,-2.3694,9.0334,0.0015,-0.0010,0.0002,1.0000,-0.0703,-0.0596,0.2257
325,Pelvis,0,-0.5963,0.0440,-0.8008,0.0342,-0.0825,-0.1004,-0.0372,-0.2474,0.2267,0.0361,9.4194,-1.3241,2.5755,-0.0010,-0.0013,-0.0005,1.0000,0.2354,-0.0331,0.0647
325,Right,0,-0.0844,0.1415,0.6811,0.7135,0.0685,-0.0069,0.0719,-0.0787,0.1196,-0.0010,-2.9995,0.7830,9.3102,0.0009,-0.0001,0.0009,1.0000,-0.0750,0.0193,0.2328
326,Left,0,0.1140,0.1553,-0.9415,0.2766,0.1218,-0.0601,0.0103,-0.1260,0.0243,-0.1132,-2.8307,-2.3272,8.9816,0.0015,-0.0008,0.0001,1.0000,-0.0709,-0.0585,0.2244
326,Pelvis,0,-0.5976,0.0429,-0.7999,0.0350,-0.0473,-0.1004,-0.0389,-0.1930,0.2419,0.3367,9.6969,-1.3659,2.6852,-0.0006,-0.0013,-0.0005,1.0000,0.2423,-0.0342,0.0675
326,Right,0,-0.0841,0.1420,0.6815,0.7130,0.0400,0.0181,0.0509,-0.1523,0.1210,-0.0141,-2.9964,0.8729,9.2903,0.0005,0.0002,0.0006,1.0000,-0.0749,0.0217,0.2323
327,Left,2,0.1143,0.1539,-0.9417,0.2765,0.1155,-0.0088,0.0117,-0.2421,-0.1350,-0.1376,-2.6429,-2.2332,9.0395,0.0014,-0.0001,0.0001,1.0000,-0.0661,-0.0562,0.2259
327,Pelvis,2,-0.5987,0.0408,-0.7990,0.0372,-0.0413,-0.0888,-0.0365,-0.1336,0.0758,0.4957,9.8577,-1.2108,2.7652,-0.0005,-0.0011,-0.0005,1.0000,0.2464,-0.0303,0.0694
327,Right,2,-0.0841,0.1423,0.6818,0.7126,0.0114,0.0176,0.0277,-0.1066,0.0649,0.0233,-3.0633,0.8364,9.3102,0.0001,0.0002,0.0003,1.0000,-0.0765,0.0209,0.2328
328,Left,2,0.1155,0.1532,-0.9417,0.2763,0.0926,0.0771,0.0045,-0.2133,-0.0026,-0.0540,-2.7632,-2.3194,9.0698,0.0012,0.0010,0.0001,1.0000,-0.0689,-0.0583,0.2267
328,Pelvis,2,-0.5996,0.0402,-0.7984,0.0374,-0.0597,-0.0669,-0.0408,-0.0440,-0.0511,0.6391,9.9906,-1.0915,2.8707,-0.0007,-0.0008,-0.0005,1.0000,0.2497,-0.0274,0.0720
328,Right,2,-0.0844,0.1422,0.6820,0.7124,-0.0237,0.0087,0.0067,-0.1166,0.0917,0.0129,-3.0373,0.8475,9.3070,-0.0003,0.0001,0.0001,1.0000,-0.0759,0.0213,0.2327
329,Left,2,0.1169,0.1518,-0.9419,0.2760,0.1452,0.0840,0.0046,-0.1164,0.2831,-0.0306,-3.0058,-2.4740,8.9793,0.0018,0.0010,0.0001,1.0000,-0.0749,-0.0623,0.2244
329,Right,2,-0.0845,0.1421,0.6821,0.7123,-0.0121,0.0032,0.0030,0.1030,0.0304,-0.0201,-3.0797,0.6198,9.2756,-0.0002,0.0000,0.0000,1.0000,-0.0770,0.0155,0.2319
330,Left,2,0.1175,0.1501,-0.9421,0.2759,0.1481,0.0089,0.0184,-0.1286,0.1479,-0.0632,-2.9307,-2.3331,9.0032,0.0019,0.0001,0.0002,1.0000,-0.0732,-0.0588,0.2250
330,Pelvis,2,-0.6004,0.0399,-0.7978,0.0372,-0.0494,-0.0291,-0.0226,-0.0844,-0.0168,0.7539,10.1142,-1.1317,2.8430,-0.0012,-0.0007,-0.0006,1.0000,0.5056,-0.0567,0.1426
330,Right,2,-0.0844,0.1424,0.6824,0.7120,0.0189,0.0123,0.0194,0.0938,0.0394,-0.0221,-3.0720,0.6316,9.2753,0.0002,0.0002,0.0002,1.0000,-0.0768,0.0157,0.2319
331,Left,2,0.1179,0.1480,-0.9423,0.2761,0.1743,-0.0173,0.0372,-0.2473,0.0098,-0.0828,-2.7602,-2.2472,9.0589,0.0022,-0.0002,0.0005,1.0000,-0.0690,-0.0567,0.2263
331,Pelvis,2,-0.6011,0.0381,-0.7973,0.0387,-0.0043,-0.0402,-0.0315,-0.1003,-0.1044,0.2195,9.6236,-0.9780,2.6638,-0.0001,-0.0005,-0.0004,1.0000,0.2405,-0.0245,0.0667
331,Right,2,-0.0843,0.1429,0.6827,0.7116,0.0310,0.0253,0.0208,0.0160,0.0496,-0.0159,-3.0702,0.7180,9.2757,0.0004,0.0003,0.0003,1.0000,-0.0767,0.0178,0.2319
332,Left,2,0.1183,0.1460,-0.9425,0.2764,0.1727,-0.0138,0.0433,-0.1040,0.0131,-0.0432,-2.8891,-2.1382,9.0849,0.0022,-0.0002,0.0005,1.0000,-0.0722,-0.0540,0.2270
332,Pelvis,2,-0.6015,0.0367,-0.7971,0.0390,0.0103,-0.0234,-0.0664,-0.0957,-0.1407,-0.0751,9.3487,-0.8970,2.5782,0.0001,-0.0003,-0.0008,1.0000,0.2337,-0.0226,0.0645
332,Right,2,-0.0841,0.1433,0.6827,0.7115,0.0322,0.0110,0.0159,-0.0493,0.0372,0.0093,-3.0955,0.7930,9.2878,0.0004,0.0001,0.0002,1.0000,-0.0774,0.0197,0.2322
333,Left,2,0.1186,0.1444,-0.9427,0.2766,0.1288,-0.0190,0.0316,-0.0888,0.0093,-0.0431,-2.8971,-2.0915,9.0932,0.0016,-0.0002,0.0004,1.0000,-0.0725,-0.0527,0.2272
333,Pelvis,2,-0.6016,0.0352,-0.7971,0.0393,0.0257,0.0025,-0.0766,-0.0421,-0.0018,-0.1590,9.2421,-1.0062,2.6014,0.0003,0.0000,-0.0010,1.0000,0.2310,-0.0254,0.0650
333,Right,2,-0.0837,0.1433,0.6829,0.7114,0.0229,-0.0196,0.0054,-0.0640,0.0469,-0.0138,-3.0781,0.8140,9.2675,0.0003,-0.0002,0.0001,1.0000,-0.0770,0.0203,0.2317
334,Left,2,0.1185,0.1433,-0.9428,0.2768,0.0838,-0.0275,0.0277,-0.0553,0.0249,-0.0775,-2.9172,-2.0536,9.0582,0.0010,-0.0003,0.0003,1.0000,-0.0730,-0.0516,0.2264
334,Pelvis,2,-0.6019,0.0334,-0.7969,0.0397,0.0442,-0.0177,-0.0755,-0.0402,0.0654,-0.3442,9.0604,-1.0327,2.5495,0.0006,-0.0002,-0.0009,1.0000,0.2265,-0.0261,0.0638
334,Right,2,-0.0831,0.1432,0.6830,0.7114,0.0269,-0.0378,0.0042,0.0260,-0.0082,-0.0010,-3.1252,0.7289,9.2721,0.0003,-0.0005,0.0001,1.0000,-0.0782,0.0181,0.2318
335,Left,2,0.1184,0.1427,-0.9428,0.2769,0.0536,-0.0241,0.0135,-0.0960,-0.0085,-0.0575,-2.8679,-2.0379,9.0991,0.0007,-0.0003,0.0002,1.0000,-0.0718,-0.0511,0.2274
335,Pelvis,2,-0.6022,0.0316,-0.7967,0.0401,0.0587,-0.0247,-0.0795,-0.0944,0.1371,-0.5849,8.8413,-1.0593,2.4266,0.0007,-0.0003,-0.0010,1.0000,0.2210,-0.0267,0.0607
335,Right,2,-0.0824,0.1431,0.6832,0.7113,0.0328,-0.0504,0.0316,-0.0137,-0.0447,-0.0276,-3.1418,0.7728,9.2348,0.0004,-0.0006,0.0004,1.0000,-0.0787,0.0192,0.2308
336,Left,2,0.1183,0.1422,-0.9429,0.2769,0.0360,-0.0147,0.0015,-0.1010,-0.0058,-0.0370,-2.8665,-2.0377,9.1217,0.0005,-0.0002,0.0000,1.0000,-0.0717,-0.0510,0.2280
336,Pelvis,2,-0.6025,0.0296,-0.7965,0.0405,0.0691,-0.0178,-0.0854,-0.1043,0.2014,-0.6922,8.7387,-1.0899,2.3836,0.0009,-0.0002,-0.0011,1.0000,0.2184,-0.0275,0.0596
336,Right,2,-0.0815,0.1431,0.6837,0.7109,0.0431,-0.0413,0.0507,0.0541,0.0634,-0.0339,-3.0237,0.7228,9.2718,0.0005,-0.0005,0.0006,1.0000,-0.0757,0.0179,0.2318
337,Left,2,0.1180,0.1420,-0.9430,0.2768,0.0211,-0.0244,-0.0040,-0.0907,0.0332,-0.0873,-2.8734,-2.0484,9.0631,0.0003,-0.0003,-0.0000,1.0000,-0.0719,-0.0513,0.2265
337,Pelvis,2,-0.6030,0.0277,-0.7962,0.0412,0.0740,-0.0382,-0.0685,-0.0056,0.3127,-0.6163,8.7778,-1.1828,2.4944,0.0009,-0.0005,-0.0009,1.0000,0.2194,-0.0298,0.0624
337,Right,2,-0.0808,0.1433,0.6843,0.7104,0.0457,-0.0233,0.0489,-0.0150,0.1386,-0.0515,-2.9399,0.8082,9.2738,0.0006,-0.0003,0.0006,1.0000,-0.0736,0.0200,0.2318
338,Left,2,0.1172,0.1418,-0.9431,0.2769,0.0032,-0.0599,-0.0022,-0.0923,0.1522,-0.0991,-2.9162,-2.1417,9.0163,0.0000,-0.0007,-0.0000,1.0000,-0.0731,-0.0535,0.2254
338,Pelvis,2,-0.6038,0.0262,-0.7956,0.0421,0.0603,-0.0735,-0.0258,0.0359,0.2132,-0.3262,9.0598,-1.0939,2.6008,0.0008,-0.0009,-0.0003,1.0000,0.2264,-0.0275,0.0652
338,Right,2,-0.0804,0.1436,0.6847,0.7100,0.0362,-0.0044,0.0406,-0.0411,0.1231,0.0089,-2.9698,0.8514,9.3239,0.0005,-0.0001,0.0005,1.0000,-0.0743,0.0211,0.2331
339,Left,2,0.1160,0.1416,-0.9433,0.2771,-0.0062,-0.0967,0.0019,-0.1120,0.1190,-0.0678,-2.8747,-2.1339,9.0648,-0.0001,-0.0012,0.0000,1.0000,-0.0721,-0.0533,0.2265
339,Pelvis,2,-0.6046,0.0254,-0.7950,0.0432,0.0378,-0.0754,0.0154,0.0255,0.0814,-0.1631,9.2373,-0.9730,2.6165,0.0005,-0.0009,0.0002,1.0000,0.2309,-0.0243,0.0656
339,Right,2,-0.0801,0.1438,0.6850,0.7097,0.0195,-0.0082,0.0305,-0.0034,0.0717,0.0123,-3.0163,0.8212,9.3147,0.0002,-0.0001,0.0004,1.0000,-0.0754,0.0204,0.2329
340,Left,2,0.1148,0.1416,-0.9434,0.2772,-0.0194,-0.0929,-0.0026,-0.2011,0.0228,-0.0756,-2.7299,-2.1086,9.1078,-0.0002,-0.0012,-0.0000,1.0000,-0.0685,-0.0527,0.2276
340,Pelvis,2,-0.6053,0.0250,-0.7943,0.0443,0.0157,-0.0689,0.0408,0.0434,-0.0632,-0.2131,9.2036,-0.8277,2.6012,0.0002,-0.0009,0.0005,1.0000,0.2300,-0.0206,0.0652
340,Right,2,-0.0798,0.1438,0.6855,0.7093,0.0206,-0.0152,0.0262,0.0191,0.0301,-0.0073,-3.0455,0.8023,9.2859,0.0003,-0.0002,0.0003,1.0000,-0.0762,0.0200,0.2321
341,Left,2,0.1139,0.1417,-0.9434,0.2773,-0.0230,-0.0660,-0.0029,-0.2228,0.0454,-0.0915,-2.6994,-2.1421,9.0928,-0.0003,-0.0008,-0.0000,1.0000,-0.0677,-0.0535,0.2273
341,Pelvis,2,-0.6064,0.0250,-0.7934,0.0454,-0.0077,-0.1062,0.0569,-0.0412,-0.2166,0.0771,9.5249,-0.7161,2.5727,-0.0001,-0.0013,0.0007,1.0000,0.2381,-0.0177,0.0646
341,Right,2,-0.0795,0.1438,0.6861,0.7087,0.0202,-0.0130,0.0294,-0.0174,0.0716,-0.0065,-3.0025,0.8480,9.2970,0.0003,-0.0002,0.0004,1.0000,-0.0751,0.0211,0.2324
342,Left,2,0.1134,0.1416,-0.9435,0.2774,-0.0031,-0.0367,0.0015,-0.2864,0.0358,-0.1475,-2.6136,-2.1627,9.0549,-0.0000,-0.0005,0.0000,1.0000,-0.0654,-0.0541,0.2263
342,Pelvis,2,-0.6072,0.0251,-0.7928,0.0464,-0.0176,-0.0652,0.0573,0.0359,-0.1672,0.5432,9.9524,-0.8201,2.7481,-0.0002,-0.0008,0.0007,1.0000,0.2488,-0.0203,0.0689
342,Right,2,-0.0794,0.1438,0.6863,0.7085,0.0026,-0.0032,0.0180,-0.0596,0.1227,-0.0311,-2.9445,0.8952,9.2859,0.0000,-0.0000,0.0002,1.0000,-0.0736,0.0224,0.2321
343,Left,2,0.1132,0.1414,-0.9435,0.2776,0.0176,-0.0194,0.0215,-0.2716,0.1307,-0.1641,-2.6610,-2.2268,9.0082,0.0002,-0.0002,0.0003,1.0000,-0.0666,-0.0557,0.2252
343,Pelvis,2,-0.6085,0.0249,-0.7917,0.0472,-0.0084,-0.1324,0.0283,0.6078,-0.3870,2.0428,11.2759,-0.7313,3.6595,-0.0001,-0.0017,0.0004,1.0000,0.2818,-0.0182,0.0920
343,Right,2,-0.0792,0.1435,0.6862,0.7087,-0.0186,-0.0268,0.0164,-0.0946,0.0724,-0.1537,-2.9509,0.9163,9.1522,-0.0002,-0.0003,0.0002,1.0000,-0.0739,0.0229,0.2288
344,Left,2,0.1121,0.1405,-0.9435,0.2783,0.0448,-0.1043,0.0465,-0.0358,0.3734,-0.1127,-2.9758,-2.2938,8.9506,0.0006,-0.0013,0.0006,1.0000,-0.0747,-0.0575,0.2236
344,Pelvis,2,-0.6100,0.0245,-0.7906,0.0474,-0.0106,-0.1451,-0.0108,1.2342,-0.4633,4.9555,13.9397,-0.9100,4.9694,-0.0001,-0.0018,-0.0001,1.0000,0.3483,-0.0228,0.1249
344,Right,2,-0.0791,0.1424,0.6866,0.7085,-0.0557,-0.0653,0.0209,-0.3191,-0.0116,-0.0582,-3.0527,1.1371,9.2000,-0.0007,-0.0008,0.0003,1.0000,-0.0765,0.0286,0.2299
345,Left,2,0.1102,0.1388,-0.9437,0.2793,0.0875,-0.1941,0.0674,-0.2214,0.2572,0.0101,-2.7704,-2.3111,9.1425,0.0011,-0.0024,0.0008,1.0000,-0.0698,-0.0581,0.2283
345,Pelvis,2,-0.6104,0.0237,-0.7903,0.0473,0.0262,-0.0413,-0.0369,1.5209,-0.8732,7.6891,16.5538,-0.7400,5.9003,0.0003,-0.0005,-0.0005,1.0000,0.4138,-0.0187,0.1477
345,Right,2,-0.0792,0.1411,0.6868,0.7086,-0.0833,-0.0728,-0.0133,0.1862,-0.1319,0.1381,-3.2032,0.6299,9.4028,-0.0010,-0.0009,-0.0002,1.0000,-0.0803,0.0160,0.2350
346,Left,2,0.1088,0.1365,-0.9439,0.2803,0.1341,-0.1627,0.0873,-0.2844,0.1512,0.0215,-2.6317,-2.2337,9.2141,0.0017,-0.0020,0.0011,1.0000,-0.0662,-0.0563,0.2301
346,Pelvis,2,-0.6081,0.0239,-0.7922,0.0463,-0.0329,0.2385,-0.0510,1.6907,-1.5956,9.1709,17.9964,-0.1346,6.4725,-0.0004,0.0030,-0.0006,1.0000,0.4504,-0.0036,0.1605
346,Right,2,-0.0793,0.1397,0.6870,0.7087,-0.0789,-0.0800,-0.0142,0.0591,-0.2191,0.2183,-3.2946,0.7396,9.4483,-0.0010,-0.0010,-0.0002,1.0000,-0.0826,0.0187,0.2361
347,Left,2,0.1080,0.1343,-0.9440,0.2813,0.1510,-0.1210,0.0810,-0.1993,0.1425,-0.0159,-2.6574,-2.1350,9.1879,0.0019,-0.0015,0.0010,1.0000,-0.0667,-0.0539,0.2295
347,Pelvis,2,-0.6021,0.0252,-0.7968,0.0435,-0.1540,0.6081,-0.1019,1.2689,-2.4846,9.3211,18.2709,0.7395,6.2867,-0.0019,0.0076,-0.0013,1.0000,0.4580,0.0182,0.1537
347,Right,2,-0.0789,0.1379,0.6872,0.7089,-0.0746,-0.1235,-0.0157,0.1513,0.0272,0.0682,-2.9887,0.6275,9.3984,-0.0009,-0.0015,-0.0002,1.0000,-0.0751,0.0159,0.2348
348,Left,2,0.1079,0.1319,-0.9441,0.2821,0.1774,-0.0703,0.0827,-0.4215,0.0838,-0.0624,-2.4147,-2.1616,9.2060,0.0022,-0.0009,0.0010,1.0000,-0.0605,-0.0546,0.2300
348,Pelvis,2,-0.5939,0.0278,-0.8031,0.0398,-0.2484,0.8263,-0.0914,0.5381,-2.2316,7.4319,16.5285,0.6518,5.3891,-0.0031,0.0103,-0.0011,0.9999,0.4146,0.0162,0.1304
348,Right,2,-0.0784,0.1367,0.6874,0.7090,-0.0386,-0.0931,-0.0036,0.2479,0.2036,-0.0029,-2.7719,0.5196,9.4012,-0.0005,-0.0012,-0.0000,1.0000,-0.0696,0.0131,0.2349
349,Left,2,0.1088,0.1298,-0.9441,0.2828,0.1751,0.0189,0.0868,-0.3351,-0.0512,-0.0595,-2.4152,-1.9604,9.2500,0.0022,0.0002,0.0011,1.0000,-0.0603,-0.0496,0.2312
349,Pelvis,2,-0.5846,0.0317,-0.8099,0.0360,-0.3404,0.9278,-0.0311,0.0883,-2.2180,5.1767,14.3994,0.8249,4.6472,-0.0043,0.0116,-0.0004,0.9999,0.3613,0.0210,0.1119
349,Right,2,-0.0778,0.1368,0.6877,0.7087,0.0380,-0.0266,0.0323,0.1488,0.1755,-0.0280,-2.7783,0.6163,9.3646,0.0005,-0.0003,0.0004,1.0000,-0.0695,0.0153,0.2341
350,Left,2,0.1101,0.1281,-0.9440,0.2835,0.1582,0.0563,0.0863,-0.0853,-0.1433,-0.0774,-2.5802,-1.6997,9.2335,0.0020,0.0007,0.0011,1.0000,-0.0643,-0.0430,0.2308
350,Pelvis,2,-0.5753,0.0363,-0.8166,0.0314,-0.4400,0.9331,-0.0427,-0.0929,-2.0505,3.2768,12.5400,0.8068,4.2015,-0.0055,0.0117,-0.0005,0.9999,0.3147,0.0206,0.1013
350,Right,2,-0.0772,0.1379,0.6880,0.7083,0.0828,0.0308,0.0520,0.1221,0.1730,-0.0529,-2.7735,0.6578,9.3367,0.0010,0.0004,0.0007,1.0000,-0.0693,0.0162,0.2335
351,Left,2,0.1116,0.1267,-0.9438,0.2840,0.1415,0.0841,0.0709,-0.1762,-0.0810,-0.1077,-2.5480,-1.7578,9.2001,0.0018,0.0011,0.0009,1.0000,-0.0634,-0.0444,0.2300
351,Pelvis,2,-0.5668,0.0413,-0.8224,0.0262,-0.4953,0.8390,-0.0724,-0.2612,-1.9814,1.9287,11.2340,0.8408,3.8664,-0.0062,0.0105,-0.0009,0.9999,0.2819,0.0214,0.0936
351,Right,2,-0.0770,0.1391,0.6883,0.7078,0.0812,0.0614,0.0461,0.1432,0.1579,-0.0853,-2.7874,0.6562,9.2987,0.0010,0.0008,0.0006,1.0000,-0.0695,0.0161,0.2325
352,Left,2,0.1133,0.1247,-0.9437,0.2846,0.1829,0.0831,0.0843,-0.2667,0.1146,-0.1463,-2.5840,-1.9193,9.1193,0.0023,0.0010,0.0011,1.0000,-0.0643,-0.0486,0.2279
352,Pelvis,2,-0.5598,0.0470,-0.8270,0.0207,-0.5893,0.6883,-0.0654,-0.1643,-1.8655,0.6117,9.8887,0.8263,3.7026,-0.0074,0.0086,-0.0008,0.9999,0.2480,0.0211,0.0903
352,Right,2,-0.0772,0.1404,0.6882,0.7076,0.0593,0.0888,0.0070,-0.1125,0.2811,-0.0961,-2.6867,0.9334,9.2959,0.0007,0.0011,0.0001,1.0000,-0.0669,0.0232,0.2325
353,Left,2,0.1149,0.1220,-0.9436,0.2855,0.2407,0.0501,0.1168,-0.2214,0.2901,-0.1620,-2.7252,-1.9792,9.0513,0.0030,0.0006,0.0015,1.0000,-0.0679,-0.0503,0.2262
353,Pelvis,2,-0.5550,0.0535,-0.8300,0.0147,-0.6699,0.4757,-0.0597,0.1024,-1.6328,-0.3390,8.8339,0.6471,3.7380,-0.0084,0.0059,-0.0007,0.9999,0.2214,0.0168,0.0920
353,Right,2,-0.0782,0.1417,0.6878,0.7077,0.0174,0.1309,-0.0435,-0.2634,0.2528,-0.0047,-2.7694,1.0977,9.3517,0.0002,0.0016,-0.0005,1.0000,-0.0688,0.0274,0.2339
354,Left,2,0.1157,0.1179,-0.9437,0.2867,0.3235,-0.0374,0.1410,-0.3344,0.2413,-0.2502,-2.5895,-1.9190,9.0125,0.0040,-0.0005,0.0018,1.0000,-0.0648,-0.0490,0.2251
354,Pelvis,2,-0.5519,0.0607,-0.8316,0.0082,-0.7481,0.3053,-0.0720,0.3046,-2.0622,-0.1435,8.9310,0.9966,4.1331,-0.0094,0.0038,-0.0009,0.9999,0.2237,0.0257,0.1022
354,Right,2,-0.0797,0.1435,0.6871,0.7078,0.0209,0.1898,-0.0568,-0.1137,0.2454,-0.0107,-2.8104,0.9491,9.3463,0.0003,0.0024,-0.0007,1.0000,-0.0697,0.0237,0.2338
355,Left,2,0.1169,0.1123,-0.9437,0.2885,0.4375,-0.0598,0.1954,-0.3632,0.3742,-0.0686,-2.6844,-1.9751,9.1714,0.0055,-0.0007,0.0024,1.0000,-0.0672,-0.0508,0.2290
355,Pelvis,2,-0.5498,0.0685,-0.8325,0.0006,-0.8394,0.2128,-0.1249,0.5562,-2.5060,0.4497,9.3791,1.2992,4.7172,-0.0105,0.0027,-0.0016,0.9999,0.2348,0.0333,0.1170
355,Right,2,-0.0815,0.1460,0.6864,0.7077,0.0532,0.2447,-0.0388,0.1581,0.0947,0.0317,-3.0149,0.6805,9.3484,0.0007,0.0031,-0.0005,1.0000,-0.0746,0.0169,0.2340
356,Left,2,0.1178,0.1061,-0.9437,0.2903,0.4821,-0.0858,0.2018,-0.1589,0.0621,0.0189,-2.7029,-1.5009,9.3344,0.0060,-0.0011,0.0025,1.0000,-0.0677,-0.0391,0.2331
356,Pelvis,2,-0.5476,0.0764,-0.8332,-0.0091,-0.9417,0.2169,-0.2524,0.7042,-2.7202,0.4452,9.2975,1.4438,4.9591,-0.0118,0.0027,-0.0032,0.9999,0.2329,0.0368,0.1229
356,Right,2,-0.0829,0.1495,0.6860,0.7073,0.1097,0.2835,0.0095,0.2940,-0.0337,0.0455,-3.2005,0.5592,9.3122,0.0014,0.0035,0.0001,1.0000,-0.0792,0.0137,0.2331
357,Left,2,0.1185,0.1011,-0.9439,0.2911,0.3821,-0.0687,0.1257,0.2922,-0.5810,0.0401,-2.7204,-0.6120,9.4723,0.0048,-0.0009,0.0016,1.0000,-0.0682,-0.0165,0.2367
357,Pelvis,2,-0.5446,0.0842,-0.8342,-0.0214,-1.0423,0.3034,-0.4182,0.6783,-2.7687,0.0722,8.9227,1.4991,4.8964,-0.0130,0.0038,-0.0052,0.9999,0.2237,0.0379,0.1211
357,Right,2,-0.0839,0.1535,0.6861,0.7062,0.1621,0.2954,0.0641,0.1345,-0.0839,0.0711,-3.3246,0.7518,9.2788,0.0020,0.0037,0.0008,1.0000,-0.0823,0.0183,0.2323
358,Left,2,0.1190,0.0985,-0.9442,0.2909,0.2105,-0.0129,0.0161,0.0865,-0.2258,0.0228,-2.7257,-0.9403,9.4064,0.0026,-0.0002,0.0002,1.0000,-0.0682,-0.0241,0.2351
358,Pelvis,2,-0.5405,0.0924,-0.8355,-0.0359,-1.1590,0.3890,-0.5412,0.6322,-2.1539,-0.2190,8.5829,0.9128,4.7519,-0.0145,0.0049,-0.0068,0.9999,0.2153,0.0231,0.1174
358,Right,2,-0.0848,0.1583,0.6864,0.7047,0.2007,0.3376,0.0974,0.4046,-0.1526,0.0387,-3.4467,0.5265,9.2239,0.0025,0.0042,0.0012,1.0000,-0.0852,0.0125,0.2310
359,Left,2,0.1187,0.0955,-0.9446,0.2908,0.2137,-0.0937,0.0120,-0.0684,0.2504,0.1683,-2.8806,-1.3805,9.4596,0.0027,-0.0012,0.0001,1.0000,-0.0723,-0.0352,0.2363
359,Pelvis,2,-0.5353,0.1012,-0.8370,-0.0522,-1.2735,0.4920,-0.6228,0.2263,-1.1293,-1.2874,7.6819,0.0909,3.8715,-0.0159,0.0061,-0.0078,0.9998,0.1927,0.0023,0.0956
359,Right,2,-0.0866,0.1635,0.6861,0.7036,0.1789,0.4041,0.0704,-0.1378,0.2034,0.2651,-3.2787,1.1553,9.4625,0.0022,0.0051,0.0009,1.0000,-0.0808,0.0283,0.2370
360,Left,2,0.1168,0.0926,-0.9451,0.2909,0.1839,-0.2079,0.0199,0.1276,0.0964,0.0414,-2.8846,-1.0822,9.3615,0.0023,-0.0026,0.0002,1.0000,-0.0727,-0.0276,0.2338
360,Pelvis,2,-0.5291,0.1106,-0.8385,-0.0691,-1.3476,0.5552,-0.6255,0.0317,-0.2784,-2.8004,6.3324,-0.5252,2.9791,-0.0168,0.0069,-0.0078,0.9998,0.1587,-0.0131,0.0736
360,Right,2,-0.0890,0.1710,0.6846,0.7029,0.2850,0.5765,-0.0234,0.4160,-0.4790,1.4631,-4.4558,0.7577,10.3499,0.0036,0.0072,-0.0003,1.0000,-0.1095,0.0181,0.2596
361,Left,2,0.1145,0.0909,-0.9456,0.2907,0.0770,-0.2121,-0.0191,-0.1072,-0.1542,-0.0317,-2.4925,-0.9740,9.4097,0.0010,-0.0027,-0.0002,1.0000,-0.0629,-0.0246,0.2351
361,Pelvis,2,-0.5241,0.1208,-0.8387,-0.0854,-1.3815,0.4066,-0.5687,-0.6839,1.0900,-4.2187,5.3465,-1.5040,1.4499,-0.0173,0.0051,-0.0071,0.9998,0.1336,-0.0379,0.0362
361,Right,2,-0.0822,0.1698,0.6833,0.7054,0.3534,-0.4723,-0.1245,1.4543,-11.2852,4.5738,-15.6697,-0.3866,9.5267,0.0044,-0.0059,-0.0016,1.0000,-0.3932,-0.0101,0.2358
362,Left,2,0.1120,0.0901,-0.9461,0.2903,0.0069,-0.2031,-0.0454,0.1221,0.0191,-0.1288,-2.6915,-0.9668,9.2528,0.0001,-0.0025,-0.0006,1.0000,-0.0679,-0.0242,0.2311
362,Pelvis,2,-0.5217,0.1308,-0.8371,-0.0995,-1.2823,0.1499,-0.4796,-0.6133,3.4376,-6.0045,3.7753,-3.5275,0.0243,-0.0160,0.0019,-0.0060,0.9999,0.0939,-0.0887,0.0019
362,Right,2,-0.0657,0.1767,0.6721,0.7161,1.5177,-0.5908,-0.8902,6.9255,-38.7987,0.5116,-39.8104,-8.2733,-2.5935,0.0190,-0.0074,-0.0111,0.9997,-0.9969,-0.1944,-0.0760
363,Left,2,0.1103,0.0905,-0.9465,0.2896,-0.0661,-0.1216,-0.0779,-0.3446,-0.0792,-0.0672,-2.2402,-1.1686,9.4188,-0.0008,-0.0015,-0.0010,1.0000,-0.0564,-0.0290,0.2354
363,Pelvis,2,-0.5231,0.1390,-0.8337,-0.1101,-0.9976,-0.2103,-0.3727,0.7219,3.9436,-7.8206,1.6193,-4.1720,0.1210,-0.0125,-0.0026,-0.0047,0.9999,0.0400,-0.1044,0.0044
363,Right,2,-0.0603,0.1933,0.6431,0.7385,1.6479,0.4784,-2.4099,0.2831,-36.0022,-2.7908,-36.0561,-3.9181,-5.5357,0.0206,0.0060,-0.0301,0.9993,-0.9046,-0.0679,-0.1346
364,Left,2,0.1083,0.0910,-0.9469,0.2888,-0.0685,-0.1203,-0.0781,0.0026,0.1748,-0.1188,-2.6071,-1.1951,9.2616,-0.0009,-0.0015,-0.0010,1.0000,-0.0656,-0.0296,0.2315
364,Pelvis,2,-0.5278,0.1461,-0.8282,-0.1187,-0.8250,-0.5271,-0.3468,0.8899,3.0637,-6.9796,2.3159,-3.4916,0.8068,-0.0103,-0.0066,-0.0043,0.9999,0.0574,-0.0873,0.0214
364,Right,2,-0.0821,0.2168,0.6078,0.7595,0.4183,2.3272,-2.9614,-2.3227,-26.0613,1.3489,-28.4094,-1.6288,0.1229,0.0052,0.0291,-0.0370,0.9989,-0.7106,-0.0145,0.0236
365,Left,2,0.1069,0.0916,-0.9472,0.2880,-0.0712,-0.0959,-0.0800,-0.2296,0.1173,-0.0143,-2.3889,-1.3121,9.4152,-0.0009,-0.0012,-0.0010,1.0000,-0.0600,-0.0325,0.2353
365,Pelvis,2,-0.5328,0.1521,-0.8226,-0.1281,-0.7570,-0.5375,-0.4413,0.1172,1.7382,-4.4615,4.9137,-2.2661,1.5465,-0.0095,-0.0067,-0.0055,0.9999,0.1223,-0.0570,0.0400
365,Right,2,-0.1204,0.2441,0.5716,0.7741,-0.4973,3.4507,-2.8776,-2.3684,-12.7075,3.5585,-17.7195,0.1148,5.6790,-0.0062,0.0431,-0.0360,0.9984,-0.4358,0.0196,0.1608
366,Left,2,0.1049,0.0917,-0.9476,0.2873,-0.0428,-0.1393,-0.0692,-0.2462,0.4335,-0.0405,-2.5035,-1.5949,9.3238,-0.0005,-0.0017,-0.0009,1.0000,-0.0630,-0.0397,0.2330
366,Pelvis,2,-0.5392,0.1573,-0.8158,-0.1378,-0.7273,-0.6703,-0.5323,-0.2081,0.7951,-3.5391,5.8902,-1.3442,1.8799,-0.0091,-0.0084,-0.0067,0.9999,0.1466,-0.0341,0.0485
366,Right,2,-0.1645,0.2722,0.5341,0.7833,-0.9090,3.8471,-2.8262,0.6721,-3.3525,2.7928,-9.5415,-1.0218,8.8709,-0.0114,0.0481,-0.0353,0.9982,-0.2282,-0.0148,0.2331
367,Left,2,0.1031,0.0912,-0.9480,0.2868,0.0065,-0.1498,-0.0523,-0.5630,0.4285,-0.1894,-2.1690,-1.7615,9.2358,0.0001,-0.0019,-0.0007,1.0000,-0.0547,-0.0440,0.2308
367,Pelvis,2,-0.5470,0.1630,-0.8078,-0.1470,-0.7281,-0.8167,-0.5030,-0.1319,0.9221,-3.5937,5.8698,-1.4388,1.7383,-0.0091,-0.0102,-0.0063,0.9999,0.1461,-0.0365,0.0453
367,Right,2,-0.2060,0.2995,0.4960,0.7886,-0.8561,3.7461,-2.6741,0.1044,2.6857,0.9409,-4.9902,1.0239,9.8506,-0.0107,0.0468,-0.0334,0.9983,-0.1121,0.0322,0.2514
368,Left,2,0.1018,0.0903,-0.9484,0.2863,0.0484,-0.1105,-0.0498,-0.3082,0.4916,-0.0798,-2.4039,-1.6807,9.2985,0.0006,-0.0014,-0.0006,1.0000,-0.0604,-0.0421,0.2324
368,Pelvis,2,-0.5560,0.1693,-0.7989,-0.1548,-0.7071,-0.9642,-0.4311,0.0475,1.0771,-3.8411,5.6391,-1.5887,1.5818,-0.0088,-0.0121,-0.0054,0.9999,0.1403,-0.0401,0.0416
368,Right,2,-0.2398,0.3241,0.4657,0.7878,-0.7683,3.2710,-1.8664,-0.6188,6.3498,-0.3988,-2.9625,2.8787,10.5999,-0.0096,0.0409,-0.0233,0.9988,-0.0614,0.0761,0.2670
369,Left,2,0.1004,0.0886,-0.9489,0.2857,0.1048,-0.1379,-0.0470,-0.3387,0.5426,-0.0194,-2.3876,-1.7313,9.3606,0.0013,-0.0017,-0.0006,1.0000,-0.0601,-0.0436,0.2339
369,Pelvis,2,-0.5667,0.1747,-0.7889,-0.1613,-0.5789,-1.1236,-0.4156,0.7631,1.5494,-3.5042,5.8125,-2.3222,1.8991,-0.0072,-0.0140,-0.0052,0.9999,0.1443,-0.0585,0.0499
369,Right,2,-0.2632,0.3424,0.4445,0.7848,-0.6193,2.3590,-1.1270,0.1642,7.7205,-2.9401,-0.9148,2.8011,9.9107,-0.0077,0.0295,-0.0141,0.9994,-0.0146,0.0722,0.2477
370,Left,2,0.0987,0.0867,-0.9494,0.2852,0.1163,-0.1681,-0.0330,-0.2419,0.3880,-0.0011,-2.3499,-1.5296,9.4136,0.0015,-0.0021,-0.0004,1.0000,-0.0593,-0.0386,0.2352
370,Pelvis,2,-0.5784,0.1786,-0.7782,-0.1672,-0.4529,-1.2054,-0.4692,1.2054,1.1861,-2.4351,6.7638,-2.2575,2.5396,-0.0057,-0.0151,-0.0059,0.9999,0.1678,-0.0571,0.0663
370,Right,2,-0.2768,0.3560,0.4287,0.7829,-0.2682,1.5728,-0.7073,0.3867,8.0412,-6.7208,1.6860,3.1348,7.8558,-0.0034,0.0197,-0.0088,0.9998,0.0467,0.0786,0.1952
371,Left,2,0.0954,0.0865,-0.9498,0.2851,-0.0580,-0.2527,-0.0315,0.7642,-0.8484,0.8937,-2.6825,-0.0442,10.4275,-0.0007,-0.0032,-0.0004,1.0000,-0.0679,-0.0009,0.2605
371,Pelvis,2,-0.5892,0.1836,-0.7673,-0.1744,-0.5717,-1.1647,-0.4943,1.3235,0.5681,-1.0415,8.1432,-1.8344,3.0561,-0.0071,-0.0146,-0.0062,0.9998,0.2021,-0.0466,0.0797
371,Right,2,-0.2826,0.3641,0.4175,0.7831,-0.0294,0.8120,-0.4343,1.0235,10.6051,-7.3910,3.3170,3.9848,9.6179,-0.0004,0.0102,-0.0054,0.9999,0.0859,0.0992,0.2396
372,Left,2,0.0898,0.0923,-0.9503,0.2836,-0.5511,-0.2779,-0.1929,1.2088,-0.8883,1.8423,-3.1692,0.0361,11.3158,-0.0069,-0.0035,-0.0024,1.0000,-0.0802,0.0030,0.2826
372,Pelvis,2,-0.5979,0.1890,-0.7574,-0.1820,-0.6158,-0.9783,-0.4504,1.3122,-0.3230,0.1994,9.4055,-1.0954,3.5230,-0.0077,-0.0122,-0.0056,0.9999,0.2339,-0.0280,0.0912
372,Right,2,-0.2828,0.3625,0.4074,0.7891,0.1354,-0.1542,-0.6559,3.1189,13.0359,-7.7518,5.3279,3.6036,11.9390,0.0017,-0.0019,-0.0082,1.0000,0.1334,0.0885,0.2989
373,Left,2,0.0788,0.1055,-0.9511,0.2793,-1.2074,-0.5116,-0.5206,1.0868,0.8102,4.1013,-4.3238,-2.0237,13.1402,-0.0151,-0.0064,-0.0065,0.9998,-0.1105,-0.0449,0.3285
373,Pelvis,2,-0.6025,0.1933,-0.7512,-0.1877,-0.4471,-0.5732,-0.2745,2.7000,-1.7946,1.4257,10.3111,-0.5852,5.4911,-0.0056,-0.0072,-0.0034,1.0000,0.2567,-0.0147,0.1392
373,Right,2,-0.2800,0.3547,0.3907,0.8019,0.5176,-0.6726,-1.3788,5.6964,13.1900,-14.9491,12.1999,3.0094,8.6570,0.0065,-0.0084,-0.0172,0.9998,0.3044,0.0686,0.2194
374,Left,2,0.0569,0.1194,-0.9533,0.2717,-1.4816,-1.3010,-0.8996,1.4089,0.8469,3.5039,-4.1591,-2.2924,12.5508,-0.0185,-0.0163,-0.0112,0.9996,-0.1097,-0.0503,0.3130
374,Pelvis,2,-0.6009,0.1993,-0.7493,-0.1944,-0.5933,-0.0069,-0.0937,3.7203,-4.4695,1.9429,10.5127,1.0825,7.7668,-0.0074,-0.0001,-0.0012,1.0000,0.2628,0.0282,0.1940
374,Right,2,-0.2164,0.3581,0.3750,0.8272,5.0605,-2.2025,0.2458,6.0209,30.0427,1.1673,7.6495,11.3250,29.5681,0.0632,-0.0275,0.0031,0.9976,0.1697,0.2360,0.7600
375,Left,2,0.0272,0.1310,-0.9558,0.2619,-1.4540,-1.9322,-1.1343,2.6914,1.6947,3.7847,-5.1451,-2.9489,12.6456,-0.0182,-0.0241,-0.0142,0.9994,-0.1372,-0.0661,0.3141
375,Pelvis,2,-0.5967,0.2109,-0.7467,-0.2045,-1.1083,0.0701,0.0150,3.2431,-6.4875,-0.6300,7.9716,3.0232,8.0153,-0.0139,0.0009,0.0002,0.9999,0.1995,0.0784,0.1991
375,Right,2,-0.1327,0.3198,0.4130,0.8424,3.5077,-6.1535,3.9024,-7.5179,16.3874,19.4283,-15.2440,15.4431,26.7050,0.0438,-0.0768,0.0487,0.9949,-0.4489,0.3365,0.6503
376,Left,2,-0.0104,0.1377,-0.9580,0.2514,-1.2528,-2.6295,-1.2601,3.9763,0.0709,3.9177,-4.6564,-1.5713,13.4274,-0.0157,-0.0329,-0.0157,0.9992,-0.1279,-0.0321,0.3321
376,Pelvis,2,-0.5937,0.2313,-0.7384,-0.2208,-1.9867,-0.3252,-0.0335,0.7586,-6.2383,-2.8702,6.3058,4.0916,5.5851,-0.0248,-0.0041,-0.0004,0.9997,0.1571,0.1057,0.1377
376,Right,2,-0.0787,0.2802,0.4349,0.8521,1.8709,-4.9261,2.1358,-2.6596,12.6831,0.9203,0.6692,10.7320,12.9597,0.0234,-0.0615,0.0267,0.9975,-0.0105,0.2606,0.3301
377,Left,2,-0.0517,0.1470,-0.9583,0.2397,-1.5453,-2.8539,-1.3523,3.5618,0.2673,2.1138,-3.3807,-2.0180,11.8150,-0.0193,-0.0357,-0.0169,0.9990,-0.0958,-0.0432,0.2930
377,Pelvis,2,-0.5897,0.2561,-0.7271,-0.2408,-2.4956,-0.4166,-0.0890,-1.8563,-2.4289,-1.7151,8.1704,2.3644,1.6038,-0.0312,-0.0052,-0.0011,0.9995,0.2041,0.0601,0.0393
377,Right,2,-0.0520,0.2508,0.4419,0.8597,0.7069,-3.1415,0.5971,1.6290,7.1119,0.7640,0.4543,4.3139,12.0984,0.0088,-0.0393,0.0075,0.9992,-0.0013,0.1052,0.3035
378,Left,2,-0.0902,0.1651,-0.9569,0.2213,-2.2136,-2.4084,-1.7649,2.0756,-0.1823,1.0132,-1.0596,-2.5682,10.6726,-0.0277,-0.0301,-0.0221,0.9989,-0.0358,-0.0561,0.2675
378,Pelvis,2,-0.5889,0.2761,-0.7142,-0.2586,-2.1264,-0.6312,-0.2931,-1.1547,0.2778,0.6155,10.4668,-0.3537,0.6950,-0.0266,-0.0079,-0.0037,0.9996,0.2615,-0.0093,0.0197
378,Right,2,-0.0402,0.2417,0.4452,0.8612,0.4528,-1.0763,0.3188,2.3243,3.0049,0.3194,-1.3513,1.3904,10.6461,0.0057,-0.0135,0.0040,0.9999,-0.0375,0.0331,0.2659
379,Left,2,-0.1194,0.1920,-0.9553,0.1903,-2.8278,-1.3739,-2.5403,1.1312,0.5868,-2.8241,-0.3778,-2.7874,6.5259,-0.0353,-0.0172,-0.0317,0.9987,-0.0144,-0.0635,0.1652
379,Pelvis,2,-0.5909,0.2889,-0.7010,-0.2756,-1.6397,-0.6620,-0.6466,-0.1101,3.0264,2.6350,12.4269,-3.0831,-0.4432,-0.0205,-0.0083,-0.0081,0.9997,0.3101,-0.0798,-0.0069
379,Right,2,-0.0305,0.2389,0.4489,0.8605,0.5162,-0.5194,0.3993,-1.1147,0.4580,0.4193,-4.7484,2.7274,8.7272,0.0065,-0.0065,0.0050,0.9999,-0.1205,0.0662,0.2178
380,Left,2,-0.1348,0.2164,-0.9558,0.1465,-2.5099,-0.1383,-3.3659,3.8292,4.1283,-4.1323,-4.0453,-4.9791,4.7828,-0.0314,-0.0017,-0.0421,0.9986,-0.1064,-0.1162,0.1231
380,Pelvis,2,-0.5914,0.2966,-0.6900,-0.2936,-1.3811,-0.3414,-0.8798,-0.4565,2.7720,4.7187,14.5745,-2.5342,-0.4761,-0.0173,-0.0043,-0.0110,0.9998,0.3637,-0.0675,-0.0092
380,Right,2,-0.0221,0.2281,0.4506,0.8628,0.1848,-1.0780,0.1150,-1.9466,0.5990,0.6368,-4.9380,3.6108,8.7134,0.0023,-0.0135,0.0014,0.9999,-0.1265,0.0896,0.2164
381,Left,2,-0.1167,0.1749,-0.9745,0.0784,2.9794,2.2852,-5.6195,14.5213,2.7943,-13.1664,-15.1200,1.3111,0.1990,0.0372,0.0285,-0.0702,0.9964,-0.3741,0.0587,0.0176
381,Pelvis,2,-0.5882,0.3037,-0.6810,-0.3129,-1.4582,0.0085,-0.8467,-2.1203,-0.0044,4.0064,13.9469,0.8934,0.3937,-0.0182,0.0001,-0.0106,0.9998,0.3489,0.0188,0.0094
381,Right,2,-0.0171,0.2160,0.4508,0.8659,-0.0664,-1.0671,-0.0919,0.6033,1.3788,0.3331,-2.7095,2.0294,9.6824,-0.0008,-0.0133,-0.0011,0.9999,-0.0709,0.0510,0.2411
382,Left,2,-0.0830,0.1533,-0.9844,0.0235,1.5216,3.3543,-4.1585,12.2825,-15.4365,-11.1223,-10.1498,15.8064,6.2147,0.0190,0.0419,-0.0519,0.9976,-0.2259,0.4042,0.1729
382,Pelvis,2,-0.5833,0.3130,-0.6710,-0.3340,-1.7556,0.0530,-0.8225,-4.9146,-1.3850,2.8704,12.9843,4.2774,-0.2350,-0.0219,0.0007,-0.0103,0.9997,0.3257,0.1034,-0.0084
382,Right,2,-0.0135,0.2108,0.4517,0.8668,0.0671,-0.4928,0.0238,0.8030,0.7422,0.2343,-2.8717,1.4761,9.5767,0.0008,-0.0062,0.0003,1.0000,-0.0733,0.0367,0.2390
383,Left,2,-0.0394,0.1358,-0.9899,-0.0034,1.3428,3.7362,-1.7254,12.2918,-13.0336,-2.9766,-10.9095,10.5593,11.7277,0.0168,0.0467,-0.0216,0.9985,-0.2528,0.2645,0.3098
383,Pelvis,2,-0.5778,0.3222,-0.6597,-0.3566,-1.9386,0.0644,-0.9402,-4.0398,0.2756,2.2753,12.3699,2.9317,-0.9591,-0.0242,0.0008,-0.0118,0.9996,0.3101,0.0690,-0.0259
383,Right,2,-0.0097,0.2085,0.4532,0.8667,0.1725,-0.2849,0.1085,0.1129,-0.0074,0.2734,-3.7165,1.6190,9.2363,0.0022,-0.0036,0.0014,1.0000,-0.0938,0.0398,0.2307
384,Left,2,-0.0006,0.1194,-0.9927,-0.0157,1.2693,3.1698,-0.6229,10.4273,-9.1895,-0.2575,-10.1511,6.2293,11.9502,0.0159,0.0396,-0.0078,0.9991,-0.2404,0.1528,0.3109
384,Pelvis,2,-0.5722,0.3287,-0.6486,-0.3793,-1.8453,0.1672,-1.0570,-1.5672,1.6895,1.5416,11.5504,0.4382,-0.7976,-0.0231,0.0021,-0.0132,0.9996,0.2888,0.0067,-0.0207
384,Right,2,-0.0035,0.2069,0.4552,0.8660,0.3472,-0.3100,0.2101,0.2767,-0.1496,0.3523,-3.6944,1.4964,9.3563,0.0043,-0.0039,0.0026,1.0000,-0.0934,0.0362,0.2337
385,Left,2,0.0358,0.1004,-0.9939,-0.0295,1.4493,2.9938,-0.7623,9.3312,-3.4590,0.1668,-9.7936,0.8084,10.1073,0.0181,0.0374,-0.0095,0.9991,-0.2350,0.0178,0.2619
385,Pelvis,2,-0.5658,0.3347,-0.6380,-0.4010,-1.8027,0.2241,-0.9940,-0.8323,1.4585,-0.0054,9.9415,0.2077,-0.3655,-0.0225,0.0028,-0.0124,0.9997,0.2485,0.0019,-0.0099
385,Right,2,0.0051,0.2069,0.4575,0.8648,0.5757,-0.2820,0.2960,0.1902,0.2923,0.3081,-3.2882,1.9463,9.3784,0.0072,-0.0035,0.0037,1.0000,-0.0832,0.0467,0.2345
386,Left,2,0.0727,0.0794,-0.9928,-0.0531,1.6247,3.1049,-1.5482,8.7198,-1.8041,1.1158,-9.9123,-0.8559,9.9913,0.0203,0.0388,-0.0193,0.9989,-0.2383,-0.0219,0.2587
386,Pelvis,2,-0.5579,0.3425,-0.6273,-0.4217,-1.9039,0.2076,-0.8327,-1.2711,1.0845,-1.7806,8.1395,0.9485,-0.3972,-0.0238,0.0026,-0.0104,0.9997,0.2037,0.0213,-0.0110
386,Right,2,0.0134,0.2079,0.4600,0.8631,0.5785,-0.1974,0.3202,-0.5990,0.6565,-0.1512,-3.1489,2.8462,8.7246,0.0072,-0.0025,0.0040,1.0000,-0.0795,0.0693,0.2184
387,Left,2,0.1103,0.0598,-0.9884,-0.0854,1.5349,3.2325,-2.2529,7.0562,-1.7253,1.8031,-9.1361,-0.9299,10.1711,0.0192,0.0404,-0.0281,0.9986,-0.2185,-0.0220,0.2628
387,Pelvis,2,-0.5494,0.3508,-0.6168,-0.4413,-1.9101,0.2011,-0.7302,-1.5441,0.6665,-2.6648,7.1873,1.4969,-0.1608,-0.0239,0.0025,-0.0091,0.9997,0.1800,0.0357,-0.0053
387,Right,2,0.0172,0.2074,0.4629,0.8616,0.2159,-0.1328,0.2664,-0.1483,1.0756,-0.7348,-2.3289,2.7135,8.4143,0.0027,-0.0017,0.0033,1.0000,-0.0588,0.0671,0.2104
388,Left,2,0.1502,0.0415,-0.9801,-0.1226,1.4515,3.4520,-2.6629,4.9133,-2.3394,1.8781,-8.0403,-0.1427,10.0858,0.0181,0.0431,-0.0333,0.9984,-0.1900,-0.0018,0.2605
388,Pelvis,2,-0.5409,0.3593,-0.6059,-0.4596,-1.8884,0.1416,-0.6658,-1.0266,0.4122,-3.4488,6.3453,1.1848,0.2389,-0.0236,0.0018,-0.0083,0.9997,0.1589,0.0284,0.0050
388,Right,2,0.0197,0.2074,0.4653,0.8603,0.1434,-0.0614,0.2016,1.0116,-0.1343,0.0113,-2.9569,1.3268,9.3300,0.0018,-0.0008,0.0025,1.0000,-0.0742,0.0326,0.2333
389,Left,2,0.1913,0.0309,-0.9679,-0.1599,0.8382,3.5152,-2.8058,1.5932,-3.9577,3.7638,-6.9718,1.7627,12.2870,0.0105,0.0439,-0.0351,0.9984,-0.1590,0.0466,0.3149
389,Pelvis,2,-0.5314,0.3683,-0.5952,-0.4772,-1.9219,0.1621,-0.5866,-0.2350,1.0516,-4.0600,5.8441,0.2873,-0.1364,-0.0240,0.0020,-0.0073,0.9997,0.1461,0.0060,-0.0039
389,Right,2,0.0263,0.2083,0.4677,0.8586,0.4676,-0.1368,0.2937,0.6905,-0.6567,0.7540,-3.7478,1.5507,9.8037,0.0058,-0.0017,0.0037,1.0000,-0.0943,0.0370,0.2452
390,Left,2,0.2288,0.0305,-0.9540,-0.1915,-0.0057,3.1124,-2.5516,-2.1689,-4.0085,4.0283,-5.0198,2.6225,13.4318,-0.0001,0.0389,-0.0319,0.9987,-0.1101,0.0693,0.3403
390,Pelvis,2,-0.5224,0.3777,-0.5846,-0.4926,-1.8202,0.0534,-0.4684,0.2502,0.9340,-3.8216,6.0659,-0.0519,0.1742,-0.0228,0.0007,-0.0059,0.9997,0.1516,-0.0021,0.0043
390,Right,2,0.0396,0.2089,0.4703,0.8565,0.9084,-0.4047,0.4293,0.1408,-0.0739,0.2627,-3.2845,2.3897,9.2220,0.0114,-0.0051,0.0054,0.9999,-0.0836,0.0567,0.2308
391,Left,2,0.2620,0.0330,-0.9405,-0.2136,-0.3278,2.7162,-1.8779,-4.7671,-2.3978,0.7878,-1.9620,2.2604,11.4872,-0.0041,0.0339,-0.0235,0.9991,-0.0379,0.0587,0.2884
391,Pelvis,2,-0.5146,0.3879,-0.5739,-0.5053,-1.7004,-0.1083,-0.3519,0.8140,0.8094,-3.5093,6.3706,-0.4976,0.4672,-0.0213,-0.0014,-0.0044,0.9998,0.1592,-0.0129,0.0122
391,Right,2,0.0502,0.2085,0.4727,0.8547,0.6872,-0.3784,0.3716,-0.8289,1.4719,-0.6991,-2.0390,3.9593,8.1290,0.0086,-0.0047,0.0046,0.9999,-0.0524,0.0970,0.2038
392,Left,2,0.2910,0.0313,-0.9288,-0.2272,-0.1101,2.4194,-1.1275,-6.2568,-0.4107,0.4464,-0.6551,0.9695,11.9685,-0.0014,0.0302,-0.0141,0.9994,-0.0070,0.0248,0.2995
392,Pelvis,2,-0.5081,0.3983,-0.5637,-0.5152,-1.5174,-0.2448,-0.2406,0.7379,0.6985,-2.6688,7.1791,-0.3113,0.6569,-0.0190,-0.0031,-0.0030,0.9998,0.1794,-0.0080,0.0171
392,Right,2,0.0568,0.2073,0.4749,0.8534,0.3852,-0.2918,0.2807,-0.2826,0.4817,0.1940,-2.7738,3.3724,9.0210,0.0048,-0.0036,0.0035,1.0000,-0.0705,0.0830,0.2257
393,Left,2,0.3114,0.0275,-0.9199,-0.2369,0.1155,1.7422,-0.7729,-6.7625,2.7303,-0.2168,0.8032,-1.5138,11.9311,0.0014,0.0218,-0.0097,0.9997,0.0262,-0.0385,0.2977
393,Pelvis,2,-0.5025,0.4085,-0.5546,-0.5225,-1.3139,-0.3174,-0.1096,0.8266,0.2816,-1.3964,8.3688,-0.2389,1.2260,-0.0164,-0.0040,-0.0014,0.9999,0.2091,-0.0057,0.0316
393,Right,2,0.0653,0.2043,0.4774,0.8521,0.4391,-0.4900,0.3284,0.0473,-0.2851,1.1068,-3.4110,3.0883,9.9071,0.0055,-0.0061,0.0041,1.0000,-0.0871,0.0755,0.2476
394,Left,2,0.3289,0.0270,-0.9102,-0.2504,0.0206,1.5098,-1.1388,-6.1020,6.3174,-1.8926,2.5102,-4.5750,10.6135,0.0003,0.0189,-0.0142,0.9997,0.0661,-0.1154,0.2641
394,Pelvis,2,-0.4979,0.4178,-0.5476,-0.5269,-1.0377,-0.3275,0.0417,1.6569,0.0138,-0.1733,9.5813,-0.9749,1.7071,-0.0130,-0.0041,0.0005,0.9999,0.2394,-0.0237,0.0440
394,Right,2,0.0799,0.1984,0.4803,0.8506,0.7372,-0.9072,0.4836,0.6682,-1.0190,1.7567,-3.7125,2.5972,10.7153,0.0092,-0.0113,0.0060,0.9999,-0.0962,0.0619,0.2674
395,Left,2,0.3477,0.0420,-0.8954,-0.2749,-0.8491,1.4597,-2.4513,-5.8964,9.3134,-2.5140,4.0335,-7.1004,10.3967,-0.0106,0.0182,-0.0306,0.9993,0.1001,-0.1778,0.2600
395,Pelvis,2,-0.4933,0.4255,-0.5431,-0.5297,-0.8031,-0.2165,0.1528,2.3788,-0.5867,1.0335,10.7205,-1.6244,2.4651,-0.0100,-0.0027,0.0019,0.9999,0.2679,-0.0395,0.0628
395,Right,2,0.0977,0.1915,0.4831,0.8488,0.9176,-1.1022,0.5541,0.5563,-0.3434,0.6498,-2.6059,2.9304,9.7225,0.0115,-0.0138,0.0069,0.9998,-0.0690,0.0700,0.2429
396,Left,2,0.3779,0.0730,-0.8701,-0.3079,-2.0485,2.2586,-3.6977,-7.1225,9.3113,-10.1224,9.4074,-4.2011,5.6048,-0.0256,0.0282,-0.0462,0.9982,0.2340,-0.1123,0.1363
396,Pelvis,2,-0.4884,0.4302,-0.5419,-0.5317,-0.5110,0.0284,0.2172,3.0153,-1.7213,2.3416,11.8609,-2.1935,3.7802,-0.0064,0.0004,0.0027,1.0000,0.2967,-0.0534,0.0947
396,Right,2,0.1176,0.1845,0.4859,0.8462,1.0657,-1.1729,0.6160,1.0257,-0.9229,0.8087,-2.5979,2.6052,10.0597,0.0133,-0.0147,0.0077,0.9998,-0.0691,0.0613,0.2513
397,Left,2,0.3866,0.0694,-0.8472,-0.3576,1.4157,1.6576,-3.8690,-15.1211,13.4085,-2.4377,11.2548,-5.2604,17.5718,0.0177,0.0207,-0.0483,0.9985,0.2833,-0.1529,0.4309
397,Pelvis,2,-0.4836,0.4320,-0.5436,-0.5328,-0.2290,0.2284,0.2657,3.6282,-3.1424,2.3728,11.6639,-2.8247,5.2441,-0.0029,0.0029,0.0033,1.0000,0.2922,-0.0693,0.1305
397,Right,2,0.1384,0.1776,0.4882,0.8432,1.1371,-1.2035,0.6289,-0.2731,-0.4936,1.1910,-2.5449,4.2906,9.8252,0.0142,-0.0150,0.0079,0.9998,-0.0681,0.1032,0.2461
398,Left,2,0.3160,0.0273,-0.8598,-0.4002,6.2780,-3.7523,-1.6170,-45.9178,-3.4414,9.8298,7.9391,23.7893,43.4034,0.0784,-0.0468,-0.0202,0.9956,0.1568,0.5034,1.1350
398,Pelvis,2,-0.4780,0.4326,-0.5470,-0.5341,-0.1204,0.3869,0.3148,2.1938,-3.4094,0.6520,9.8164,-1.5646,5.2095,-0.0015,0.0048,0.0039,1.0000,0.2462,-0.0380,0.1291
398,Right,2,0.1609,0.1676,0.4893,0.8406,1.1463,-1.4882,0.5784,1.3591,-2.4382,1.7674,-3.1731,2.6616,11.1699,0.0143,-0.0186,0.0072,0.9997,-0.0850,0.0619,0.2786
399,Left,2,0.2484,0.0372,-0.8766,-0.4105,1.7622,-5.3567,-0.5741,-5.1525,2.6212,1.5438,-0.7413,-1.4537,12.6490,0.0220,-0.0669,-0.0072,0.9975,-0.0399,-0.0430,0.3131
399,Pelvis,2,-0.4710,0.4328,-0.5492,-0.5378,-0.2875,0.4969,0.1950,0.8704,-2.5483,-0.0319,9.1938,-0.4082,4.2691,-0.0036,0.0062,0.0024,1.0000,0.2305,-0.0093,0.1053
399,Right,2,0.1815,0.1524,0.4838,0.8425,0.8409,-1.9186,0.0194,0.8312,-2.2987,3.9079,-3.0197,4.3806,12.8826,0.0105,-0.0240,0.0002,0.9997,-0.0832,0.1061,0.3213
400,Left,2,0.2094,0.0438,-0.8843,-0.4151,0.9170,-3.0752,-0.3145,1.9967,6.3106,1.9356,-0.7427,-8.6116,10.3535,0.0115,-0.0384,-0.0039,0.9992,-0.0293,-0.2181,0.2554
400,Pelvis,2,-0.4617,0.4299,-0.5514,-0.5458,-0.4096,0.8823,-0.0368,-1.2872,-0.1358,0.7627,10.3168,1.6123,2.1174,-0.0051,0.0110,-0.0005,0.9999,0.2585,0.0404,0.0499
400,Right,2,0.1928,0.1315,0.4675,0.8526,0.0063,-2.1922,-1.0535,6.7324,-6.4152,3.3921,-2.9232,-2.1619,15.7385,0.0001,-0.0274,-0.0132,0.9995,-0.0845,-0.0530,0.3912
401,Left,2,0.1741,0.0350,-0.8918,-0.4162,1.8290,-2.3151,0.2002,-6.0760,3.4685,-2.2637,3.8207,0.4060,9.5508,0.0229,-0.0289,0.0025,0.9993,0.0885,0.0049,0.2416
401,Pelvis,2,-0.4530,0.4260,-0.5521,-0.5554,-0.4678,0.8943,-0.2259,-3.1947,1.1415,3.2098,12.8778,3.5692,1.5890,-0.0058,0.0112,-0.0028,0.9999,0.3226,0.0885,0.0356
401,Right,2,0.2059,0.1033,0.4229,0.8764,-0.0442,-3.3217,-3.3330,11.6011,-19.1136,4.1289,-9.2920,-12.1503,21.4723,-0.0006,-0.0415,-0.0416,0.9983,-0.2667,-0.2928,0.5264
402,Left,2,0.1652,0.0324,-0.8932,-0.4170,0.4802,-0.5461,-0.0002,-3.7464,0.6888,0.2763,-0.0192,0.2630,10.7810,0.0060,-0.0068,-0.0000,1.0000,-0.0023,0.0050,0.2695
402,Pelvis,2,-0.4420,0.4265,-0.5497,-0.5662,-0.9417,0.7311,-0.1804,-1.7551,2.0800,5.0927,14.9159,2.2195,1.4750,-0.0118,0.0091,-0.0023,0.9999,0.3733,0.0550,0.0328
402,Right,2,0.2394,0.0811,0.3583,0.8988,1.7892,-3.8876,-4.5591,-1.2393,-19.9575,-5.0220,-15.4670,-8.8590,10.2886,0.0223,-0.0485,-0.0569,0.9969,-0.4104,-0.2039,0.2329
403,Left,2,0.1644,0.0330,-0.8930,-0.4176,-0.0187,-0.0589,-0.0524,0.2492,-0.1882,0.7115,-3.1001,-2.1223,9.8357,-0.0002,-0.0007,-0.0007,1.0000,-0.0777,-0.0529,0.2458
403,Pelvis,2,-0.4286,0.4318,-0.5441,-0.5779,-1.4169,0.5384,-0.1151,-4.6096,3.0305,4.7287,14.6732,5.0921,0.8149,-0.0177,0.0067,-0.0014,0.9998,0.3671,0.1271,0.0157
403,Right,2,0.2563,0.0881,0.2919,0.9172,1.5406,-1.3035,-5.2096,-11.1976,-11.4427,-13.2878,-15.9473,-3.2479,-1.9914,0.0192,-0.0163,-0.0651,0.9976,-0.4019,-0.0540,-0.0575
404,Left,2,0.1595,0.0338,-0.8935,-0.4183,0.1080,-0.3703,-0.0597,0.5187,-0.0550,0.8320,-3.1325,-2.4211,9.8948,0.0014,-0.0046,-0.0007,1.0000,-0.0795,-0.0608,0.2469
404,Pelvis,2,-0.4160,0.4386,-0.5338,-0.5913,-1.7028,0.3319,-0.3897,-3.1082,4.0251,0.6935,11.0611,3.6105,-0.9303,-0.0213,0.0041,-0.0049,0.9998,0.2769,0.0884,-0.0263
404,Right,2,0.2302,0.0933,0.2576,0.9338,-1.8616,0.2207,-3.0841,-12.1606,-6.9564,-3.1559,-14.2047,3.8792,4.8905,-0.0233,0.0028,-0.0385,0.9990,-0.3506,0.1134,0.1207
405,Left,2,0.1532,0.0370,-0.8941,-0.4192,-0.0206,-0.5545,-0.0960,-0.4592,-0.1881,0.9107,-2.5437,-1.6217,10.3024,-0.0003,-0.0069,-0.0012,1.0000,-0.0654,-0.0404,0.2571
405,Pelvis,2,-0.4059,0.4438,-0.5241,-0.6030,-1.4754,0.2685,-0.4374,2.1813,3.9082,0.0359,10.6350,-1.5328,-1.2555,-0.0184,0.0034,-0.0055,0.9998,0.2656,-0.0404,-0.0315
405,Right,2,0.2022,0.1011,0.2483,0.9419,-1.9789,0.9483,-1.1141,-5.9927,-8.4785,-4.2583,-9.8946,-1.4969,6.2082,-0.0247,0.0119,-0.0139,0.9995,-0.2459,-0.0301,0.1589
406,Left,2,0.1460,0.0429,-0.8943,-0.4207,-0.1732,-0.6940,-0.1943,0.1331,0.2900,0.5414,-2.2798,-2.3261,9.8338,-0.0022,-0.0087,-0.0024,1.0000,-0.0593,-0.0575,0.2455
406,Pelvis,2,-0.3976,0.4487,-0.5195,-0.6088,-0.9648,0.1615,-0.0076,5.1291,3.0068,-0.2797,10.2687,-4.4826,-0.8292,-0.0121,0.0020,-0.0001,0.9999,0.2567,-0.1123,-0.0199
406,Right,2,0.1740,0.1109,0.2501,0.9460,-1.9778,1.3059,-0.2381,-4.9902,-8.3674,-1.1109,-9.4527,-1.0504,8.9565,-0.0247,0.0163,-0.0030,0.9996,-0.2327,-0.0200,0.2283
407,Left,2,0.1383,0.0499,-0.8941,-0.4230,-0.2210,-0.7720,-0.2811,-0.1521,0.0778,0.4315,-2.0501,-2.0160,9.8341,-0.0028,-0.0096,-0.0035,0.9999,-0.0538,-0.0495,0.2455
407,Pelvis,2,-0.3909,0.4531,-0.5213,-0.6084,-0.3926,0.1076,0.5009,4.4414,2.2742,-2.6700,7.7132,-3.9808,-0.7593,-0.0049,0.0013,0.0063,1.0000,0.1934,-0.0984,-0.0188
407,Right,2,0.1392,0.1211,0.2566,0.9488,-2.4983,1.5235,0.0825,-3.1120,-10.6092,-2.0548,-9.1930,-4.6017,8.7638,-0.0312,0.0190,0.0010,0.9993,-0.2254,-0.1083,0.2269
408,Left,2,0.1289,0.0579,-0.8936,-0.4261,-0.2269,-0.9120,-0.3641,-0.0789,-0.1703,0.3494,-2.0444,-1.9649,9.7605,-0.0028,-0.0114,-0.0046,0.9999,-0.0541,-0.0482,0.2435
408,Pelvis,2,-0.3865,0.4560,-0.5256,-0.6054,0.0014,0.0729,0.6036,2.1307,1.9653,-4.3846,5.8406,-1.8329,-0.6284,0.0000,0.0009,0.0075,1.0000,0.1463,-0.0447,-0.0158
408,Right,2,0.1041,0.1383,0.2592,0.9502,-2.3273,2.0327,-0.2535,-2.1746,-10.1269,-0.8511,-8.7351,-4.8278,9.3848,-0.0291,0.0254,-0.0032,0.9992,-0.2126,-0.1130,0.2434
409,Left,2,0.1178,0.0660,-0.8928,-0.4297,-0.1756,-1.0374,-0.4159,-0.4529,-0.1779,0.0998,-1.5234,-1.6920,9.6600,-0.0022,-0.0130,-0.0052,0.9999,-0.0414,-0.0416,0.2411
409,Pelvis,2,-0.3856,0.4577,-0.5286,-0.6020,0.1971,-0.0759,0.3960,1.3021,1.8052,-4.6024,5.5417,-1.1029,-0.4185,0.0025,-0.0009,0.0050,1.0000,0.1387,-0.0269,-0.0104
409,Right,2,0.0684,0.1558,0.2522,0.9526,-2.2676,1.9603,-1.0136,-3.5169,-9.0608,5.4670,-11.1518,-2.4804,14.0566,-0.0283,0.0245,-0.0127,0.9992,-0.2707,-0.0484,0.3596
410,Left,2,0.1065,0.0733,-0.8919,-0.4333,-0.1138,-1.0242,-0.4103,-0.4546,-0.0382,-0.2901,-1.0893,-1.7384,9.3104,-0.0014,-0.0128,-0.0051,0.9999,-0.0304,-0.0430,0.2324
410,Pelvis,2,-0.3881,0.4585,-0.5296,-0.5989,0.3272,-0.2241,0.1384,1.1495,1.5834,-3.8515,6.1884,-1.0337,0.0076,0.0041,-0.0028,0.0017,1.0000,0.1548,-0.0256,0.0005
410,Right,2,0.0359,0.1674,0.2336,0.9571,-2.0056,1.3408,-1.8675,-2.7153,-4.6669,5.4802,-8.8397,-0.1678,13.6008,-0.0251,0.0168,-0.0233,0.9993,-0.2151,0.0095,0.3435
411,Left,2,0.0961,0.0777,-0.8915,-0.4358,0.0553,-0.8760,-0.2983,-0.7076,1.0255,-1.6401,0.2971,-1.9091,8.0383,0.0007,-0.0109,-0.0037,0.9999,0.0050,-0.0479,0.2010
411,Pelvis,2,-0.3934,0.4583,-0.5293,-0.5959,0.4664,-0.3261,-0.0647,1.1926,1.3627,-3.3812,6.5805,-1.1168,0.3049,0.0058,-0.0041,-0.0008,1.0000,0.1645,-0.0281,0.0081
411,Right,2,0.0009,0.1794,0.2055,0.9621,-2.0603,1.3731,-2.6495,-2.2143,0.7699,3.5899,-5.9043,3.0998,11.8647,-0.0257,0.0172,-0.0331,0.9990,-0.1397,0.0899,0.2969
412,Left,2,0.0884,0.0789,-0.8913,-0.4376,0.1925,-0.5650,-0.1824,-0.8781,1.0764,-1.9719,0.6293,-1.7081,7.7522,0.0024,-0.0071,-0.0023,1.0000,0.0143,-0.0432,0.1938
412,Pelvis,2,-0.4003,0.4563,-0.5285,-0.5934,0.5913,-0.3102,-0.2154,1.4882,1.0084,-2.4781,7.3702,-1.4354,0.8050,0.0074,-0.0039,-0.0027,1.0000,0.1841,-0.0365,0.0206
412,Right,2,-0.0398,0.1933,0.1749,0.9646,-2.4430,1.6544,-2.8908,-1.5575,6.6863,2.3915,-3.4241,7.1837,11.5287,-0.0305,0.0207,-0.0361,0.9987,-0.0729,0.1911,0.2841
413,Left,2,0.0835,0.0764,-0.8915,-0.4386,0.3533,-0.2565,-0.0810,-0.8056,1.1560,-1.5565,0.6998,-1.8441,8.1400,0.0044,-0.0032,-0.0010,1.0000,0.0168,-0.0470,0.2033
413,Pelvis,2,-0.4078,0.4528,-0.5284,-0.5912,0.7084,-0.2289,-0.2717,2.0546,0.4404,-1.4803,8.2179,-2.0061,1.5121,0.0089,-0.0029,-0.0034,1.0000,0.2052,-0.0512,0.0379
413,Right,2,-0.0840,0.2075,0.1526,0.9626,-2.8420,1.7609,-2.2700,0.9509,14.6390,0.0977,1.0344,12.8867,12.1057,-0.0355,0.0220,-0.0284,0.9987,0.0417,0.3316,0.2902
414,Left,2,0.0814,0.0713,-0.8919,-0.4390,0.4326,0.0361,0.0071,-0.4902,1.0884,-1.0676,0.4415,-2.0641,8.5701,0.0054,0.0005,0.0001,1.0000,0.0111,-0.0528,0.2140
414,Pelvis,2,-0.4143,0.4496,-0.5292,-0.5884,0.7182,-0.1859,-0.1526,2.2080,-0.0012,-0.6885,8.8971,-2.1284,2.1065,0.0090,-0.0023,-0.0019,1.0000,0.2222,-0.0541,0.0527
414,Right,2,-0.1225,0.2226,0.1465,0.9560,-2.6920,1.7376,-0.8793,3.0487,17.7618,-7.6645,5.9772,15.2948,7.7408,-0.0336,0.0217,-0.0110,0.9991,0.1576,0.3868,0.1772
415,Left,2,0.0805,0.0665,-0.8924,-0.4391,0.3752,0.1049,0.0368,-1.1302,-0.4998,0.2088,-0.5576,-0.7691,10.0527,0.0047,0.0013,0.0005,1.0000,-0.0136,-0.0204,0.2512
415,Pelvis,2,-0.4172,0.4486,-0.5305,-0.5859,0.4786,-0.1160,0.0623,2.0726,-1.4578,0.5537,9.7450,-2.0776,3.8213,0.0060,-0.0015,0.0008,1.0000,0.2435,-0.0523,0.0956
415,Right,2,-0.1486,0.2575,0.1544,0.9422,-1.8421,3.1082,0.6610,2.5202,18.2460,-16.2731,9.3508,17.0656,1.5911,-0.0230,0.0388,0.0083,0.9989,0.2313,0.4292,0.0209
416,Left,2,0.0789,0.0638,-0.8927,-0.4392,0.2458,-0.0165,0.0149,0.5739,0.1095,1.1017,-1.1850,-2.5427,10.5638,0.0031,-0.0002,0.0002,1.0000,-0.0297,-0.0644,0.2639
416,Pelvis,2,-0.4156,0.4507,-0.5309,-0.5851,0.0501,-0.0364,0.2025,1.4686,-2.3226,1.0998,10.0435,-1.5668,4.8278,0.0006,-0.0005,0.0025,1.0000,0.2511,-0.0386,0.1208
416,Right,2,-0.1286,0.2975,0.1668,0.9312,1.6315,2.8208,1.9621,9.4251,13.9168,8.3880,0.3183,5.9887,24.0427,0.0204,0.0352,0.0245,0.9989,0.0257,0.1379,0.6033
417,Left,2,0.0758,0.0622,-0.8927,-0.4399,0.2222,-0.1535,-0.0584,0.2660,0.1733,0.7129,-0.8919,-2.2100,10.2572,0.0028,-0.0019,-0.0007,1.0000,-0.0228,-0.0559,0.2562
417,Pelvis,2,-0.4112,0.4541,-0.5307,-0.5857,-0.1946,0.0459,0.2655,1.0995,-2.1963,0.6233,9.5950,-1.2702,4.6117,-0.0024,0.0006,0.0033,1.0000,0.2400,-0.0307,0.1152
417,Right,2,-0.0579,0.2868,0.1797,0.9392,4.9140,-2.0835,2.4359,8.9201,46.3010,1.2921,12.9216,38.5555,26.4059,0.0614,-0.0260,0.0304,0.9973,0.2760,0.9295,0.7256
418,Left,2,0.0750,0.0610,-0.8923,-0.4409,0.1098,-0.0084,-0.0810,-0.5290,0.8603,-0.1887,0.2302,-1.8062,9.5040,0.0014,-0.0001,-0.0010,1.0000,0.0057,-0.0455,0.2375
418,Pelvis,2,-0.4041,0.4541,-0.5332,-0.5884,-0.1500,0.4826,0.2935,1.5311,-1.9777,0.5652,9.5653,-1.7768,4.3940,-0.0019,0.0060,0.0037,1.0000,0.2399,-0.0433,0.1085
418,Right,2,-0.0176,0.2348,0.2005,0.9510,1.8513,-4.8434,2.0488,-4.2224,4.6877,0.5271,-6.9996,6.2304,7.6877,0.0231,-0.0605,0.0256,0.9976,-0.1902,0.1467,0.1844
419,Left,2,0.0760,0.0558,-0.8920,-0.4421,0.3373,0.2715,-0.0548,-0.3137,1.7445,-1.2254,0.8645,-2.2755,8.4237,0.0042,0.0034,-0.0007,1.0000,0.0223,-0.0578,0.2103
419,Pelvis,2,-0.3951,0.4516,-0.5392,-0.5910,-0.0031,0.7856,0.4541,0.3358,-0.4749,1.7885,11.0446,-0.5540,3.5555,-0.0000,0.0098,0.0057,0.9999,0.2770,-0.0123,0.0862
419,Right,2,0.0064,0.1845,0.2103,0.9600,0.8449,-4.3918,0.9353,9.6093,0.2044,1.5760,3.4417,-2.7485,14.2437,0.0106,-0.0549,0.0117,0.9984,0.0672,-0.0716,0.3594
420,Left,2,0.0786,0.0446,-0.8882,-0.4505,0.7352,0.6484,-0.6571,7.5546,6.4158,1.4829,-0.3546,-11.5607,9.5946,0.0092,0.0081,-0.0082,0.9999,-0.0093,-0.2911,0.2373
420,Pelvis,2,-0.3826,0.4438,-0.5491,-0.5960,0.1264,1.3958,0.4974,-2.1420,0.5830,3.7491,13.1053,1.8400,3.7061,0.0016,0.0174,0.0062,0.9998,0.3289,0.0479,0.0870
420,Right,2,0.0324,0.1761,0.2220,0.9585,1.6630,-1.0426,1.2947,1.3518,7.6970,1.4314,0.5933,7.7197,11.2963,0.0208,-0.0130,0.0162,0.9996,0.0081,0.1872,0.2865
421,Left,2,0.0787,0.0239,-0.8733,-0.4803,1.6032,0.9555,-2.5182,16.3964,9.6291,0.8380,-2.2744,-20.2189,7.8209,0.0200,0.0119,-0.0315,0.9992,-0.0705,-0.5072,0.1862
421,Pelvis,2,-0.3753,0.4384,-0.5584,-0.5959,0.3724,0.8579,0.5856,-7.1081,2.9422,5.3552,15.3142,6.8018,2.9099,0.0047,0.0107,0.0073,0.9999,0.3824,0.1725,0.0694
421,Right,2,0.0412,0.1774,0.2241,0.9574,0.6553,-0.0124,0.2777,0.5570,3.0119,0.4645,-1.5137,4.0108,9.8300,0.0082,-0.0002,0.0035,1.0000,-0.0382,0.0981,0.2466
422,Left,2,0.0645,-0.0228,-0.8552,-0.5138,3.9908,0.9817,-2.7685,10.0315,1.0492,-0.0648,-5.2649,-9.8650,8.4743,0.0499,0.0123,-0.0346,0.9981,-0.1378,-0.2521,0.2010
422,Pelvis,2,-0.3806,0.4341,-0.5613,-0.5930,0.7447,-0.0502,-0.0212,0.5986,5.7364,1.0450,12.1489,-0.5140,-1.8148,0.0093,-0.0006,-0.0003,1.0000,0.3037,-0.0125,-0.0453
422,Right,2,0.0462,0.1794,0.2251,0.9566,0.3921,0.0951,0.1371,-1.1873,1.6577,-0.0137,-3.4027,3.5846,8.7035,0.0049,0.0012,0.0017,1.0000,-0.0850,0.0884,0.2181
423,Left,2,0.0494,-0.0710,-0.8438,-0.5297,4.0296,0.9769,-1.2809,0.0887,-8.3728,-0.2984,-8.8084,3.8900,8.2449,0.0503,0.0122,-0.0160,0.9985,-0.2162,0.0901,0.2134
423,Pelvis,2,-0.3948,0.4179,-0.5671,-0.5898,1.8094,0.2023,-0.5316,1.1069,4.8098,2.7829,13.4805,-1.0782,-0.3571,0.0226,0.0025,-0.0066,0.9997,0.3368,-0.0290,-0.0104
423,Right,2,0.0467,0.1795,0.2257,0.9564,0.0089,0.0235,0.0247,-0.2773,1.6443,0.1933,-2.7155,3.2872,9.2044,0.0001,0.0003,0.0003,1.0000,-0.0678,0.0821,0.2301
424,Left,2,0.0755,-0.0554,-0.8495,-0.5192,-2.2273,1.1438,0.7399,2.4671,-8.9425,1.6442,-10.9343,2.2136,9.6370,-0.0278,0.0143,0.0092,0.9995,-0.2704,0.0596,0.2432
424,Pelvis,2,-0.4083,0.4013,-0.5770,-0.5825,2.0790,0.2411,-0.1433,-2.6446,4.4631,2.6883,13.2463,2.7761,0.1380,0.0260,0.0030,-0.0018,0.9997,0.3313,0.0687,0.0042
424,Right,2,0.0446,0.1803,0.2264,0.9562,-0.1705,0.1187,-0.0029,-0.2187,0.6828,0.2502,-3.1258,2.4017,9.2864,-0.0021,0.0015,-0.0000,1.0000,-0.0778,0.0605,0.2321
425,Left,2,0.1019,-0.0376,-0.8545,-0.5080,-2.3953,1.0706,0.7453,11.4470,-5.2412,-3.4036,-11.0471,-7.7418,4.2024,-0.0299,0.0134,0.0093,0.9994,-0.2729,-0.1928,0.1145
425,Pelvis,2,-0.4197,0.3868,-0.5897,-0.5715,2.0828,0.2261,0.2899,-3.9471,3.3731,1.7507,11.9793,4.0774,0.7362,0.0260,0.0028,0.0036,0.9997,0.2992,0.1025,0.0202
425,Right,2,0.0421,0.1807,0.2273,0.9560,-0.2154,0.1024,0.0078,0.0245,0.5145,0.2210,-3.0092,2.1068,9.3513,-0.0027,0.0013,0.0001,1.0000,-0.0749,0.0533,0.2337
426,Left,2,0.1117,-0.0440,-0.8553,-0.5040,0.0080,0.9212,0.3339,5.9960,-6.1178,0.2950,-10.2923,-2.6641,7.9073,0.0001,0.0115,0.0042,0.9999,-0.2547,-0.0677,0.2006
426,Pelvis,2,-0.4309,0.3738,-0.6010,-0.5598,1.9587,0.1028,0.3071,-3.8373,2.2970,-0.0828,9.9106,3.9415,0.9593,0.0245,0.0013,0.0038,0.9997,0.2474,0.0989,0.0261
426,Right,2,0.0406,0.1802,0.2279,0.9560,-0.1536,0.0168,0.0010,-0.2462,0.0760,0.3483,-3.4811,1.8133,9.3758,-0.0019,0.0002,0.0000,1.0000,-0.0870,0.0458,0.2343
427,Left,2,0.1178,-0.0423,-0.8620,-0.4911,-0.4918,0.3313,1.1117,-1.8234,-5.5411,-0.0585,-6.1500,3.9605,8.6985,-0.0061,0.0041,0.0139,0.9999,-0.1542,0.0982,0.2175
427,Pelvis,2,-0.4420,0.3618,-0.6099,-0.5493,1.7675,0.0160,0.1796,-3.0992,1.0003,-2.5160,7.1957,3.2457,1.2399,0.0221,0.0002,0.0022,0.9998,0.1797,0.0808,0.0328
427,Right,2,0.0410,0.1788,0.2294,0.9559,-0.0395,-0.0875,0.1062,0.0155,-0.3459,0.0725,-3.3487,1.2707,9.2200,-0.0005,-0.0011,0.0013,1.0000,-0.0840,0.0318,0.2304
428,Left,2,0.1327,-0.0248,-0.8784,-0.4584,-2.1528,0.2825,2.6899,-1.9615,-3.8308,-0.1156,-4.5444,3.1453,9.0564,-0.0269,0.0035,0.0336,0.9991,-0.1155,0.0808,0.2247
428,Pelvis,2,-0.4517,0.3505,-0.6171,-0.5407,1.5352,0.0420,0.0685,-2.9088,0.1047,-3.7424,5.7408,3.1594,1.5442,0.0192,0.0005,0.0009,0.9998,0.1435,0.0783,0.0400
428,Right,2,0.0426,0.1771,0.2319,0.9555,0.0380,-0.1340,0.2062,0.0468,0.0624,-0.0782,-3.0526,1.6153,9.1015,0.0005,-0.0017,0.0026,1.0000,-0.0768,0.0401,0.2274
429,Left,2,0.1431,-0.0011,-0.8981,-0.4158,-2.5437,-0.2745,3.4453,3.0808,-0.6513,2.7307,-5.5076,-3.2292,11.2473,-0.0318,-0.0034,0.0430,0.9986,-0.1353,-0.0776,0.2832
429,Pelvis,2,-0.4588,0.3414,-0.6224,-0.5345,1.1585,0.0781,0.0175,-2.7586,-0.3987,-3.6513,5.6493,3.1535,1.9682,0.0145,0.0010,0.0002,0.9999,0.1413,0.0781,0.0502
429,Right,2,0.0446,0.1746,0.2344,0.9553,0.0518,-0.1905,0.2145,0.3000,0.6406,-0.3107,-2.4519,2.0130,8.9846,0.0006,-0.0024,0.0027,1.0000,-0.0620,0.0500,0.2245
430,Left,2,0.1440,0.0138,-0.9153,-0.3760,-1.5563,-0.6356,3.2561,1.4735,2.2973,-0.8127,-1.5960,-3.7613,8.4712,-0.0194,-0.0079,0.0407,0.9990,-0.0378,-0.0915,0.2133
430,Pelvis,2,-0.4637,0.3346,-0.6261,-0.5301,0.8166,0.0758,-0.0033,-2.2237,0.0219,-2.3612,6.9980,2.6807,2.0765,0.0102,0.0009,-0.0000,0.9999,0.1750,0.0665,0.0524
430,Right,2,0.0463,0.1726,0.2365,0.9551,0.0426,-0.1572,0.1795,0.0570,0.1200,-0.3365,-2.8334,1.6815,8.8859,0.0005,-0.0020,0.0022,1.0000,-0.0714,0.0418,0.2220
431,Left,2,0.1486,0.0243,-0.9272,-0.3429,-1.2728,-0.1672,2.6683,-0.6230,2.3699,-2.0603,0.0335,-2.4352,7.7576,-0.0159,-0.0021,0.0333,0.9993,0.0024,-0.0577,0.1949
431,Pelvis,2,-0.4666,0.3296,-0.6293,-0.5269,0.5741,0.1140,0.0283,-1.9574,0.4564,-0.9846,8.4337,2.4624,2.1873,0.0072,0.0014,0.0004,1.0000,0.2109,0.0612,0.0548
431,Right,2,0.0481,0.1715,0.2386,0.9547,0.0712,-0.0865,0.1761,0.6492,0.3843,-0.7938,-2.0393,1.6076,8.6698,0.0009,-0.0011,0.0022,1.0000,-0.0513,0.0399,0.2167
432,Left,2,0.1569,0.0301,-0.9337,-0.3204,-0.9134,0.3225,1.7923,-2.3439,3.8890,-1.0014,1.8045,-2.9403,9.2934,-0.0114,0.0040,0.0224,0.9997,0.0476,-0.0698,0.2330
432,Pelvis,2,-0.4683,0.3267,-0.6321,-0.5237,0.3952,0.0731,0.1262,-1.5832,0.8080,-0.0120,9.4643,2.1031,2.2842,0.0049,0.0009,0.0016,1.0000,0.2366,0.0527,0.0571
432,Right,2,0.0492,0.1722,0.2397,0.9542,0.0640,0.0712,0.0930,0.3634,0.5136,-0.3501,-2.3372,1.9514,8.9814,0.0008,0.0009,0.0012,1.0000,-0.0583,0.0485,0.2246
433,Left,2,0.1648,0.0363,-0.9372,-0.3053,-0.8503,0.3421,1.1555,-6.1388,2.6738,1.2593,3.1096,-0.4205,12.5534,-0.0106,0.0043,0.0144,0.9998,0.0792,-0.0060,0.3136
433,Pelvis,2,-0.4695,0.3256,-0.6346,-0.5204,0.2738,0.0046,0.1914,-1.0176,1.2325,0.5041,10.0960,1.4741,2.2106,0.0034,0.0001,0.0024,1.0000,0.2523,0.0373,0.0554
433,Right,2,0.0499,0.1736,0.2403,0.9538,0.0579,0.1167,0.0524,0.0707,0.5724,-0.0408,-2.6575,2.2103,9.1584,0.0007,0.0015,0.0007,1.0000,-0.0661,0.0550,0.2291
434,Left,2,0.1680,0.0434,-0.9406,-0.2918,-0.7778,-0.0310,1.0114,-8.6772,2.1220,-0.1858,5.0880,1.3338,12.0340,-0.0097,-0.0004,0.0126,0.9999,0.1266,0.0379,0.3005
434,Pelvis,2,-0.4712,0.3246,-0.6364,-0.5173,0.2602,-0.0374,0.1495,-0.9830,1.4394,0.5434,10.2135,1.3634,2.0281,0.0033,-0.0005,0.0019,1.0000,0.2552,0.0344,0.0509
434,Right,2,0.0505,0.1752,0.2405,0.9534,0.0504,0.1448,0.0141,0.2286,0.4891,-0.1161,-2.5663,2.0739,9.1340,0.0006,0.0018,0.0002,1.0000,-0.0638,0.0517,0.2285
435,Left,2,0.1667,0.0473,-0.9441,-0.2804,-0.4013,-0.2803,0.8771,-9.6011,1.3380,-1.4876,5.8239,2.4085,11.1160,-0.0050,-0.0035,0.0110,0.9999,0.1439,0.0632,0.2781
435,Pelvis,2,-0.4730,0.3235,-0.6377,-0.5147,0.2439,-0.0524,0.0930,-1.1693,1.0336,0.3698,9.9199,1.6160,2.2588,0.0030,-0.0007,0.0012,1.0000,0.2479,0.0405,0.0568
435,Right,2,0.0508,0.1779,0.2404,0.9529,0.0585,0.2249,-0.0124,0.2278,0.3631,-0.0464,-2.6853,1.9939,9.1857,0.0007,0.0028,-0.0002,1.0000,-0.0665,0.0497,0.2299
436,Left,2,0.1610,0.0470,-0.9466,-0.2752,0.0829,-0.4752,0.4285,-8.9710,1.0516,-1.4281,5.2952,2.1779,10.9136,0.0010,-0.0059,0.0054,1.0000,0.1305,0.0549,0.2737
436,Pelvis,2,-0.4754,0.3234,-0.6382,-0.5119,0.1893,-0.1476,0.0897,-1.4073,0.6654,0.2379,9.6842,1.9216,2.4413,0.0024,-0.0018,0.0011,1.0000,0.2419,0.0482,0.0616
436,Right,2,0.0515,0.1808,0.2402,0.9524,0.0951,0.2359,-0.0104,-0.0371,0.1742,0.2600,-3.1375,2.0227,9.3572,0.0012,0.0029,-0.0001,1.0000,-0.0777,0.0503,0.2342
437,Left,2,0.1528,0.0451,-0.9476,-0.2769,0.3522,-0.5854,-0.1101,-7.9804,1.0588,0.0108,4.2701,1.4567,11.8725,0.0044,-0.0073,-0.0014,1.0000,0.1046,0.0350,0.2977
437,Pelvis,2,-0.4768,0.3241,-0.6384,-0.5100,0.0729,-0.1265,0.0830,-1.4268,0.3141,-0.1615,9.2028,1.9925,2.5723,0.0009,-0.0016,0.0010,1.0000,0.2299,0.0500,0.0647
437,Right,2,0.0530,0.1826,0.2400,0.9520,0.1319,0.1422,-0.0003,-0.2974,0.2564,0.2607,-3.3506,2.2405,9.2402,0.0016,0.0018,-0.0000,1.0000,-0.0834,0.0556,0.2312
438,Left,2,0.1399,0.0457,-0.9476,-0.2834,0.3116,-0.9678,-0.5494,-5.9645,1.4321,1.9487,2.5901,-0.0901,13.0097,0.0039,-0.0121,-0.0069,0.9999,0.0608,-0.0039,0.3260
438,Pelvis,2,-0.4775,0.3247,-0.6384,-0.5089,0.0046,-0.0756,0.0531,-1.0966,-0.2171,-0.4546,8.7494,1.7854,3.0140,0.0001,-0.0009,0.0007,1.0000,0.2186,0.0448,0.0756
438,Right,2,0.0543,0.1830,0.2399,0.9518,0.0879,0.0298,0.0138,-0.1419,0.2607,0.0977,-3.1829,2.1765,9.1343,0.0011,0.0004,0.0002,1.0000,-0.0795,0.0541,0.2284
439,Left,2,0.1293,0.0460,-0.9464,-0.2923,0.3057,-0.7557,-0.7419,-4.8813,1.3129,-0.6617,2.5372,0.0071,10.1419,0.0038,-0.0094,-0.0093,0.9999,0.0610,-0.0014,0.2541
439,Pelvis,2,-0.4779,0.3246,-0.6385,-0.5086,-0.0066,-0.0015,0.0011,-0.4245,-0.2736,-0.5601,8.6193,1.1433,3.2042,-0.0001,-0.0000,0.0000,1.0000,0.2155,0.0286,0.0801
439,Right,2,0.0555,0.1827,0.2401,0.9518,0.0578,-0.0228,0.0249,0.0521,0.3040,0.0162,-2.9717,2.1375,9.1270,0.0007,-0.0003,0.0003,1.0000,-0.0744,0.0533,0.2282
440,Left,2,0.1278,0.0466,-0.9436,-0.3017,0.0717,-0.0564,-0.7867,-4.5147,0.9432,-1.1411,2.2420,0.2865,9.5583,0.0009,-0.0007,-0.0098,1.0000,0.0559,0.0064,0.2390
440,Pelvis,2,-0.4784,0.3233,-0.6392,-0.5080,0.0863,0.0572,-0.0172,-0.3059,0.1723,-0.2708,9.0386,0.9344,2.9328,0.0011,0.0007,-0.0002,1.0000,0.2260,0.0232,0.0732
440,Right,2,0.0565,0.1820,0.2401,0.9519,0.0407,-0.0474,0.0179,-0.1222,0.3488,0.1079,-3.1078,2.2887,9.1465,0.0005,-0.0006,0.0002,1.0000,-0.0778,0.0571,0.2286
441,Left,2,0.1352,0.0453,-0.9402,-0.3093,-0.0214,0.6606,-0.6132,-6.1613,-0.0150,-1.0343,2.8622,2.0185,10.1370,-0.0003,0.0083,-0.0077,0.9999,0.0740,0.0500,0.2528
441,Pelvis,2,-0.4794,0.3210,-0.6407,-0.5066,0.2150,0.0775,0.0165,-0.6937,0.6481,-0.2424,9.2342,1.1876,2.4109,0.0027,0.0010,0.0002,1.0000,0.2309,0.0296,0.0601
441,Right,2,0.0578,0.1808,0.2401,0.9520,0.0558,-0.1030,0.0178,-0.0619,0.1961,0.1572,-3.1235,2.1555,9.2216,0.0007,-0.0013,0.0002,1.0000,-0.0784,0.0537,0.2305
442,Left,2,0.1455,0.0414,-0.9385,-0.3103,0.0382,0.9071,-0.0373,-7.7203,-0.5583,0.6009,3.1376,3.0956,12.2040,0.0005,0.0113,-0.0005,0.9999,0.0819,0.0772,0.3042
442,Pelvis,2,-0.4806,0.3182,-0.6429,-0.5044,0.2966,0.0965,0.0451,-1.0045,0.8715,-0.1625,9.3913,1.4355,2.1537,0.0037,0.0012,0.0006,1.0000,0.2348,0.0358,0.0537
442,Right,2,0.0596,0.1791,0.2401,0.9522,0.0790,-0.1371,0.0351,0.0052,0.2718,0.1159,-2.9850,2.2071,9.2125,0.0010,-0.0017,0.0004,1.0000,-0.0750,0.0549,0.2302
443,Left,2,0.1518,0.0355,-0.9402,-0.3028,0.1931,0.5811,0.6988,-8.4065,0.3512,1.1655,3.8567,2.6687,13.0122,0.0024,0.0073,0.0087,0.9999,0.0982,0.0668,0.3248
443,Pelvis,2,-0.4822,0.3153,-0.6453,-0.5017,0.3404,0.0755,0.0812,-1.2372,1.0198,0.0242,9.6233,1.6304,2.0171,0.0043,0.0009,0.0010,1.0000,0.2406,0.0408,0.0504
443,Right,2,0.0613,0.1773,0.2403,0.9524,0.0679,-0.1503,0.0393,-0.0216,0.3207,0.1772,-2.9621,2.2986,9.2651,0.0008,-0.0019,0.0005,1.0000,-0.0745,0.0572,0.2315
444,Left,2,0.1539,0.0296,-0.9441,-0.2899,0.2382,0.2384,1.1418,-7.6813,2.4418,0.1621,4.6836,0.6907,11.9184,0.0030,0.0030,0.0143,0.9999,0.1177,0.0181,0.2977
444,Pelvis,2,-0.4844,0.3123,-0.6478,-0.4982,0.4016,0.0296,0.0987,-1.1338,1.2523,0.1410,9.8116,1.4675,1.8735,0.0050,0.0004,0.0012,1.0000,0.2453,0.0368,0.0469
444,Right,2,0.0631,0.1748,0.2406,0.9527,0.0653,-0.2047,0.0572,-0.1613,0.2335,0.2752,-3.0996,2.3270,9.3179,0.0008,-0.0026,0.0007,1.0000,-0.0781,0.0579,0.2328
445,Left,2,0.1532,0.0246,-0.9482,-0.2773,0.2349,0.0047,1.1051,-6.3455,4.0503,-0.1161,4.5670,-1.3811,11.3107,0.0029,0.0001,0.0138,0.9999,0.1147,-0.0338,0.2827
445,Pelvis,2,-0.4875,0.3087,-0.6502,-0.4942,0.4861,0.0027,0.0766,-0.9830,1.2619,0.1323,9.8050,1.3199,1.8924,0.0061,0.0000,0.0010,1.0000,0.2451,0.0329,0.0475
445,Right,2,0.0649,0.1716,0.2410,0.9530,0.0412,-0.2607,0.0733,-0.0700,0.3659,0.1985,-2.8745,2.4096,9.2895,0.0005,-0.0033,0.0009,1.0000,-0.0727,0.0601,0.2320
446,Left,2,0.1492,0.0208,-0.9512,-0.2692,0.2783,-0.2527,0.7282,-5.2129,4.5817,-0.4147,4.0260,-2.4039,10.7006,0.0035,-0.0032,0.0091,0.9999,0.1004,-0.0601,0.2676
446,Pelvis,2,-0.4912,0.3046,-0.6526,-0.4899,0.5484,-0.0283,0.0598,-1.0240,1.2099,-0.1559,9.5221,1.3591,1.8023,0.0069,-0.0004,0.0007,1.0000,0.2380,0.0338,0.0454
446,Right,2,0.0666,0.1679,0.2417,0.9534,0.0264,-0.2881,0.0893,0.0221,0.3492,0.0460,-2.6881,2.3416,9.1982,0.0003,-0.0036,0.0011,1.0000,-0.0681,0.0584,0.2297
447,Left,2,0.1438,0.0183,-0.9529,-0.2662,0.2646,-0.3564,0.2821,-4.3817,3.7872,-0.1950,2.9392,-2.1441,10.6211,0.0033,-0.0045,0.0035,1.0000,0.0725,-0.0542,0.2657
447,Pelvis,2,-0.4952,0.3004,-0.6551,-0.4851,0.5831,-0.0393,0.0747,-0.9612,1.2023,-0.5170,9.1827,1.2809,1.6784,0.0073,-0.0005,0.0009,1.0000,0.2295,0.0319,0.0423
447,Right,2,0.0680,0.1637,0.2427,0.9538,-0.0081,-0.3253,0.1110,-0.1260,0.3561,0.0676,-2.7320,2.4307,9.1865,-0.0001,-0.0041,0.0014,1.0000,-0.0693,0.0607,0.2294
448,Left,2,0.1349,0.0203,-0.9540,-0.2670,0.0371,-0.7043,-0.0685,-2.9988,2.5761,1.3308,0.9374,-1.9367,11.6267,0.0005,-0.0088,-0.0009,1.0000,0.0208,-0.0486,0.2908
448,Pelvis,2,-0.4988,0.2964,-0.6579,-0.4801,0.5845,-0.0225,0.1202,-1.0286,1.1927,-0.7308,8.9866,1.3297,1.5603,0.0073,-0.0003,0.0015,1.0000,0.2246,0.0333,0.0393
448,Right,2,0.0691,0.1597,0.2436,0.9541,-0.0307,-0.3065,0.1042,0.2018,0.2802,-0.3308,-2.3032,2.1437,8.9513,-0.0004,-0.0038,0.0013,1.0000,-0.0585,0.0536,0.2235
449,Left,2,0.1226,0.0236,-0.9547,-0.2701,0.0388,-0.9817,-0.2699,-1.6398,1.7106,0.1708,-0.0967,-1.7392,10.1122,0.0005,-0.0123,-0.0034,0.9999,-0.0057,-0.0436,0.2527
449,Pelvis,2,-0.5020,0.2927,-0.6610,-0.4747,0.5668,-0.0141,0.1705,-1.2856,1.0671,-0.6212,9.0656,1.6126,1.5780,0.0071,-0.0002,0.0021,1.0000,0.2265,0.0405,0.0398
449,Right,2,0.0700,0.1563,0.2442,0.9545,-0.0286,-0.2547,0.0810,0.0291,0.3281,-0.3202,-2.3535,2.2674,8.9183,-0.0004,-0.0032,0.0010,1.0000,-0.0596,0.0567,0.2227
450,Left,2,0.1116,0.0266,-0.9547,-0.2745,0.0405,-0.8699,-0.3842,-0.2135,0.7325,-1.0330,-1.2785,-1.4939,8.5908,0.0005,-0.0109,-0.0048,0.9999,-0.0345,-0.0373,0.2144
450,Pelvis,2,-0.5052,0.2893,-0.6642,-0.4690,0.5652,-0.0161,0.2005,-1.5174,0.9449,-0.4307,9.2247,1.8692,1.6210,0.0071,-0.0002,0.0025,1.0000,0.2305,0.0470,0.0409
450,Right,2,0.0702,0.1536,0.2446,0.9548,-0.0657,-0.1822,0.0499,0.1894,0.4897,-0.4787,-2.0424,2.3013,8.8279,-0.0008,-0.0023,0.0006,1.0000,-0.0516,0.0577,0.2205
451,Left,2,0.1050,0.0271,-0.9543,-0.2786,0.1346,-0.4735,-0.3384,1.2995,-0.8813,-1.5768,-3.1174,-0.8492,7.7368,0.0017,-0.0059,-0.0042,1.0000,-0.0792,-0.0212,0.1929
451,Pelvis,2,-0.5090,0.2862,-0.6669,-0.4628,0.5861,-0.0937,0.2071,-1.7931,1.0932,-0.5365,9.2008,2.0271,1.3016,0.0073,-0.0012,0.0026,1.0000,0.2298,0.0510,0.0332
451,Right,2,0.0694,0.1521,0.2448,0.9551,-0.1155,-0.0799,0.0115,0.2052,0.4855,-0.4062,-2.0144,2.2916,8.9135,-0.0014,-0.0010,0.0001,1.0000,-0.0506,0.0576,0.2227
452,Left,2,0.1012,0.0277,-0.9546,-0.2788,0.0327,-0.2698,-0.0198,3.8905,-3.3365,0.9852,-6.9536,-0.4210,9.7126,0.0004,-0.0034,-0.0002,1.0000,-0.1747,-0.0106,0.2422
452,Pelvis,2,-0.5136,0.2836,-0.6688,-0.4566,0.5648,-0.1959,0.1804,-1.8727,1.6188,-0.3772,9.5407,1.8677,0.8012,0.0071,-0.0024,0.0023,1.0000,0.2384,0.0471,0.0209
452,Right,2,0.0677,0.1514,0.2446,0.9553,-0.1692,-0.0018,-0.0212,0.1170,0.4173,-0.1542,-2.1721,2.2959,9.1370,-0.0021,-0.0000,-0.0003,1.0000,-0.0543,0.0579,0.2283
453,Left,2,0.0905,0.0307,-0.9567,-0.2749,-0.0212,-0.8874,0.3001,7.4112,-3.5475,2.2922,-10.0543,-2.2020,10.3975,-0.0003,-0.0111,0.0038,0.9999,-0.2540,-0.0559,0.2571
453,Pelvis,2,-0.5188,0.2817,-0.6699,-0.4503,0.5326,-0.2799,0.1691,-1.9303,1.8254,-0.2686,9.7254,1.8078,0.5446,0.0067,-0.0035,0.0021,1.0000,0.2430,0.0456,0.0148
453,Right,2,0.0655,0.1511,0.2444,0.9556,-0.1965,0.0424,-0.0383,0.0635,0.3309,0.0036,-2.3006,2.2374,9.2831,-0.0025,0.0005,-0.0005,1.0000,-0.0574,0.0565,0.2320
454,Left,2,0.0761,0.0311,-0.9599,-0.2679,0.2353,-1.1280,0.5734,6.8182,-2.5552,-4.1384,-7.8708,-1.9312,4.4205,0.0029,-0.0141,0.0072,0.9999,-0.1979,-0.0500,0.1076
454,Pelvis,2,-0.5241,0.2809,-0.6704,-0.4439,0.4724,-0.3505,0.1980,-2.2843,1.7207,-0.5211,9.4863,2.1072,0.2918,0.0059,-0.0044,0.0025,1.0000,0.2370,0.0532,0.0086
454,Right,2,0.0631,0.1509,0.2441,0.9559,-0.2081,0.0520,-0.0444,0.0231,0.2565,-0.0075,-2.3758,2.1436,9.2720,-0.0026,0.0006,-0.0006,1.0000,-0.0592,0.0542,0.2317
455,Left,2,0.0730,0.0337,-0.9633,-0.2563,-0.2024,-0.3243,0.9423,6.5393,-2.4339,-5.3567,-7.3689,-1.6225,3.4074,-0.0025,-0.0041,0.0118,0.9999,-0.1841,-0.0425,0.0845
455,Pelvis,2,-0.5292,0.2811,-0.6705,-0.4376,0.3994,-0.3909,0.2292,-2.4748,1.6127,-0.8694,9.1469,2.2445,0.0758,0.0050,-0.0049,0.0029,1.0000,0.2285,0.0568,0.0033
455,Right,2,0.0604,0.1509,0.2438,0.9561,-0.2198,0.0734,-0.0490,0.1269,0.2805,-0.3183,-2.2092,2.0104,9.0175,-0.0027,0.0009,-0.0006,1.0000,-0.0550,0.0509,0.2253
456,Left,2,0.0754,0.0404,-0.9662,-0.2432,-0.6360,0.0178,1.0409,7.4600,-1.4640,-2.4778,-8.0736,-3.0731,6.0803,-0.0079,0.0002,0.0130,0.9999,-0.2008,-0.0782,0.1527
456,Pelvis,2,-0.5341,0.2818,-0.6704,-0.4311,0.3610,-0.4091,0.2580,-2.5431,1.4864,-1.2330,8.7811,2.2751,-0.0723,0.0045,-0.0051,0.0032,1.0000,0.2193,0.0576,-0.0004
456,Right,2,0.0573,0.1527,0.2431,0.9562,-0.2168,0.2186,-0.0851,0.4515,0.4777,-0.8092,-1.7458,1.8974,8.6515,-0.0027,0.0027,-0.0011,1.0000,-0.0430,0.0481,0.2163
457,Left,2,0.0905,0.0546,-0.9650,-0.2400,-1.4198,0.9027,0.1891,0.9285,2.6730,-1.4659,-0.6836,-3.8752,7.8869,-0.0177,0.0113,0.0024,0.9998,-0.0146,-0.0934,0.1990
457,Pelvis,2,-0.5392,0.2836,-0.6700,-0.4242,0.3213,-0.4761,0.3023,-2.4960,1.0029,-1.1048,8.7860,2.4089,0.2635,0.0040,-0.0060,0.0038,1.0000,0.2194,0.0610,0.0081
457,Right,2,0.0549,0.1558,0.2422,0.9561,-0.1395,0.3079,-0.0970,0.1568,-0.0603,0.0392,-2.5341,1.6741,9.3736,-0.0017,0.0038,-0.0012,1.0000,-0.0624,0.0423,0.2345
458,Left,2,0.1052,0.0584,-0.9639,-0.2377,-0.6037,1.0686,0.1935,1.5136,4.4257,0.4816,-0.8872,-6.1767,9.4297,-0.0075,0.0134,0.0024,0.9999,-0.0186,-0.1527,0.2372
458,Pelvis,2,-0.5461,0.2858,-0.6683,-0.4166,0.3543,-0.6576,0.2830,-1.6096,0.3421,-0.2162,9.4464,1.9594,1.3149,0.0044,-0.0082,0.0035,1.0000,0.2357,0.0497,0.0350
458,Right,2,0.0523,0.1595,0.2410,0.9559,-0.1334,0.3556,-0.1192,-0.0215,0.5846,0.0773,-2.4616,2.2916,9.3189,-0.0017,0.0044,-0.0015,1.0000,-0.0604,0.0578,0.2331
459,Left,2,0.1182,0.0539,-0.9628,-0.2369,0.0921,1.1069,0.1485,3.6458,-0.3924,5.6426,-6.2394,-3.7676,14.1140,0.0012,0.0138,0.0019,0.9999,-0.1509,-0.0949,0.3549
459,Pelvis,2,-0.5541,0.2865,-0.6658,-0.4094,0.4419,-0.6920,0.1448,-0.0118,0.4139,1.0925,10.6799,0.5972,2.1635,0.0055,-0.0086,0.0018,0.9999,0.2665,0.0151,0.0565
459,Right,2,0.0488,0.1633,0.2393,0.9559,-0.1944,0.3735,-0.1755,0.0652,0.6711,0.1053,-2.4446,2.2913,9.3592,-0.0024,0.0047,-0.0022,1.0000,-0.0599,0.0580,0.2341
460,Left,2,0.1230,0.0470,-0.9628,-0.2361,0.4275,0.5097,0.1480,-0.6366,0.8443,-0.4678,-1.0034,-1.9048,9.1549,0.0053,0.0064,0.0018,1.0000,-0.0235,-0.0489,0.2288
460,Pelvis,2,-0.5609,0.2848,-0.6646,-0.4033,0.5103,-0.4698,0.0461,0.2143,0.2508,1.5599,11.1214,0.5195,2.3433,0.0064,-0.0059,0.0006,1.0000,0.2777,0.0128,0.0603
460,Right,2,0.0438,0.1672,0.2365,0.9561,-0.2994,0.4006,-0.2792,0.2229,0.3936,0.1658,-2.5601,1.9199,9.4624,-0.0037,0.0050,-0.0035,1.0000,-0.0626,0.0491,0.2367
461,Left,2,0.1264,0.0402,-0.9628,-0.2353,0.4533,0.4030,0.1475,0.8079,-0.2082,0.9529,-3.1517,-1.7113,10.1850,0.0057,0.0050,0.0018,1.0000,-0.0774,-0.0444,0.2548
461,Pelvis,2,-0.5669,0.2866,-0.6621,-0.3975,0.2643,-0.5846,0.1678,-1.0428,-1.3455,0.7810,10.1148,2.3531,2.6981,0.0033,-0.0073,0.0021,1.0000,0.2522,0.0591,0.0695
461,Right,2,0.0379,0.1716,0.2331,0.9564,-0.3474,0.4576,-0.3423,0.1714,1.0169,0.3189,-2.4720,2.4268,9.5767,-0.0043,0.0057,-0.0043,1.0000,-0.0602,0.0620,0.2395
462,Left,2,0.1254,0.0356,-0.9629,-0.2361,0.3848,0.0223,-0.0161,0.6176,-0.3377,1.3130,-3.1830,-1.4479,10.5853,0.0048,0.0003,-0.0002,1.0000,-0.0795,-0.0375,0.2645
462,Pelvis,2,-0.5704,0.2924,-0.6575,-0.3960,-0.2690,-0.5837,0.1096,-1.2409,-2.2315,0.7558,9.9744,2.9455,3.1700,-0.0034,-0.0073,0.0014,1.0000,0.2487,0.0742,0.0808
462,Right,2,0.0276,0.1792,0.2267,0.9569,-0.5824,0.7765,-0.6465,0.1208,3.0136,0.5232,-1.8506,4.1214,9.7736,-0.0073,0.0097,-0.0081,0.9999,-0.0431,0.1052,0.2440
463,Left,2,0.1242,0.0343,-0.9629,-0.2373,0.1309,-0.0499,-0.0813,-0.5473,0.1352,0.4490,-1.7634,-1.1725,10.0566,0.0016,-0.0006,-0.0010,1.0000,-0.0443,-0.0297,0.2513
463,Pelvis,2,-0.5725,0.2985,-0.6509,-0.3994,-0.6086,-0.4958,-0.1586,0.0172,-1.6359,1.2224,10.5462,1.5696,3.2811,-0.0076,-0.0062,-0.0020,0.9999,0.2632,0.0393,0.0834
463,Right,2,0.0111,0.1984,0.2146,0.9563,-0.7711,1.7731,-1.1764,2.7631,2.2589,1.2237,-0.6235,2.2241,11.3682,-0.0096,0.0222,-0.0147,0.9996,-0.0084,0.0585,0.2839
464,Left,2,0.1248,0.0344,-0.9626,-0.2381,-0.0118,0.0589,-0.0623,-0.3097,0.5275,0.0927,-1.7002,-1.5698,9.6507,-0.0001,0.0007,-0.0008,1.0000,-0.0424,-0.0392,0.2413
464,Pelvis,2,-0.5732,0.3030,-0.6445,-0.4052,-0.6752,-0.2998,-0.3178,1.5494,-0.1375,2.2360,11.8027,-0.4127,2.8491,-0.0084,-0.0037,-0.0040,0.9999,0.2948,-0.0109,0.0724
464,Right,2,-0.0157,0.2261,0.1945,0.9544,-1.2908,2.6191,-1.9343,-1.6841,5.3044,3.6117,-4.7813,6.6325,12.0196,-0.0161,0.0327,-0.0242,0.9990,-0.1055,0.1733,0.3013
465,Left,2,0.1260,0.0339,-0.9623,-0.2385,0.0208,0.1211,-0.0223,-0.2632,0.6250,-0.0824,-1.6720,-1.6558,9.4658,0.0003,0.0015,-0.0003,1.0000,-0.0415,-0.0414,0.2367
465,Pelvis,2,-0.5727,0.3068,-0.6403,-0.4097,-0.5567,-0.1563,-0.1829,2.5058,0.6661,2.2967,12.0120,-1.5970,2.5538,-0.0070,-0.0020,-0.0023,1.0000,0.3001,-0.0402,0.0647
465,Right,2,-0.0546,0.2555,0.1633,0.9514,-1.9894,2.9686,-2.9779,-1.2253,3.3505,3.2379,-6.0777,3.8234,11.4756,-0.0249,0.0371,-0.0372,0.9983,-0.1374,0.1081,0.2896
466,Left,2,0.1277,0.0336,-0.9621,-0.2385,-0.0103,0.1536,0.0024,-0.3257,0.2841,0.0258,-1.8316,-1.3393,9.5831,-0.0001,0.0019,0.0000,1.0000,-0.0453,-0.0335,0.2397
466,Pelvis,2,-0.5720,0.3115,-0.6381,-0.4106,-0.3778,-0.1608,0.1184,2.4026,0.7722,1.4652,11.2247,-1.6362,2.2111,-0.0047,-0.0020,0.0015,1.0000,0.2806,-0.0402,0.0560
466,Right,2,-0.1002,0.2814,0.1313,0.9453,-2.5533,2.8514,-3.1619,-1.8651,10.1794,3.7324,-6.3063,9.3072,12.8275,-0.0319,0.0356,-0.0395,0.9981,-0.1367,0.2485,0.3180
467,Left,2,0.1299,0.0334,-0.9619,-0.2383,-0.0283,0.1819,0.0191,-0.2917,0.4273,-0.0590,-1.8114,-1.4748,9.4840,-0.0004,0.0023,0.0002,1.0000,-0.0447,-0.0368,0.2372
467,Pelvis,2,-0.5718,0.3167,-0.6371,-0.4085,-0.2155,-0.2352,0.3159,1.8577,0.8385,0.1647,9.9613,-1.3513,1.6276,-0.0027,-0.0029,0.0039,1.0000,0.2490,-0.0327,0.0415
467,Right,2,-0.1186,0.3096,0.1262,0.9350,-1.1160,2.6178,-0.4469,-0.9281,15.0452,-3.9636,-1.4805,13.7181,8.4324,-0.0139,0.0327,-0.0056,0.9994,-0.0283,0.3460,0.2070
468,Left,2,0.1319,0.0335,-0.9617,-0.2380,-0.0455,0.1687,0.0307,-0.1531,0.3071,0.1024,-2.0629,-1.4592,9.5938,-0.0006,0.0021,0.0004,1.0000,-0.0511,-0.0364,0.2400
468,Pelvis,2,-0.5715,0.3218,-0.6367,-0.4056,-0.1461,-0.2135,0.3800,1.2029,0.4902,-0.3627,9.3947,-0.7350,1.4803,-0.0018,-0.0027,0.0048,1.0000,0.2349,-0.0172,0.0377
468,Right,2,-0.1148,0.3400,0.1401,0.9228,0.0641,2.4309,1.5573,1.4415,13.1957,-5.2087,0.4283,11.3091,8.3261,0.0008,0.0304,0.0195,0.9993,0.0115,0.2828,0.2080
469,Left,2,0.1334,0.0337,-0.9616,-0.2376,-0.0513,0.1278,0.0305,-0.1533,0.3865,-0.0194,-2.0301,-1.5242,9.4677,-0.0006,0.0016,0.0004,1.0000,-0.0504,-0.0380,0.2368
469,Pelvis,2,-0.5709,0.3275,-0.6362,-0.4027,-0.1840,-0.2192,0.4081,0.9866,0.2271,-0.5856,9.1421,-0.5308,1.5185,-0.0023,-0.0027,0.0051,1.0000,0.2285,-0.0120,0.0386
469,Right,2,-0.1133,0.3643,0.1607,0.9103,-0.3725,1.9577,1.9436,4.8912,6.8875,-3.1905,0.3012,3.9815,9.9639,-0.0047,0.0245,0.0243,0.9994,0.0112,0.1009,0.2484
470,Left,2,0.1346,0.0336,-0.9615,-0.2372,-0.0204,0.1021,0.0368,-0.1512,0.5091,-0.1711,-1.9634,-1.6212,9.3145,-0.0003,0.0013,0.0005,1.0000,-0.0488,-0.0405,0.2329
470,Pelvis,2,-0.5700,0.3333,-0.6353,-0.4004,-0.2293,-0.2168,0.3844,0.8820,0.1072,-1.1149,8.6079,-0.5011,1.4469,-0.0029,-0.0027,0.0048,1.0000,0.2152,-0.0114,0.0368
470,Right,2,-0.1011,0.3766,0.1755,0.9040,0.4645,0.8215,1.6459,7.4817,4.4656,0.0580,-0.9735,0.5583,13.1186,0.0058,0.0103,0.0206,0.9997,-0.0212,0.0116,0.3283
471,Left,2,0.1360,0.0332,-0.9615,-0.2367,0.0047,0.1263,0.0571,-0.3641,0.5487,-0.3345,-1.7491,-1.5402,9.2108,0.0001,0.0016,0.0007,1.0000,-0.0433,-0.0385,0.2303
471,Pelvis,2,-0.5693,0.3391,-0.6338,-0.3990,-0.2779,-0.2227,0.3149,0.7100,0.1039,-1.5807,8.1550,-0.4440,1.2565,-0.0035,-0.0028,0.0039,1.0000,0.2038,-0.0102,0.0320
471,Right,2,-0.0786,0.3693,0.1844,0.9074,1.1866,-0.9677,1.2397,7.5309,4.2035,0.4823,-1.2471,0.6256,13.3585,0.0148,-0.0121,0.0155,0.9997,-0.0354,0.0102,0.3337
472,Left,2,0.1379,0.0328,-0.9614,-0.2359,-0.0129,0.1726,0.0682,-0.2979,0.3840,-0.1979,-1.9491,-1.4398,9.3171,-0.0002,0.0022,0.0009,1.0000,-0.0482,-0.0360,0.2330
472,Pelvis,2,-0.5689,0.3445,-0.6318,-0.3981,-0.2811,-0.2422,0.2350,0.5637,0.3433,-1.4787,8.2937,-0.4830,0.9342,-0.0035,-0.0030,0.0029,1.0000,0.2073,-0.0114,0.0240
472,Right,2,-0.0515,0.3497,0.1889,0.9162,1.5000,-2.0621,0.9132,6.1604,2.5874,-1.7465,-0.5820,0.1385,10.4589,0.0187,-0.0258,0.0114,0.9994,-0.0213,-0.0017,0.2610
473,Left,2,0.1399,0.0324,-0.9613,-0.2352,-0.0159,0.1749,0.0708,-0.2178,0.3837,-0.1225,-2.0760,-1.4852,9.3583,-0.0002,0.0022,0.0009,1.0000,-0.0514,-0.0371,0.2341
473,Pelvis,2,-0.5687,0.3491,-0.6297,-0.3977,-0.2545,-0.2122,0.1694,0.4917,0.4661,-0.9181,8.8697,-0.5121,0.7994,-0.0032,-0.0027,0.0021,1.0000,0.2217,-0.0123,0.0206
473,Right,2,-0.0211,0.3257,0.1882,0.9263,1.8271,-2.4349,0.5981,5.1744,1.1389,-2.6398,-0.5633,-0.4250,8.8917,0.0228,-0.0304,0.0075,0.9992,-0.0207,-0.0158,0.2214
474,Left,2,0.1416,0.0317,-0.9613,-0.2344,0.0116,0.1514,0.0760,-0.2234,0.4428,-0.0985,-2.0875,-1.5355,9.3753,0.0001,0.0019,0.0009,1.0000,-0.0517,-0.0385,0.2345
474,Pelvis,2,-0.5681,0.3534,-0.6279,-0.3977,-0.2576,-0.1614,0.1615,0.2721,0.5038,-0.1687,9.6287,-0.3647,0.6989,-0.0032,-0.0020,0.0020,1.0000,0.2407,-0.0086,0.0180
474,Right,2,0.0108,0.3011,0.1814,0.9361,2.0819,-2.4796,0.1899,4.2377,0.0690,-1.3505,-1.8117,-0.4992,9.2784,0.0260,-0.0310,0.0024,0.9992,-0.0524,-0.0186,0.2300
475,Left,2,0.1430,0.0308,-0.9613,-0.2335,0.0374,0.1393,0.0836,-0.1729,0.4348,-0.0267,-2.1863,-1.5505,9.4234,0.0005,0.0017,0.0010,1.0000,-0.0542,-0.0389,0.2357
475,Pelvis,2,-0.5670,0.3577,-0.6262,-0.3980,-0.2850,-0.1292,0.1612,-0.0325,0.5522,0.0973,9.9113,-0.1522,0.5078,-0.0036,-0.0016,0.0020,1.0000,0.2478,-0.0033,0.0131
475,Right,2,0.0426,0.2751,0.1701,0.9453,2.1772,-2.5655,-0.1271,3.1727,-0.4098,1.4272,-3.6733,0.3283,11.0924,0.0272,-0.0321,-0.0016,0.9991,-0.1007,0.0009,0.2743
476,Left,2,0.1446,0.0298,-0.9613,-0.2327,0.0436,0.1494,0.0799,-0.2049,0.3345,-0.0113,-2.2427,-1.4358,9.4408,0.0005,0.0019,0.0010,1.0000,-0.0556,-0.0361,0.2361
476,Pelvis,2,-0.5659,0.3616,-0.6245,-0.3987,-0.2807,-0.0981,0.1210,-0.1048,0.7156,0.0893,9.9222,-0.1939,0.2929,-0.0035,-0.0012,0.0015,1.0000,0.2481,-0.0044,0.0076
476,Right,2,0.0756,0.2455,0.1576,0.9535,2.2557,-2.8293,-0.1698,1.8626,-1.4283,2.8525,-4.9877,0.6480,11.8625,0.0282,-0.0354,-0.0021,0.9990,-0.1351,0.0082,0.2922
477,Left,2,0.1460,0.0290,-0.9612,-0.2321,0.0296,0.1401,0.0644,-0.1062,0.2865,0.0638,-2.4015,-1.4337,9.4772,0.0004,0.0018,0.0008,1.0000,-0.0596,-0.0360,0.2370
477,Pelvis,2,-0.5649,0.3649,-0.6227,-0.4001,-0.2741,-0.0653,0.0553,-0.1324,0.6967,0.0303,9.8633,-0.1840,0.2641,-0.0034,-0.0008,0.0007,1.0000,0.2466,-0.0044,0.0068
477,Right,2,0.1072,0.2167,0.1470,0.9591,2.1332,-2.6889,-0.0176,0.2864,-2.2623,2.1760,-5.4727,0.7564,10.8852,0.0267,-0.0336,-0.0002,0.9991,-0.1459,0.0118,0.2677
478,Left,2,0.1472,0.0281,-0.9612,-0.2315,0.0375,0.1233,0.0599,-0.1248,0.3807,-0.0150,-2.3516,-1.4889,9.4025,0.0005,0.0015,0.0007,1.0000,-0.0584,-0.0374,0.2351
478,Pelvis,2,-0.5638,0.3674,-0.6208,-0.4022,-0.2775,-0.0190,-0.0151,0.0077,0.8499,-0.0123,9.8285,-0.3804,0.1593,-0.0035,-0.0002,-0.0002,1.0000,0.2457,-0.0095,0.0041
478,Right,2,0.1344,0.1938,0.1407,0.9616,1.8299,-2.0886,0.2237,-0.9708,-3.6394,1.5200,-6.1023,0.1406,10.2671,0.0229,-0.0261,0.0028,0.9994,-0.1592,-0.0027,0.2526
479,Left,2,0.1484,0.0273,-0.9612,-0.2310,0.0392,0.1169,0.0581,-0.2162,0.3642,-0.0838,-2.2896,-1.4143,9.3589,0.0005,0.0015,0.0007,1.0000,-0.0569,-0.0355,0.2340
479,Pelvis,2,-0.5629,0.3689,-0.6192,-0.4045,-0.2148,0.0182,-0.0707,0.0805,1.0315,-0.2675,9.5876,-0.5093,-0.0106,-0.0027,0.0002,-0.0009,1.0000,0.2397,-0.0129,-0.0003
479,Right,2,0.1584,0.1754,0.1410,0.9614,1.5701,-1.5932,0.6587,-3.1650,-5.0893,3.5164,-8.6519,0.4655,11.7715,0.0196,-0.0199,0.0082,0.9996,-0.2222,0.0041,0.2900
480,Left,2,0.1499,0.0266,-0.9611,-0.2304,0.0207,0.1450,0.0584,-0.2446,0.4142,-0.0931,-2.2695,-1.4359,9.3536,0.0003,0.0018,0.0007,1.0000,-0.0563,-0.0360,0.2339
480,Pelvis,2,-0.5628,0.3697,-0.6176,-0.4065,-0.1316,-0.0050,-0.1049,0.2901,1.4382,-0.4846,9.3995,-0.8412,-0.3271,-0.0016,-0.0001,-0.0013,1.0000,0.2350,-0.0214,-0.0081
480,Right,2,0.1747,0.1568,0.1524,0.9600,0.8415,-1.3741,1.4196,-6.4374,-5.0321,3.6052,-11.1234,1.8707,10.9376,0.0105,-0.0172,0.0177,0.9996,-0.2835,0.0389,0.2690
481,Left,2,0.1517,0.0255,-0.9610,-0.2298,0.0422,0.1742,0.0688,-0.2237,0.4953,-0.1526,-2.2701,-1.5002,9.2849,0.0005,0.0022,0.0009,1.0000,-0.0562,-0.0377,0.2322
481,Pelvis,2,-0.5634,0.3688,-0.6171,-0.4071,0.0642,0.0244,-0.1046,0.3620,1.6108,-0.2862,9.6116,-0.9490,-0.4443,0.0008,0.0003,-0.0013,1.0000,0.2403,-0.0240,-0.0112
481,Right,2,0.1727,0.1351,0.1734,0.9601,-0.7342,-1.2765,1.9431,-10.3900,-3.3737,0.9475,-13.0280,3.8308,7.1250,-0.0092,-0.0160,0.0243,0.9995,-0.3307,0.0894,0.1720
482,Left,2,0.1541,0.0243,-0.9609,-0.2290,0.0442,0.2222,0.0834,-0.3656,0.4069,-0.2108,-2.2182,-1.3394,9.2619,0.0006,0.0028,0.0010,1.0000,-0.0548,-0.0337,0.2317
482,Pelvis,2,-0.5646,0.3667,-0.6177,-0.4065,0.2407,0.0443,-0.0766,0.6086,1.8856,-0.1106,9.8045,-1.2622,-0.5775,0.0030,0.0006,-0.0010,1.0000,0.2451,-0.0317,-0.0147
482,Right,2,0.1679,0.1159,0.2016,0.9580,-0.9467,-0.9244,2.4630,-9.8748,-4.9895,-4.6605,-11.7894,0.7023,3.0841,-0.0118,-0.0116,0.0308,0.9994,-0.2960,0.0093,0.0735
483,Left,2,0.1576,0.0231,-0.9606,-0.2280,0.0192,0.3032,0.0951,-0.3911,0.4376,-0.1741,-2.2535,-1.3488,9.2925,0.0002,0.0038,0.0012,1.0000,-0.0554,-0.0338,0.2325
483,Pelvis,2,-0.5665,0.3637,-0.6194,-0.4039,0.4333,0.0358,-0.0055,1.0656,1.9333,0.1910,10.0961,-1.6908,-0.3974,0.0054,0.0004,-0.0001,1.0000,0.2524,-0.0422,-0.0103
483,Right,2,0.1722,0.1059,0.2336,0.9511,-0.0772,-0.2853,2.7798,-8.3537,-6.4764,-5.8711,-10.8357,-0.8668,3.0247,-0.0010,-0.0036,0.0347,0.9994,-0.2702,-0.0310,0.0747
484,Left,2,0.1622,0.0219,-0.9601,-0.2267,-0.0056,0.3959,0.1165,-0.4550,0.4533,-0.1329,-2.2856,-1.3336,9.3332,-0.0001,0.0049,0.0015,1.0000,-0.0559,-0.0334,0.2336
484,Pelvis,2,-0.5684,0.3603,-0.6220,-0.4003,0.5253,0.0577,0.0570,0.4918,1.7684,-0.0494,9.8600,-1.1119,-0.4854,0.0066,0.0007,0.0007,1.0000,0.2465,-0.0275,-0.0125
484,Right,2,0.1684,0.1023,0.2640,0.9442,-0.5562,0.3203,2.5023,-6.9494,-7.9853,-5.5709,-10.4643,-1.9172,4.1119,-0.0070,0.0040,0.0313,0.9995,-0.2595,-0.0553,0.1042
485,Left,2,0.1679,0.0209,-0.9595,-0.2252,-0.0426,0.4816,0.1384,-0.2128,0.4171,0.0633,-2.6687,-1.4265,9.4126,-0.0005,0.0060,0.0017,1.0000,-0.0652,-0.0357,0.2357
485,Pelvis,2,-0.5701,0.3568,-0.6249,-0.3966,0.5477,0.0848,0.0738,-0.1978,1.9161,-0.1915,9.7539,-0.5725,-0.9007,0.0068,0.0011,0.0009,1.0000,0.2438,-0.0139,-0.0229
485,Right,2,0.1593,0.1013,0.2910,0.9379,-0.8738,0.5681,2.1444,-5.8896,-9.3365,-4.7992,-10.5522,-2.6905,5.3320,-0.0109,0.0071,0.0268,0.9996,-0.2609,-0.0728,0.1359
486,Left,2,0.1751,0.0192,-0.9587,-0.2235,-0.0210,0.6059,0.1512,-0.4742,0.5969,-0.0682,-2.4573,-1.4610,9.3469,-0.0003,0.0076,0.0019,1.0000,-0.0596,-0.0366,0.2341
486,Pelvis,2,-0.5713,0.3529,-0.6281,-0.3931,0.5513,0.1428,0.0601,-0.3157,2.1569,0.0170,9.9882,-0.5968,-1.1205,0.0069,0.0018,0.0008,1.0000,0.2497,-0.0145,-0.0286
486,Right,2,0.1527,0.1029,0.3130,0.9317,-0.5839,0.6355,1.7487,-3.2910,-5.8556,-3.1231,-6.7611,-0.3852,6.6342,-0.0073,0.0079,0.0219,0.9997,-0.1675,-0.0121,0.1673
487,Left,2,0.1841,0.0168,-0.9574,-0.2218,0.0030,0.7633,0.1608,-0.5218,0.4551,0.0371,-2.6755,-1.3189,9.4129,0.0000,0.0095,0.0020,1.0000,-0.0646,-0.0331,0.2359
487,Pelvis,2,-0.5725,0.3485,-0.6316,-0.3898,0.5821,0.1809,0.0445,0.0503,1.7047,0.4582,10.3741,-0.7461,-0.4714,0.0073,0.0023,0.0006,1.0000,0.2593,-0.0184,-0.0125
487,Right,2,0.1249,0.1052,0.3347,0.9281,-2.1669,1.1869,1.4654,1.3541,1.9712,1.9409,1.0676,4.5359,11.0542,-0.0271,0.0148,0.0183,0.9994,0.0286,0.1213,0.2727
488,Left,2,0.1960,0.0139,-0.9555,-0.2200,-0.0108,1.0033,0.1711,-0.7026,0.5178,0.1036,-2.7309,-1.2984,9.4845,-0.0001,0.0125,0.0021,0.9999,-0.0652,-0.0326,0.2379
488,Pelvis,2,-0.5755,0.3439,-0.6346,-0.3845,0.7312,0.0115,0.0688,-0.1550,0.7600,0.4579,10.2945,-0.1505,0.2962,0.0091,0.0001,0.0009,1.0000,0.2574,-0.0036,0.0073
488,Right,2,0.0972,0.1122,0.3489,0.9253,-1.9840,1.4497,0.8544,7.7764,-0.2302,-5.0973,5.0334,-3.5855,6.6778,-0.0248,0.0181,0.0107,0.9995,0.1298,-0.0841,0.1667
489,Left,2,0.2124,0.0099,-0.9526,-0.2177,-0.0160,1.3847,0.2044,-1.0275,0.8984,0.0072,-2.5502,-1.4886,9.4649,-0.0002,0.0173,0.0026,0.9998,-0.0596,-0.0373,0.2377
489,Pelvis,2,-0.5800,0.3387,-0.6371,-0.3781,0.8389,-0.0969,0.0403,-0.4202,-0.0350,0.4390,10.2153,0.4519,0.8477,0.0105,-0.0012,0.0005,0.9999,0.2554,0.0112,0.0216
489,Right,2,0.0778,0.1378,0.3511,0.9229,-0.7519,2.5002,-0.1207,7.5732,-11.9636,0.5949,-4.2860,-10.9871,13.0303,-0.0094,0.0312,-0.0015,0.9995,-0.0973,-0.2714,0.3315
490,Left,2,0.2367,0.0031,-0.9477,-0.2142,0.0306,2.0751,0.3263,-1.7012,1.4647,-0.1028,-2.1388,-1.6969,9.5859,0.0004,0.0259,0.0041,0.9997,-0.0471,-0.0427,0.2409
490,Pelvis,2,-0.5824,0.3343,-0.6397,-0.3739,0.6406,0.0521,0.0179,0.1362,-1.7484,1.1954,10.7946,0.8181,2.6573,0.0080,0.0007,0.0002,1.0000,0.2699,0.0200,0.0664
490,Right,2,0.0664,0.1560,0.3488,0.9217,-0.3032,1.6869,-0.3645,-5.5990,-1.6348,7.5625,-8.9091,6.3756,14.6952,-0.0038,0.0211,-0.0046,0.9998,-0.2142,0.1618,0.3713
491,Left,2,0.2751,-0.0089,-0.9386,-0.2082,0.1407,3.3082,0.5425,-2.8360,2.6536,-0.3384,-1.3211,-2.2561,9.9032,0.0018,0.0413,0.0068,0.9991,-0.0224,-0.0570,0.2486
491,Pelvis,2,-0.5830,0.3346,-0.6410,-0.3705,0.2711,-0.0372,0.2122,-0.5846,-3.5116,2.8454,12.3195,2.3251,3.9657,0.0034,-0.0005,0.0027,1.0000,0.3078,0.0586,0.0995
491,Right,2,0.0573,0.1641,0.3478,0.9213,-0.4410,0.8639,-0.2111,1.5076,-4.3725,3.2597,-5.1223,-1.2673,12.8236,-0.0055,0.0108,-0.0026,0.9999,-0.1247,-0.0296,0.3221
492,Left,2,0.3300,-0.0288,-0.9227,-0.1972,0.3559,4.8318,0.9657,-2.5735,2.9737,-0.1348,-2.5497,-2.5759,9.8046,0.0044,0.0604,0.0121,0.9981,-0.0480,-0.0661,0.2480
492,Pelvis,2,-0.5826,0.3388,-0.6403,-0.3687,-0.1018,-0.1567,0.2785,-0.0167,-1.8045,1.7056,11.3224,0.9077,2.6284,-0.0013,-0.0020,0.0035,1.0000,0.2828,0.0238,0.0662
492,Right,2,0.0532,0.1671,0.3474,0.9212,-0.2206,0.3469,-0.0814,-1.6000,0.1891,1.6398,-4.0561,3.6230,10.2068,-0.0028,0.0043,-0.0010,1.0000,-0.1002,0.0914,0.2554
493,Left,2,0.3955,-0.0556,-0.8988,-0.1805,0.5632,5.9579,1.4213,-3.7908,2.2712,2.9860,-5.4429,-1.4533,12.3271,0.0070,0.0744,0.0177,0.9970,-0.1120,-0.0407,0.3168
493,Pelvis,2,-0.5826,0.3390,-0.6405,-0.3680,0.0901,0.0120,0.0474,1.8779,-0.7684,-0.0882,9.5315,-1.2927,2.4824,0.0011,0.0001,0.0006,1.0000,0.2383,-0.0322,0.0620
493,Right,2,0.0503,0.1662,0.3473,0.9215,-0.2502,0.0251,-0.0500,-0.4606,-0.7199,0.8186,-3.6803,1.9901,9.8107,-0.0031,0.0003,-0.0006,1.0000,-0.0919,0.0506,0.2451
494,Left,2,0.4588,-0.0787,-0.8707,-0.1588,0.1894,5.8983,1.6213,-4.5375,4.2476,7.1882,-9.6114,-2.7901,15.1042,0.0024,0.0737,0.0202,0.9971,-0.2101,-0.0751,0.3937
