PacketId,Role,StatusWord,Qx,Qy,Qz,Qw,Gx,Gy,Gz,FreeAx,FreeAy,FreeAz,Ax,Ay,Az,DQx,DQy,DQz,DQw,DVx,DVy,DVz
25170,Right,2,0.1538,-0.0407,-0.8628,0.4799,0.0144,0.0070,0.0053,-0.0340,-0.0737,-0.0483,-2.1306,2.1374,9.2867,0.0002,0.0001,0.0001,1.0000,-0.0532,0.0534,0.2322
25170,Pelvis,2,-0.6620,-0.0577,-0.7453,0.0549,-0.0512,-0.0427,-0.0012,-0.0545,0.0043,0.0805,9.8303,0.1190,1.1092,-0.0006,-0.0005,-0.0000,1.0000,0.2457,0.0030,0.0279
25170,Left,2,0.1512,0.0603,-0.9812,-0.1040,0.0124,0.0134,0.0077,-0.1105,0.0221,-0.0771,-2.6574,-1.4580,9.2524,0.0002,0.0002,0.0001,1.0000,-0.0664,-0.0365,0.2313
25171,Right,2,0.1540,-0.0408,-0.8627,0.4800,0.0205,0.0164,0.0094,-0.0671,-0.0774,-0.0614,-2.1103,2.1132,9.2833,0.0003,0.0002,0.0001,1.0000,-0.0527,0.0528,0.2321
25171,Pelvis,2,-0.6623,-0.0573,-0.7451,0.0544,-0.0396,-0.0287,-0.0037,0.0015,0.0280,0.0662,9.8104,0.1039,1.1577,-0.0005,-0.0004,-0.0000,1.0000,0.2452,0.0026,0.0290
25171,Left,2,0.1513,0.0603,-0.9811,-0.1041,0.0109,0.0113,0.0067,-0.0966,0.0204,-0.0600,-2.6778,-1.4610,9.2639,0.0001,0.0001,0.0001,1.0000,-0.0669,-0.0366,0.2316
25172,Right,2,0.1544,-0.0411,-0.8629,0.4795,0.0267,0.0228,0.0130,-0.0540,-0.0653,-0.0237,-2.1390,2.1310,9.3121,0.0003,0.0003,0.0002,1.0000,-0.0534,0.0532,0.2328
25172,Pelvis,2,-0.6624,-0.0571,-0.7450,0.0541,-0.0310,-0.0136,-0.0038,0.0481,0.0363,0.0893,9.8283,0.1033,1.2022,-0.0004,-0.0002,-0.0000,1.0000,0.2457,0.0026,0.0301
25172,Left,2,0.1513,0.0603,-0.9811,-0.1042,0.0097,0.0078,0.0039,-0.1099,0.0313,-0.0501,-2.6672,-1.4707,9.2761,0.0001,0.0001,0.0000,1.0000,-0.0667,-0.0368,0.2319
25173,Right,2,0.1547,-0.0411,-0.8626,0.4798,0.0222,0.0202,0.0110,-0.0360,-0.0872,-0.0477,-2.1281,2.1577,9.2833,0.0003,0.0003,0.0001,1.0000,-0.0532,0.0539,0.2321
25173,Pelvis,2,-0.6624,-0.0568,-0.7450,0.0538,-0.0292,-0.0011,-0.0038,0.0758,0.0269,0.0490,9.7854,0.1166,1.2215,-0.0004,-0.0000,-0.0000,1.0000,0.2446,0.0029,0.0305
25173,Left,2,0.1514,0.0603,-0.9811,-0.1041,0.0088,0.0072,0.0042,-0.1267,0.0400,-0.0707,-2.6446,-1.4733,9.2606,0.0001,0.0001,0.0001,1.0000,-0.0661,-0.0369,0.2315
25174,Right,2,0.1549,-0.0412,-0.8626,0.4798,0.0133,0.0169,0.0087,-0.0377,-0.1007,-0.0375,-2.1218,2.1696,9.2928,0.0002,0.0002,0.0001,1.0000,-0.0530,0.0542,0.2323
25174,Pelvis,2,-0.6623,-0.0566,-0.7452,0.0536,-0.0222,0.0187,-0.0042,0.0183,0.0528,-0.0013,9.7417,0.0819,1.1656,-0.0003,0.0002,-0.0001,1.0000,0.2435,0.0020,0.0291
25174,Left,2,0.1514,0.0603,-0.9811,-0.1042,0.0114,0.0089,0.0060,-0.1062,0.0352,-0.0978,-2.6582,-1.4684,9.2287,0.0001,0.0001,0.0001,1.0000,-0.0664,-0.0367,0.2307
25175,Right,2,0.1551,-0.0411,-0.8626,0.4797,0.0069,0.0211,0.0056,-0.0330,-0.1012,-0.0183,-2.1317,2.1800,9.3083,0.0001,0.0003,0.0001,1.0000,-0.0532,0.0545,0.2327
25175,Pelvis,2,-0.6620,-0.0565,-0.7455,0.0535,-0.0100,0.0313,0.0014,-0.0007,0.1189,0.0387,9.7826,0.0143,1.1680,-0.0001,0.0004,0.0000,1.0000,0.2446,0.0004,0.0291
25175,Left,2,0.1515,0.0603,-0.9811,-0.1042,0.0088,0.0088,0.0054,-0.1197,0.0246,-0.0583,-2.6604,-1.4616,9.2709,0.0001,0.0001,0.0001,1.0000,-0.0665,-0.0366,0.2318
25176,Right,2,0.1554,-0.0409,-0.8622,0.4804,0.0030,0.0188,0.0056,-0.0467,-0.0666,-0.0046,-2.1615,2.1539,9.3217,0.0000,0.0002,0.0001,1.0000,-0.0540,0.0538,0.2331
25176,Pelvis,2,-0.6617,-0.0564,-0.7458,0.0535,0.0009,0.0379,0.0082,-0.0123,0.1125,0.0560,9.8002,0.0180,1.1662,0.0000,0.0005,0.0001,1.0000,0.2450,0.0005,0.0290
25176,Left,2,0.1516,0.0603,-0.9811,-0.1043,0.0079,0.0078,0.0029,-0.1019,0.0315,-0.0672,-2.6740,-1.4708,9.2560,0.0001,0.0001,0.0000,1.0000,-0.0668,-0.0368,0.2314
25177,Right,2,0.1555,-0.0409,-0.8625,0.4799,0.0001,0.0171,0.0033,-0.0497,-0.0661,-0.0237,-2.1595,2.1468,9.3037,0.0000,0.0002,0.0000,1.0000,-0.0539,0.0537,0.2326
25177,Pelvis,2,-0.6614,-0.0563,-0.7460,0.0537,0.0097,0.0292,0.0096,-0.0001,0.0886,0.0109,9.7531,0.0411,1.1772,0.0001,0.0004,0.0001,1.0000,0.2438,0.0011,0.0293
25177,Left,2,0.1516,0.0603,-0.9811,-0.1041,0.0099,0.0076,0.0026,-0.1260,0.0443,-0.0654,-2.6499,-1.4797,9.2637,0.0001,0.0001,0.0000,1.0000,-0.0662,-0.0370,0.2316
25178,Right,2,0.1555,-0.0409,-0.8629,0.4791,-0.0024,0.0167,0.0019,-0.0339,-0.0791,-0.0370,-2.1565,2.1630,9.2866,-0.0000,0.0002,0.0000,1.0000,-0.0539,0.0541,0.2322
25178,Pelvis,2,-0.6612,-0.0564,-0.7462,0.0539,0.0198,0.0239,0.0087,-0.0110,0.0870,-0.0080,9.7349,0.0392,1.1706,0.0002,0.0003,0.0001,1.0000,0.2434,0.0010,0.0292
25178,Left,2,0.1516,0.0604,-0.9811,-0.1041,0.0099,0.0052,0.0038,-0.1227,0.0296,-0.0836,-2.6515,-1.4635,9.2465,0.0001,0.0001,0.0000,1.0000,-0.0663,-0.0366,0.2312
25179,Right,2,0.1557,-0.0407,-0.8628,0.4793,-0.0019,0.0163,0.0030,-0.0525,-0.0793,-0.0231,-2.1539,2.1498,9.3051,-0.0000,0.0002,0.0000,1.0000,-0.0538,0.0537,0.2326
25179,Pelvis,2,-0.6610,-0.0566,-0.7462,0.0543,0.0281,0.0112,0.0087,0.0368,0.0796,-0.0397,9.6972,0.0522,1.2166,0.0004,0.0001,0.0001,1.0000,0.2424,0.0013,0.0304
25179,Left,2,0.1517,0.0603,-0.9811,-0.1043,0.0088,0.0082,0.0052,-0.1158,0.0387,-0.1007,-2.6517,-1.4713,9.2272,0.0001,0.0001,0.0001,1.0000,-0.0663,-0.0368,0.2307
25180,Right,2,0.1558,-0.0406,-0.8627,0.4795,-0.0029,0.0162,0.0014,-0.0430,-0.0752,-0.0247,-2.1650,2.1537,9.2998,-0.0000,0.0002,0.0000,1.0000,-0.0541,0.0539,0.2325
25180,Pelvis,2,-0.6611,-0.0568,-0.7462,0.0547,0.0379,-0.0035,0.0164,0.0326,0.0718,-0.0619,9.6756,0.0572,1.2096,0.0005,-0.0000,0.0002,1.0000,0.2419,0.0015,0.0303
25180,Left,2,0.1518,0.0602,-0.9810,-0.1048,0.0109,0.0107,0.0065,-0.1146,0.0349,-0.0789,-2.6613,-1.4709,9.2474,0.0001,0.0001,0.0001,1.0000,-0.0665,-0.0368,0.2312
25181,Right,2,0.1560,-0.0402,-0.8621,0.4804,-0.0042,0.0166,0.0015,-0.0439,-0.0837,-0.0545,-2.1542,2.1494,9.2720,-0.0001,0.0002,0.0000,1.0000,-0.0538,0.0537,0.2318
25181,Pelvis,2,-0.6611,-0.0571,-0.7461,0.0553,0.0466,-0.0017,0.0234,0.0629,0.0608,-0.0075,9.7261,0.0702,1.2434,0.0006,-0.0000,0.0003,1.0000,0.2432,0.0018,0.0311
25181,Left,2,0.1519,0.0603,-0.9810,-0.1045,0.0109,0.0107,0.0065,-0.1333,0.0392,-0.0866,-2.6425,-1.4704,9.2451,0.0001,0.0001,0.0001,1.0000,-0.0660,-0.0368,0.2311
25182,Right,2,0.1561,-0.0400,-0.8620,0.4806,-0.0064,0.0159,0.0021,-0.0346,-0.0713,-0.0360,-2.1769,2.1524,9.2854,-0.0001,0.0002,0.0000,1.0000,-0.0544,0.0538,0.2321
25182,Pelvis,2,-0.6611,-0.0573,-0.7460,0.0559,0.0539,-0.0028,0.0266,0.0331,0.0794,0.0128,9.7498,0.0432,1.2191,0.0007,-0.0000,0.0003,1.0000,0.2437,0.0011,0.0305
25182,Left,2,0.1519,0.0603,-0.9810,-0.1042,0.0102,0.0103,0.0062,-0.1010,0.0310,-0.0836,-2.6768,-1.4690,9.2381,0.0001,0.0001,0.0001,1.0000,-0.0669,-0.0368,0.2310
25183,Right,2,0.1562,-0.0397,-0.8618,0.4809,-0.0075,0.0164,0.0013,-0.0491,-0.0803,-0.0231,-2.1687,2.1459,9.3025,-0.0001,0.0002,0.0000,1.0000,-0.0542,0.0537,0.2326
25183,Pelvis,2,-0.6609,-0.0577,-0.7461,0.0566,0.0640,0.0103,0.0243,0.0323,0.1206,0.0498,9.7863,-0.0014,1.2301,0.0008,0.0001,0.0003,1.0000,0.2447,0.0000,0.0307
25183,Left,2,0.1520,0.0603,-0.9810,-0.1042,0.0093,0.0095,0.0070,-0.1124,0.0462,-0.0866,-2.6634,-1.4813,9.2371,0.0001,0.0001,0.0001,1.0000,-0.0666,-0.0371,0.2309
25184,Right,2,0.1563,-0.0396,-0.8620,0.4806,-0.0042,0.0160,0.0007,-0.0567,-0.0544,-0.0008,-2.1952,2.1287,9.3236,-0.0001,0.0002,0.0000,1.0000,-0.0548,0.0532,0.2331
25184,Pelvis,2,-0.6608,-0.0581,-0.7461,0.0573,0.0689,0.0138,0.0173,-0.0015,0.0601,0.0648,9.8053,0.0503,1.1921,0.0009,0.0002,0.0002,1.0000,0.2451,0.0013,0.0298
25184,Left,2,0.1521,0.0604,-0.9811,-0.1037,0.0081,0.0165,0.0084,-0.1183,0.0162,-0.0965,-2.6639,-1.4500,9.2314,0.0001,0.0002,0.0001,1.0000,-0.0665,-0.0363,0.2308
25185,Right,2,0.1564,-0.0395,-0.8618,0.4809,-0.0022,0.0126,0.0036,-0.0281,-0.0722,-0.0168,-2.1934,2.1566,9.3007,-0.0000,0.0002,0.0000,1.0000,-0.0548,0.0539,0.2325
25185,Pelvis,2,-0.6606,-0.0585,-0.7462,0.0579,0.0598,0.0141,0.0157,0.0495,-0.0175,-0.0025,9.7327,0.1324,1.2245,0.0007,0.0002,0.0002,1.0000,0.2433,0.0033,0.0306
25185,Left,2,0.1523,0.0605,-0.9811,-0.1032,0.0080,0.0159,0.0082,-0.1080,0.0419,-0.0560,-2.6823,-1.4836,9.2634,0.0001,0.0002,0.0001,1.0000,-0.0670,-0.0371,0.2316
25186,Right,2,0.1565,-0.0392,-0.8613,0.4818,-0.0026,0.0119,0.0045,-0.0531,-0.0854,-0.0118,-2.1738,2.1430,9.3139,-0.0000,0.0001,0.0001,1.0000,-0.0543,0.0536,0.2329
25186,Pelvis,2,-0.6606,-0.0588,-0.7461,0.0585,0.0493,-0.0048,0.0190,0.1362,-0.0176,-0.0825,9.6428,0.1436,1.3006,0.0006,-0.0001,0.0002,1.0000,0.2411,0.0036,0.0325
25186,Left,2,0.1524,0.0605,-0.9811,-0.1030,0.0078,0.0160,0.0062,-0.1084,0.0400,-0.0777,-2.6790,-1.4790,9.2422,0.0001,0.0002,0.0001,1.0000,-0.0669,-0.0370,0.2311
25187,Right,2,0.1565,-0.0392,-0.8615,0.4814,-0.0047,0.0074,0.0038,-0.0414,-0.0897,-0.0241,-2.1746,2.1508,9.2990,-0.0001,0.0001,0.0000,1.0000,-0.0543,0.0538,0.2325
25187,Pelvis,2,-0.6609,-0.0590,-0.7458,0.0590,0.0419,-0.0249,0.0252,0.1407,0.0056,-0.0873,9.6378,0.1178,1.3045,0.0005,-0.0003,0.0003,1.0000,0.2409,0.0030,0.0327
25187,Left,2,0.1525,0.0606,-0.9811,-0.1026,0.0124,0.0108,0.0055,-0.0907,0.0252,-0.0571,-2.7069,-1.4711,9.2568,0.0002,0.0001,0.0001,1.0000,-0.0676,-0.0368,0.2314
25188,Right,2,0.1565,-0.0391,-0.8616,0.4813,-0.0035,0.0078,0.0031,-0.0486,-0.0805,-0.0422,-2.1758,2.1346,9.2834,-0.0000,0.0001,0.0000,1.0000,-0.0544,0.0534,0.2321
25188,Pelvis,2,-0.6612,-0.0591,-0.7455,0.0595,0.0353,-0.0353,0.0303,0.0710,-0.0153,-0.0756,9.6590,0.1218,1.2268,0.0004,-0.0004,0.0004,1.0000,0.2415,0.0031,0.0308
25188,Left,2,0.1525,0.0604,-0.9810,-0.1031,0.0146,0.0084,0.0058,-0.0975,0.0481,-0.0642,-2.6949,-1.4902,9.2500,0.0002,0.0001,0.0001,1.0000,-0.0673,-0.0373,0.2312
25189,Right,2,0.1565,-0.0392,-0.8620,0.4805,-0.0009,0.0082,0.0045,-0.0456,-0.0889,-0.0528,-2.1689,2.1383,9.2730,-0.0000,0.0001,0.0001,1.0000,-0.0542,0.0535,0.2318
25189,Pelvis,2,-0.6614,-0.0590,-0.7453,0.0598,0.0256,-0.0214,0.0276,0.0263,-0.0295,0.0322,9.7724,0.1236,1.1866,0.0003,-0.0003,0.0003,1.0000,0.2443,0.0032,0.0297
25189,Left,2,0.1526,0.0604,-0.9810,-0.1034,0.0085,0.0095,0.0075,-0.1241,0.0431,-0.0983,-2.6626,-1.4748,9.2262,0.0001,0.0001,0.0001,1.0000,-0.0665,-0.0369,0.2307
25190,Right,2,0.1566,-0.0391,-0.8619,0.4808,-0.0003,0.0102,0.0044,-0.0556,-0.0763,-0.0203,-2.1836,2.1298,9.3057,-0.0000,0.0001,0.0001,1.0000,-0.0546,0.0532,0.2326
25190,Pelvis,2,-0.6616,-0.0591,-0.7451,0.0601,0.0150,-0.0186,0.0170,0.0273,0.0030,0.0892,9.8292,0.0876,1.1948,0.0002,-0.0002,0.0002,1.0000,0.2457,0.0022,0.0299
25190,Left,2,0.1527,0.0604,-0.9810,-0.1030,0.0100,0.0151,0.0077,-0.1247,0.0344,-0.0635,-2.6759,-1.4717,9.2594,0.0001,0.0002,0.0001,1.0000,-0.0668,-0.0368,0.2315
25191,Right,2,0.1566,-0.0391,-0.8621,0.4804,0.0019,0.0093,0.0059,-0.0395,-0.0676,-0.0332,-2.1974,2.1353,9.2874,0.0000,0.0001,0.0001,1.0000,-0.0549,0.0534,0.2322
25191,Pelvis,2,-0.6618,-0.0590,-0.7450,0.0603,0.0131,-0.0191,0.0163,0.0437,0.0478,0.0401,9.7786,0.0423,1.2080,0.0002,-0.0002,0.0002,1.0000,0.2445,0.0011,0.0303
25191,Left,2,0.1529,0.0604,-0.9810,-0.1032,0.0119,0.0153,0.0082,-0.0933,0.0424,-0.0553,-2.7085,-1.4862,9.2559,0.0001,0.0002,0.0001,1.0000,-0.0677,-0.0372,0.2314
25192,Right,2,0.1566,-0.0391,-0.8623,0.4799,-0.0021,0.0065,0.0036,-0.0344,-0.0763,-0.0343,-2.1933,2.1433,9.2854,-0.0000,0.0001,0.0000,1.0000,-0.0548,0.0536,0.2321
25192,Pelvis,2,-0.6619,-0.0590,-0.7448,0.0605,0.0118,-0.0182,0.0159,0.0584,0.0200,-0.0213,9.7168,0.0683,1.2059,0.0001,-0.0002,0.0002,1.0000,0.2429,0.0018,0.0302
25192,Left,2,0.1530,0.0603,-0.9810,-0.1033,0.0111,0.0075,0.0061,-0.0974,0.0320,-0.0512,-2.7100,-1.4755,9.2616,0.0001,0.0001,0.0001,1.0000,-0.0677,-0.0369,0.2315
25193,Right,2,0.1567,-0.0391,-0.8624,0.4799,0.0018,0.0055,0.0056,-0.0463,-0.0717,-0.0315,-2.1927,2.1313,9.2913,0.0000,0.0001,0.0001,1.0000,-0.0548,0.0533,0.2323
25193,Pelvis,2,-0.6621,-0.0589,-0.7446,0.0607,0.0057,-0.0214,0.0223,0.1150,-0.0125,-0.0456,9.6871,0.1055,1.2482,0.0001,-0.0003,0.0003,1.0000,0.2422,0.0027,0.0313
25193,Left,2,0.1530,0.0603,-0.9810,-0.1031,0.0138,0.0056,0.0047,-0.0995,0.0257,-0.0600,-2.7073,-1.4674,9.2544,0.0002,0.0001,0.0001,1.0000,-0.0677,-0.0367,0.2314
25194,Right,2,0.1567,-0.0391,-0.8624,0.4798,0.0008,0.0052,0.0054,-0.0501,-0.0763,-0.0107,-2.1922,2.1351,9.3125,0.0000,0.0001,0.0001,1.0000,-0.0548,0.0534,0.2328
25194,Pelvis,2,-0.6624,-0.0587,-0.7443,0.0608,-0.0008,-0.0308,0.0186,0.1129,0.0066,-0.0563,9.6774,0.0816,1.2417,-0.0000,-0.0004,0.0002,1.0000,0.2419,0.0021,0.0311
25194,Left,2,0.1530,0.0603,-0.9810,-0.1031,0.0140,0.0047,0.0032,-0.1136,0.0377,-0.0717,-2.6885,-1.4740,9.2466,0.0002,0.0001,0.0000,1.0000,-0.0672,-0.0369,0.2312
25195,Right,2,0.1566,-0.0392,-0.8629,0.4790,0.0004,0.0045,0.0064,-0.0486,-0.0626,-0.0305,-2.2001,2.1245,9.2921,0.0000,0.0001,0.0001,1.0000,-0.0550,0.0531,0.2323
25195,Pelvis,2,-0.6628,-0.0586,-0.7440,0.0609,-0.0031,-0.0389,0.0142,0.0785,0.0123,-0.0220,9.7164,0.0665,1.2046,-0.0000,-0.0005,0.0002,1.0000,0.2429,0.0017,0.0302
25195,Left,2,0.1530,0.0602,-0.9810,-0.1032,0.0151,0.0049,0.0041,-0.0986,0.0198,-0.0600,-2.7099,-1.4603,9.2547,0.0002,0.0001,0.0001,1.0000,-0.0677,-0.0366,0.2314
25196,Right,2,0.1566,-0.0393,-0.8631,0.4786,0.0021,0.0045,0.0068,-0.0269,-0.0764,-0.0151,-2.2029,2.1529,9.3011,0.0000,0.0001,0.0001,1.0000,-0.0551,0.0538,0.2325
25196,Pelvis,2,-0.6633,-0.0584,-0.7436,0.0608,-0.0100,-0.0481,0.0135,0.0625,0.0186,-0.0083,9.7330,0.0545,1.1810,-0.0001,-0.0006,0.0002,1.0000,0.2433,0.0014,0.0297
25196,Left,2,0.1529,0.0602,-0.9810,-0.1030,0.0151,0.0027,0.0028,-0.1099,0.0348,-0.0629,-2.6951,-1.4716,9.2544,0.0002,0.0000,0.0000,1.0000,-0.0674,-0.0368,0.2314
25197,Right,2,0.1567,-0.0391,-0.8625,0.4796,0.0017,0.0047,0.0071,-0.0516,-0.0592,0.0105,-2.2117,2.1290,9.3315,0.0000,0.0001,0.0001,1.0000,-0.0553,0.0532,0.2333
25197,Pelvis,2,-0.6638,-0.0582,-0.7432,0.0607,-0.0089,-0.0533,0.0134,0.0998,0.0269,0.0250,9.7634,0.0497,1.2104,-0.0001,-0.0007,0.0002,1.0000,0.2441,0.0013,0.0304
25197,Left,2,0.1529,0.0601,-0.9810,-0.1035,0.0150,0.0016,0.0024,-0.1067,0.0352,-0.0540,-2.7000,-1.4728,9.2620,0.0002,0.0000,0.0000,1.0000,-0.0675,-0.0369,0.2315
25198,Right,2,0.1567,-0.0391,-0.8625,0.4797,-0.0028,0.0040,0.0076,-0.0445,-0.0765,-0.0012,-2.1981,2.1411,9.3198,-0.0000,0.0001,0.0001,1.0000,-0.0549,0.0535,0.2330
25198,Pelvis,2,-0.6643,-0.0580,-0.7427,0.0606,-0.0097,-0.0523,0.0095,0.1222,0.0356,0.0266,9.7639,0.0421,1.2210,-0.0001,-0.0007,0.0001,1.0000,0.2441,0.0011,0.0307
25198,Left,2,0.1529,0.0599,-0.9809,-0.1042,0.0155,-0.0029,-0.0003,-0.1017,0.0401,-0.0581,-2.7013,-1.4768,9.2566,0.0002,-0.0000,-0.0000,1.0000,-0.0675,-0.0370,0.2314
25199,Right,2,0.1566,-0.0391,-0.8628,0.4791,-0.0091,0.0033,0.0077,-0.0475,-0.0758,-0.0203,-2.1925,2.1325,9.3029,-0.0001,0.0000,0.0001,1.0000,-0.0548,0.0533,0.2326
25199,Pelvis,2,-0.6648,-0.0579,-0.7423,0.0605,-0.0098,-0.0509,0.0047,0.1382,0.0195,0.0037,9.7412,0.0587,1.2190,-0.0001,-0.0006,0.0001,1.0000,0.2435,0.0015,0.0306
25199,Left,2,0.1527,0.0599,-0.9809,-0.1041,0.0164,-0.0057,-0.0004,-0.0949,0.0274,-0.0458,-2.7119,-1.4667,9.2681,0.0002,-0.0001,-0.0000,1.0000,-0.0678,-0.0367,0.2317
25200,Right,2,0.1564,-0.0391,-0.8633,0.4783,-0.0130,0.0034,0.0063,-0.0445,-0.0841,-0.0309,-2.1843,2.1344,9.2933,-0.0002,0.0000,0.0001,1.0000,-0.0546,0.0534,0.2323
25200,Pelvis,2,-0.6651,-0.0578,-0.7420,0.0603,-0.0073,-0.0369,-0.0005,0.0591,0.0088,0.0349,9.7823,0.0559,1.1324,-0.0001,-0.0005,-0.0000,1.0000,0.2445,0.0014,0.0284
25200,Left,2,0.1525,0.0599,-0.9810,-0.1042,0.0169,-0.0092,-0.0021,-0.0952,0.0257,-0.0675,-2.7028,-1.4608,9.2487,0.0002,-0.0001,-0.0000,1.0000,-0.0676,-0.0366,0.2312
25201,Right,2,0.1563,-0.0392,-0.8638,0.4773,-0.0080,-0.0009,0.0072,-0.0563,-0.0876,-0.0483,-2.1708,2.1202,9.2815,-0.0001,-0.0000,0.0001,1.0000,-0.0543,0.0530,0.2320
25201,Pelvis,2,-0.6654,-0.0578,-0.7418,0.0602,-0.0015,-0.0270,-0.0032,0.0253,-0.0162,0.0415,9.7936,0.0754,1.0881,-0.0000,-0.0003,-0.0000,1.0000,0.2448,0.0019,0.0273
25201,Left,2,0.1524,0.0598,-0.9809,-0.1047,0.0180,-0.0112,-0.0025,-0.1110,0.0335,-0.0663,-2.6831,-1.4643,9.2554,0.0002,-0.0001,-0.0000,1.0000,-0.0671,-0.0367,0.2314
25202,Right,2,0.1562,-0.0391,-0.8639,0.4773,-0.0034,-0.0004,0.0082,-0.0534,-0.0962,-0.0589,-2.1616,2.1234,9.2718,-0.0000,-0.0000,0.0001,1.0000,-0.0540,0.0531,0.2318
25202,Pelvis,2,-0.6656,-0.0577,-0.7417,0.0600,-0.0141,-0.0219,-0.0055,-0.0081,-0.0261,0.0211,9.7777,0.0806,1.0457,-0.0002,-0.0003,-0.0001,1.0000,0.2444,0.0020,0.0262
25202,Left,2,0.1522,0.0596,-0.9809,-0.1052,0.0170,-0.0106,-0.0038,-0.1324,0.0351,-0.0827,-2.6545,-1.4581,9.2476,0.0002,-0.0001,-0.0000,1.0000,-0.0664,-0.0365,0.2312
25203,Right,2,0.1561,-0.0391,-0.8636,0.4779,0.0010,-0.0061,0.0101,-0.0693,-0.0746,-0.0350,-2.1759,2.1033,9.2982,0.0000,-0.0001,0.0001,1.0000,-0.0544,0.0526,0.2325
25203,Pelvis,2,-0.6659,-0.0576,-0.7415,0.0596,-0.0245,-0.0277,-0.0106,-0.0469,-0.0558,-0.0600,9.7022,0.1047,0.9882,-0.0003,-0.0003,-0.0001,1.0000,0.2425,0.0026,0.0248
25203,Left,2,0.1520,0.0596,-0.9810,-0.1051,0.0161,-0.0098,-0.0018,-0.1126,0.0463,-0.1045,-2.6606,-1.4687,9.2211,0.0002,-0.0001,-0.0000,1.0000,-0.0665,-0.0368,0.2305
25204,Right,2,0.1560,-0.0393,-0.8638,0.4774,0.0053,-0.0055,0.0105,-0.0450,-0.0834,-0.0500,-2.1745,2.1253,9.2776,0.0001,-0.0001,0.0001,1.0000,-0.0544,0.0531,0.2319
25204,Pelvis,2,-0.6661,-0.0575,-0.7413,0.0592,-0.0252,-0.0242,-0.0149,-0.0435,-0.0168,-0.0101,9.7517,0.0699,0.9970,-0.0003,-0.0003,-0.0002,1.0000,0.2438,0.0017,0.0250
25204,Left,2,0.1518,0.0597,-0.9810,-0.1047,0.0151,-0.0076,-0.0019,-0.1103,0.0257,-0.0880,-2.6686,-1.4512,9.2387,0.0002,-0.0001,-0.0000,1.0000,-0.0667,-0.0363,0.2310
25205,Right,2,0.1560,-0.0394,-0.8639,0.4772,0.0070,-0.0037,0.0096,-0.0587,-0.0784,-0.0568,-2.1682,2.1112,9.2752,0.0001,-0.0000,0.0001,1.0000,-0.0542,0.0528,0.2319
25205,Pelvis,2,-0.6663,-0.0575,-0.7412,0.0588,-0.0153,-0.0161,-0.0166,-0.0546,0.0401,0.0920,9.8541,0.0163,1.0013,-0.0002,-0.0002,-0.0002,1.0000,0.2463,0.0004,0.0251
25205,Left,2,0.1516,0.0598,-0.9811,-0.1040,0.0152,-0.0065,-0.0015,-0.0933,0.0482,-0.0915,-2.6755,-1.4755,9.2291,0.0002,-0.0001,-0.0000,1.0000,-0.0669,-0.0369,0.2307
25206,Right,2,0.1559,-0.0396,-0.8642,0.4768,0.0077,-0.0040,0.0099,-0.0626,-0.0828,-0.0360,-2.1654,2.1166,9.2965,0.0001,-0.0001,0.0001,1.0000,-0.0542,0.0529,0.2324
25206,Pelvis,2,-0.6663,-0.0574,-0.7412,0.0586,-0.0147,-0.0036,-0.0121,-0.0381,0.0035,0.0506,9.8119,0.0582,1.0048,-0.0002,-0.0000,-0.0002,1.0000,0.2453,0.0014,0.0251
25206,Left,2,0.1515,0.0598,-0.9811,-0.1042,0.0140,-0.0040,-0.0003,-0.1202,0.0362,-0.0691,-2.6571,-1.4616,9.2605,0.0002,-0.0001,-0.0000,1.0000,-0.0664,-0.0366,0.2315
25207,Right,2,0.1559,-0.0397,-0.8640,0.4772,0.0076,-0.0010,0.0103,-0.0469,-0.0879,-0.0292,-2.1690,2.1350,9.2986,0.0001,-0.0000,0.0001,1.0000,-0.0542,0.0533,0.2325
25207,Pelvis,2,-0.6662,-0.0573,-0.7412,0.0584,-0.0089,0.0058,-0.0035,0.0157,-0.0149,0.0518,9.8076,0.0870,1.0549,-0.0001,0.0001,-0.0000,1.0000,0.2452,0.0022,0.0264
25207,Left,2,0.1514,0.0598,-0.9812,-0.1041,0.0131,-0.0026,0.0019,-0.1142,0.0247,-0.0785,-2.6607,-1.4499,9.2513,0.0002,-0.0000,0.0000,1.0000,-0.0665,-0.0363,0.2313
25208,Right,2,0.1558,-0.0400,-0.8647,0.4758,0.0075,-0.0008,0.0088,-0.0547,-0.0998,-0.0477,-2.1493,2.1330,9.2844,0.0001,-0.0000,0.0001,1.0000,-0.0537,0.0533,0.2321
25208,Pelvis,2,-0.6661,-0.0573,-0.7413,0.0584,-0.0072,0.0123,-0.0041,0.0092,-0.0291,0.0366,9.7930,0.1007,1.0469,-0.0001,0.0002,-0.0001,1.0000,0.2448,0.0025,0.0261
25208,Left,2,0.1513,0.0598,-0.9812,-0.1038,0.0123,-0.0003,0.0012,-0.1208,0.0473,-0.0855,-2.6459,-1.4695,9.2453,0.0002,-0.0000,0.0000,1.0000,-0.0661,-0.0368,0.2311
25209,Right,2,0.1558,-0.0400,-0.8646,0.4760,0.0035,0.0032,0.0073,-0.0578,-0.0826,-0.0264,-2.1664,2.1268,9.3040,0.0000,0.0000,0.0001,1.0000,-0.0542,0.0532,0.2326
25209,Pelvis,2,-0.6660,-0.0573,-0.7415,0.0583,0.0021,0.0118,-0.0056,-0.0042,0.0089,0.0255,9.7827,0.0624,1.0418,0.0000,0.0001,-0.0001,1.0000,0.2446,0.0015,0.0260
25209,Left,2,0.1512,0.0600,-0.9813,-0.1028,0.0123,0.0003,0.0014,-0.1068,0.0448,-0.0684,-2.6633,-1.4726,9.2576,0.0002,0.0000,0.0000,1.0000,-0.0666,-0.0369,0.2314
25210,Right,2,0.1558,-0.0400,-0.8645,0.4762,0.0009,0.0034,0.0067,-0.0482,-0.0868,-0.0483,-2.1625,2.1323,9.2806,0.0000,0.0000,0.0001,1.0000,-0.0541,0.0533,0.2320
25210,Pelvis,2,-0.6658,-0.0575,-0.7416,0.0583,0.0206,0.0242,-0.0040,-0.0492,0.0486,0.0325,9.7935,0.0178,1.0092,0.0003,0.0003,-0.0001,1.0000,0.2448,0.0004,0.0252
25210,Left,2,0.1512,0.0600,-0.9813,-0.1030,0.0107,0.0026,0.0011,-0.1116,0.0356,-0.0860,-2.6550,-1.4601,9.2434,0.0001,0.0000,0.0000,1.0000,-0.0664,-0.0365,0.2311
25211,Right,2,0.1557,-0.0402,-0.8652,0.4749,0.0010,0.0006,0.0048,-0.0427,-0.0652,-0.0287,-2.1873,2.1292,9.2959,0.0000,0.0000,0.0001,1.0000,-0.0547,0.0532,0.2324
25211,Pelvis,2,-0.6655,-0.0578,-0.7418,0.0585,0.0389,0.0225,-0.0037,-0.0132,0.0347,0.0181,9.7749,0.0394,1.0465,0.0005,0.0003,-0.0000,1.0000,0.2444,0.0010,0.0261
25211,Left,2,0.1512,0.0600,-0.9813,-0.1032,0.0094,0.0011,0.0003,-0.1112,0.0326,-0.0860,-2.6555,-1.4577,9.2436,0.0001,0.0000,0.0000,1.0000,-0.0664,-0.0365,0.2311
25212,Right,2,0.1556,-0.0405,-0.8660,0.4735,0.0005,0.0006,0.0066,-0.0465,-0.0861,-0.0483,-2.1625,2.1333,9.2804,0.0000,0.0000,0.0001,1.0000,-0.0541,0.0533,0.2320
25212,Pelvis,2,-0.6654,-0.0582,-0.7419,0.0589,0.0416,0.0135,-0.0038,-0.0330,0.0226,0.0003,9.7590,0.0500,1.0275,0.0005,0.0002,-0.0000,1.0000,0.2440,0.0012,0.0256
25212,Left,2,0.1512,0.0600,-0.9813,-0.1034,0.0068,0.0036,0.0019,-0.1360,0.0468,-0.1059,-2.6229,-1.4648,9.2313,0.0001,0.0000,0.0000,1.0000,-0.0656,-0.0366,0.2308
25213,Right,2,0.1553,-0.0411,-0.8678,0.4702,0.0021,-0.0007,0.0062,-0.0565,-0.0888,-0.0561,-2.1518,2.1257,9.2765,0.0000,-0.0000,0.0001,1.0000,-0.0538,0.0531,0.2319
25213,Pelvis,2,-0.6651,-0.0586,-0.7421,0.0591,0.0370,0.0282,-0.0061,-0.0174,-0.0085,0.0044,9.7612,0.0857,1.0432,0.0005,0.0004,-0.0001,1.0000,0.2440,0.0021,0.0260
25213,Left,2,0.1512,0.0601,-0.9813,-0.1032,0.0063,0.0061,0.0027,-0.1110,0.0426,-0.0806,-2.6544,-1.4703,9.2477,0.0001,0.0001,0.0000,1.0000,-0.0663,-0.0368,0.2312
25214,Right,2,0.1553,-0.0412,-0.8679,0.4701,0.0043,0.0015,0.0059,-0.0615,-0.0879,-0.0848,-2.1426,2.1153,9.2509,0.0001,0.0000,0.0001,1.0000,-0.0536,0.0529,0.2313
25214,Pelvis,2,-0.6647,-0.0588,-0.7424,0.0592,0.0186,0.0355,-0.0055,-0.0388,-0.0656,0.0675,9.8260,0.1413,1.0273,0.0002,0.0004,-0.0001,1.0000,0.2457,0.0035,0.0256
25214,Left,2,0.1512,0.0601,-0.9812,-0.1033,0.0094,0.0081,0.0053,-0.1194,0.0463,-0.1017,-2.6403,-1.4698,9.2297,0.0001,0.0001,0.0001,1.0000,-0.0660,-0.0368,0.2307
25215,Right,2,0.1553,-0.0415,-0.8686,0.4687,0.0084,0.0045,0.0059,-0.0546,-0.0799,-0.0359,-2.1636,2.1284,9.2943,0.0001,0.0001,0.0001,1.0000,-0.0541,0.0532,0.2324
25215,Pelvis,2,-0.6644,-0.0588,-0.7427,0.0592,-0.0045,0.0336,-0.0052,-0.0288,-0.0250,0.0125,9.7689,0.1040,1.0463,-0.0001,0.0004,-0.0001,1.0000,0.2442,0.0026,0.0261
25215,Left,2,0.1513,0.0602,-0.9813,-0.1028,0.0071,0.0093,0.0045,-0.1226,0.0340,-0.0758,-2.6483,-1.4621,9.2559,0.0001,0.0001,0.0001,1.0000,-0.0662,-0.0366,0.2314
25216,Right,2,0.1554,-0.0415,-0.8683,0.4692,0.0117,0.0034,0.0044,-0.0594,-0.0707,-0.0444,-2.1669,2.1193,9.2866,0.0001,0.0000,0.0001,1.0000,-0.0542,0.0529,0.2322
25216,Pelvis,2,-0.6641,-0.0588,-0.7430,0.0591,-0.0160,0.0309,-0.0088,-0.0086,0.0125,0.0126,9.7655,0.0718,1.0801,-0.0002,0.0004,-0.0001,1.0000,0.2441,0.0018,0.0269
25216,Left,2,0.1514,0.0601,-0.9812,-0.1033,0.0107,0.0084,0.0057,-0.1065,0.0368,-0.0717,-2.6650,-1.4685,9.2543,0.0001,0.0001,0.0001,1.0000,-0.0666,-0.0367,0.2314
25217,Right,2,0.1554,-0.0418,-0.8687,0.4686,0.0147,-0.0009,0.0058,-0.0457,-0.0670,-0.0270,-2.1803,2.1348,9.2982,0.0002,-0.0000,0.0001,1.0000,-0.0545,0.0533,0.2325
25217,Pelvis,2,-0.6637,-0.0588,-0.7433,0.0590,-0.0005,0.0435,-0.0113,0.0673,0.0126,0.0246,9.7679,0.0869,1.1650,-0.0000,0.0005,-0.0001,1.0000,0.2442,0.0021,0.0290
25217,Left,2,0.1514,0.0601,-0.9812,-0.1035,0.0126,0.0070,0.0049,-0.1132,0.0377,-0.0493,-2.6656,-1.4712,9.2773,0.0002,0.0001,0.0001,1.0000,-0.0666,-0.0368,0.2319
25218,Right,2,0.1555,-0.0419,-0.8684,0.4691,0.0158,0.0008,0.0077,-0.0391,-0.0764,-0.0185,-2.1772,2.1503,9.3043,0.0002,0.0000,0.0001,1.0000,-0.0544,0.0537,0.2326
25218,Pelvis,2,-0.6634,-0.0586,-0.7437,0.0587,-0.0270,0.0358,-0.0087,0.0654,-0.0243,0.0038,9.7467,0.1251,1.1644,-0.0003,0.0004,-0.0001,1.0000,0.2437,0.0031,0.0290
25218,Left,2,0.1514,0.0600,-0.9812,-0.1034,0.0140,0.0083,0.0024,-0.1035,0.0499,-0.0574,-2.6703,-1.4831,9.2655,0.0002,0.0001,0.0000,1.0000,-0.0667,-0.0371,0.2316
25219,Right,2,0.1555,-0.0419,-0.8681,0.4695,0.0132,0.0017,0.0079,-0.0351,-0.0632,-0.0287,-2.1871,2.1469,9.2919,0.0002,0.0000,0.0001,1.0000,-0.0547,0.0536,0.2323
25219,Pelvis,2,-0.6631,-0.0583,-0.7440,0.0583,-0.0352,0.0360,-0.0067,0.0635,-0.0154,-0.0161,9.7259,0.1170,1.1706,-0.0004,0.0005,-0.0001,1.0000,0.2432,0.0029,0.0292
25219,Left,2,0.1514,0.0601,-0.9813,-0.1030,0.0153,0.0057,0.0038,-0.1048,0.0275,-0.0716,-2.6706,-1.4585,9.2542,0.0002,0.0001,0.0000,1.0000,-0.0667,-0.0365,0.2314
25220,Right,2,0.1557,-0.0416,-0.8668,0.4718,0.0119,0.0029,0.0088,-0.0438,-0.0895,-0.0274,-2.1612,2.1570,9.2972,0.0001,0.0000,0.0001,1.0000,-0.0540,0.0539,0.2324
25220,Pelvis,2,-0.6629,-0.0579,-0.7442,0.0578,-0.0485,0.0269,-0.0083,0.0504,0.0122,-0.0365,9.7060,0.0882,1.1678,-0.0006,0.0003,-0.0001,1.0000,0.2427,0.0022,0.0291
25220,Left,2,0.1514,0.0600,-0.9813,-0.1029,0.0155,0.0070,0.0036,-0.1261,0.0433,-0.0608,-2.6507,-1.4706,9.2697,0.0002,0.0001,0.0000,1.0000,-0.0662,-0.0368,0.2317
25221,Right,2,0.1557,-0.0417,-0.8668,0.4718,0.0094,0.0031,0.0082,-0.0342,-0.0854,-0.0291,-2.1688,2.1644,9.2919,0.0001,0.0000,0.0001,1.0000,-0.0542,0.0541,0.2323
25221,Pelvis,2,-0.6627,-0.0574,-0.7444,0.0574,-0.0511,0.0188,-0.0059,0.0302,0.0206,-0.0358,9.7082,0.0770,1.1551,-0.0006,0.0002,-0.0001,1.0000,0.2427,0.0019,0.0288
25221,Left,2,0.1514,0.0600,-0.9813,-0.1029,0.0160,0.0057,0.0033,-0.1081,0.0357,-0.0968,-2.6593,-1.4601,9.2308,0.0002,0.0001,0.0000,1.0000,-0.0665,-0.0366,0.2308
25222,Right,2,0.1559,-0.0415,-0.8661,0.4731,0.0068,0.0034,0.0075,-0.0478,-0.0723,-0.0157,-2.1760,2.1505,9.3074,0.0001,0.0000,0.0001,1.0000,-0.0544,0.0537,0.2327
25222,Pelvis,2,-0.6626,-0.0570,-0.7446,0.0569,-0.0531,0.0166,-0.0012,-0.0018,0.0328,-0.0085,9.7384,0.0597,1.1332,-0.0007,0.0002,-0.0000,1.0000,0.2435,0.0015,0.0283
25222,Left,2,0.1514,0.0599,-0.9813,-0.1030,0.0153,0.0033,0.0050,-0.0995,0.0420,-0.0702,-2.6735,-1.4707,9.2529,0.0002,0.0000,0.0001,1.0000,-0.0668,-0.0368,0.2313
25223,Right,2,0.1559,-0.0416,-0.8663,0.4728,0.0034,0.0040,0.0067,-0.0255,-0.0729,-0.0202,-2.1856,2.1688,9.2962,0.0000,0.0001,0.0001,1.0000,-0.0546,0.0542,0.2324
25223,Pelvis,2,-0.6625,-0.0564,-0.7448,0.0565,-0.0533,0.0181,0.0040,-0.0109,0.0786,0.0026,9.7495,0.0114,1.1371,-0.0007,0.0002,0.0000,1.0000,0.2437,0.0003,0.0284
25223,Left,2,0.1514,0.0599,-0.9813,-0.1027,0.0153,0.0011,0.0036,-0.0952,0.0260,-0.0668,-2.6814,-1.4556,9.2565,0.0002,0.0000,0.0000,1.0000,-0.0670,-0.0364,0.2314
25224,Right,2,0.1558,-0.0415,-0.8662,0.4729,-0.0046,0.0057,0.0050,-0.0294,-0.0859,-0.0195,-2.1734,2.1723,9.2990,-0.0001,0.0001,0.0001,1.0000,-0.0543,0.0543,0.2325
25224,Pelvis,2,-0.6623,-0.0559,-0.7450,0.0562,-0.0413,0.0219,0.0054,-0.0067,0.0766,0.0156,9.7614,0.0120,1.1473,-0.0005,0.0003,0.0001,1.0000,0.2440,0.0003,0.0286
25224,Left,2,0.1513,0.0598,-0.9813,-0.1032,0.0156,-0.0002,0.0013,-0.1209,0.0199,-0.0791,-2.6542,-1.4419,9.2538,0.0002,-0.0000,0.0000,1.0000,-0.0664,-0.0361,0.2313
25225,Right,2,0.1559,-0.0414,-0.8660,0.4733,-0.0033,0.0061,0.0043,-0.0557,-0.0843,-0.0437,-2.1565,2.1434,9.2843,-0.0000,0.0001,0.0001,1.0000,-0.0539,0.0536,0.2321
25225,Pelvis,2,-0.6622,-0.0556,-0.7452,0.0561,-0.0290,0.0191,0.0094,-0.0003,0.0452,0.0300,9.7746,0.0414,1.1553,-0.0004,0.0002,0.0001,1.0000,0.2444,0.0011,0.0288
25225,Left,2,0.1512,0.0598,-0.9813,-0.1031,0.0124,-0.0009,0.0030,-0.1204,0.0314,-0.0519,-2.6587,-1.4567,9.2789,0.0002,-0.0000,0.0000,1.0000,-0.0665,-0.0365,0.2320
25226,Right,2,0.1559,-0.0413,-0.8660,0.4734,-0.0013,0.0075,0.0055,-0.0480,-0.0716,-0.0348,-2.1738,2.1436,9.2894,-0.0000,0.0001,0.0001,1.0000,-0.0543,0.0536,0.2322
25226,Pelvis,2,-0.6619,-0.0552,-0.7454,0.0559,-0.0226,0.0281,0.0121,-0.0365,0.0141,0.0436,9.7920,0.0636,1.1224,-0.0003,0.0004,0.0002,1.0000,0.2448,0.0016,0.0280
25226,Left,2,0.1512,0.0596,-0.9812,-0.1040,0.0124,0.0015,0.0018,-0.1107,0.0441,-0.0600,-2.6616,-1.4689,9.2675,0.0002,0.0000,0.0000,1.0000,-0.0665,-0.0368,0.2317
25227,Right,2,0.1559,-0.0414,-0.8662,0.4729,0.0002,0.0055,0.0043,-0.0509,-0.1147,-0.0452,-2.1346,2.1622,9.2837,0.0000,0.0001,0.0001,1.0000,-0.0534,0.0541,0.2321
25227,Pelvis,2,-0.6617,-0.0549,-0.7457,0.0558,-0.0190,0.0299,0.0136,-0.0807,0.0128,0.0135,9.7666,0.0543,1.0823,-0.0002,0.0004,0.0002,1.0000,0.2442,0.0014,0.0270
25227,Left,2,0.1512,0.0596,-0.9812,-0.1043,0.0124,0.0009,0.0016,-0.1118,0.0441,-0.1035,-2.6474,-1.4620,9.2270,0.0002,0.0000,0.0000,1.0000,-0.0662,-0.0366,0.2307
25228,Right,2,0.1560,-0.0411,-0.8656,0.4740,0.0032,0.0053,0.0031,-0.0636,-0.0880,-0.0516,-2.1497,2.1356,9.2795,0.0000,0.0001,0.0000,1.0000,-0.0537,0.0534,0.2320
25228,Pelvis,2,-0.6615,-0.0545,-0.7459,0.0557,-0.0170,0.0273,0.0144,-0.1120,-0.0157,0.0038,9.7602,0.0741,1.0531,-0.0002,0.0003,0.0002,1.0000,0.2440,0.0019,0.0262
25228,Left,2,0.1512,0.0596,-0.9812,-0.1042,0.0109,0.0030,0.0039,-0.1175,0.0508,-0.1157,-2.6364,-1.4656,9.2168,0.0001,0.0000,0.0000,1.0000,-0.0659,-0.0367,0.2304
25229,Right,2,0.1560,-0.0411,-0.8655,0.4741,0.0038,0.0043,0.0034,-0.0365,-0.0757,-0.0567,-2.1728,2.1499,9.2652,0.0000,0.0001,0.0000,1.0000,-0.0543,0.0537,0.2316
25229,Pelvis,2,-0.6613,-0.0542,-0.7461,0.0558,-0.0072,0.0231,0.0162,-0.0939,-0.0507,-0.0083,9.7458,0.1075,1.0702,-0.0001,0.0003,0.0002,1.0000,0.2437,0.0027,0.0267
25229,Left,2,0.1512,0.0597,-0.9812,-0.1040,0.0097,0.0039,0.0040,-0.0870,0.0161,-0.0708,-2.6850,-1.4446,9.2529,0.0001,0.0000,0.0000,1.0000,-0.0671,-0.0361,0.2313
25230,Right,2,0.1560,-0.0412,-0.8656,0.4740,0.0067,0.0036,0.0061,-0.0461,-0.0627,-0.0242,-2.1864,2.1429,9.2978,0.0001,0.0000,0.0001,1.0000,-0.0547,0.0535,0.2325
25230,Pelvis,2,-0.6611,-0.0541,-0.7463,0.0558,-0.0013,0.0207,0.0118,-0.0158,-0.0340,0.0059,9.7498,0.1000,1.1564,-0.0000,0.0003,0.0001,1.0000,0.2438,0.0025,0.0288
25230,Left,2,0.1512,0.0597,-0.9812,-0.1036,0.0100,0.0058,0.0040,-0.1010,0.0424,-0.0551,-2.6705,-1.4704,9.2698,0.0001,0.0001,0.0000,1.0000,-0.0667,-0.0368,0.2317
25231,Right,2,0.1561,-0.0412,-0.8653,0.4745,0.0069,0.0043,0.0060,-0.0579,-0.0580,-0.0214,-2.1853,2.1326,9.3034,0.0001,0.0001,0.0001,1.0000,-0.0546,0.0533,0.2326
25231,Pelvis,2,-0.6609,-0.0540,-0.7465,0.0558,0.0009,0.0241,0.0031,-0.0069,-0.0130,0.0140,9.7560,0.0791,1.1747,0.0000,0.0003,0.0000,1.0000,0.2439,0.0020,0.0293
25231,Left,2,0.1511,0.0598,-0.9813,-0.1031,0.0111,0.0049,0.0040,-0.1048,0.0169,-0.0783,-2.6660,-1.4419,9.2511,0.0001,0.0001,0.0000,1.0000,-0.0666,-0.0361,0.2313
25232,Right,2,0.1560,-0.0414,-0.8660,0.4733,0.0037,0.0025,0.0056,-0.0278,-0.0761,-0.0280,-2.1834,2.1664,9.2890,0.0000,0.0000,0.0001,1.0000,-0.0546,0.0541,0.2322
25232,Pelvis,2,-0.6607,-0.0540,-0.7467,0.0557,0.0034,0.0219,-0.0071,0.0117,-0.0684,-0.0166,9.7233,0.1374,1.1861,0.0000,0.0003,-0.0001,1.0000,0.2431,0.0034,0.0296
25232,Left,2,0.1511,0.0598,-0.9813,-0.1033,0.0112,0.0055,0.0042,-0.1089,0.0429,-0.0762,-2.6573,-1.4665,9.2521,0.0001,0.0001,0.0001,1.0000,-0.0664,-0.0367,0.2313
25233,Right,2,0.1561,-0.0412,-0.8652,0.4747,0.0035,0.0032,0.0073,-0.0542,-0.0749,-0.0522,-2.1657,2.1393,9.2741,0.0000,0.0000,0.0001,1.0000,-0.0541,0.0535,0.2319
25233,Pelvis,2,-0.6605,-0.0542,-0.7468,0.0557,0.0107,0.0171,-0.0110,-0.0483,-0.0739,-0.0422,9.7046,0.1360,1.1280,0.0001,0.0002,-0.0001,1.0000,0.2426,0.0034,0.0281
25233,Left,2,0.1511,0.0598,-0.9813,-0.1029,0.0121,0.0068,0.0041,-0.1219,0.0532,-0.0659,-2.6460,-1.4758,9.2649,0.0002,0.0001,0.0001,1.0000,-0.0661,-0.0369,0.2316
25234,Right,2,0.1561,-0.0414,-0.8657,0.4738,0.0055,0.0032,0.0068,-0.0474,-0.0837,-0.0437,-2.1634,2.1524,9.2806,0.0001,0.0000,0.0001,1.0000,-0.0541,0.0538,0.2320
25234,Pelvis,2,-0.6604,-0.0544,-0.7469,0.0557,0.0123,0.0093,-0.0105,-0.0455,0.0037,-0.0662,9.6791,0.0627,1.1429,0.0002,0.0001,-0.0001,1.0000,0.2420,0.0015,0.0285
25234,Left,2,0.1511,0.0599,-0.9814,-0.1024,0.0144,0.0075,0.0028,-0.1049,0.0393,-0.0672,-2.6650,-1.4651,9.2594,0.0002,0.0001,0.0000,1.0000,-0.0666,-0.0367,0.2315
25235,Right,2,0.1560,-0.0415,-0.8658,0.4736,0.0008,0.0010,0.0080,-0.0356,-0.0713,-0.0157,-2.1855,2.1618,9.3026,0.0000,0.0000,0.0001,1.0000,-0.0546,0.0540,0.2326
25235,Pelvis,2,-0.6603,-0.0546,-0.7469,0.0557,0.0116,0.0053,-0.0104,-0.0511,0.0424,-0.0060,9.7389,0.0271,1.1525,0.0001,0.0001,-0.0001,1.0000,0.2435,0.0006,0.0288
25235,Left,2,0.1512,0.0598,-0.9813,-0.1028,0.0106,0.0063,0.0043,-0.0934,0.0343,-0.0591,-2.6798,-1.4631,9.2640,0.0001,0.0001,0.0001,1.0000,-0.0670,-0.0366,0.2316
25236,Right,2,0.1560,-0.0415,-0.8658,0.4737,0.0018,0.0001,0.0065,-0.0475,-0.0831,-0.0532,-2.1603,2.1504,9.2718,0.0000,0.0000,0.0001,1.0000,-0.0540,0.0537,0.2318
25236,Pelvis,2,-0.6603,-0.0549,-0.7469,0.0557,0.0216,-0.0025,-0.0109,-0.0580,0.0591,0.0066,9.7520,0.0129,1.1501,0.0003,-0.0000,-0.0001,1.0000,0.2438,0.0003,0.0288
25236,Left,2,0.1512,0.0598,-0.9813,-0.1026,0.0125,0.0049,0.0036,-0.1156,0.0371,-0.0972,-2.6479,-1.4560,9.2345,0.0002,0.0001,0.0000,1.0000,-0.0662,-0.0364,0.2309
25237,Right,2,0.1560,-0.0413,-0.8654,0.4745,0.0029,0.0035,0.0062,-0.0572,-0.0788,-0.0409,-2.1617,2.1429,9.2862,0.0000,0.0000,0.0001,1.0000,-0.0540,0.0536,0.2322
25237,Pelvis,2,-0.6604,-0.0550,-0.7468,0.0558,0.0174,-0.0088,-0.0025,-0.0552,0.0453,-0.0190,9.7267,0.0293,1.1460,0.0002,-0.0001,-0.0000,1.0000,0.2432,0.0007,0.0287
25237,Left,2,0.1512,0.0598,-0.9813,-0.1026,0.0133,0.0065,0.0043,-0.1076,0.0447,-0.0923,-2.6551,-1.4652,9.2360,0.0002,0.0001,0.0001,1.0000,-0.0664,-0.0367,0.2309
25238,Right,2,0.1560,-0.0414,-0.8654,0.4743,0.0045,0.0029,0.0066,-0.0513,-0.0572,-0.0213,-2.1867,2.1407,9.3012,0.0001,0.0000,0.0001,1.0000,-0.0547,0.0535,0.2325
25238,Pelvis,2,-0.6605,-0.0550,-0.7467,0.0558,0.0070,-0.0092,0.0055,-0.0643,0.0353,-0.0179,9.7292,0.0382,1.1335,0.0001,-0.0001,0.0001,1.0000,0.2432,0.0010,0.0284
25238,Left,2,0.1512,0.0597,-0.9813,-0.1033,0.0130,0.0046,0.0042,-0.0952,0.0239,-0.0896,-2.6724,-1.4468,9.2365,0.0002,0.0001,0.0001,1.0000,-0.0668,-0.0362,0.2309
25239,Right,2,0.1561,-0.0414,-0.8653,0.4746,0.0067,0.0036,0.0061,-0.0406,-0.0836,-0.0341,-2.1671,2.1618,9.2876,0.0001,0.0000,0.0001,1.0000,-0.0542,0.0540,0.2322
25239,Pelvis,2,-0.6606,-0.0550,-0.7467,0.0559,0.0122,-0.0071,0.0082,-0.0363,0.0178,0.0436,9.7872,0.0591,1.1636,0.0002,-0.0001,0.0001,1.0000,0.2447,0.0015,0.0291
25239,Left,2,0.1512,0.0597,-0.9813,-0.1028,0.0122,0.0039,0.0045,-0.1110,0.0456,-0.0609,-2.6608,-1.4691,9.2668,0.0002,0.0000,0.0001,1.0000,-0.0665,-0.0368,0.2317
25240,Right,2,0.1561,-0.0414,-0.8651,0.4748,0.0072,0.0050,0.0060,-0.0397,-0.0919,-0.0543,-2.1561,2.1638,9.2685,0.0001,0.0001,0.0001,1.0000,-0.0539,0.0541,0.2317
25240,Pelvis,2,-0.6605,-0.0551,-0.7467,0.0560,0.0155,0.0030,0.0033,0.0144,-0.0117,0.0880,9.8256,0.0960,1.2134,0.0002,0.0000,0.0000,1.0000,0.2456,0.0024,0.0303
25240,Left,2,0.1512,0.0598,-0.9813,-0.1027,0.0105,0.0061,0.0048,-0.1177,0.0318,-0.0658,-2.6563,-1.4537,9.2654,0.0001,0.0001,0.0001,1.0000,-0.0664,-0.0364,0.2316
25241,Right,2,0.1562,-0.0415,-0.8653,0.4745,0.0098,0.0064,0.0045,-0.0516,-0.1036,-0.0919,-2.1322,2.1539,9.2370,0.0001,0.0001,0.0001,1.0000,-0.0533,0.0538,0.2309
25241,Pelvis,2,-0.6604,-0.0553,-0.7467,0.0561,0.0209,0.0074,-0.0006,0.0378,-0.0190,0.0349,9.7699,0.1068,1.2300,0.0003,0.0001,-0.0000,1.0000,0.2443,0.0027,0.0307
25241,Left,2,0.1512,0.0599,-0.9814,-0.1020,0.0081,0.0107,0.0038,-0.1171,0.0503,-0.0949,-2.6453,-1.4684,9.2357,0.0001,0.0001,0.0000,1.0000,-0.0661,-0.0367,0.2309
25242,Right,2,0.1563,-0.0417,-0.8656,0.4739,0.0116,0.0119,0.0040,-0.0524,-0.0698,-0.0207,-2.1777,2.1526,9.3013,0.0001,0.0001,0.0000,1.0000,-0.0544,0.0538,0.2325
25242,Pelvis,2,-0.6604,-0.0555,-0.7468,0.0563,0.0227,0.0057,-0.0034,0.0299,-0.0451,-0.0188,9.7178,0.1321,1.2131,0.0003,0.0001,-0.0000,1.0000,0.2429,0.0033,0.0303
25242,Left,2,0.1513,0.0598,-0.9813,-0.1028,0.0078,0.0080,0.0062,-0.1019,0.0327,-0.0834,-2.6679,-1.4559,9.2431,0.0001,0.0001,0.0001,1.0000,-0.0667,-0.0364,0.2311
25243,Right,2,0.1565,-0.0418,-0.8656,0.4739,0.0140,0.0094,0.0045,-0.0300,-0.0622,-0.0050,-2.2007,2.1724,9.3077,0.0002,0.0001,0.0001,1.0000,-0.0550,0.0543,0.2327
25243,Pelvis,2,-0.6602,-0.0557,-0.7469,0.0564,0.0256,0.0145,-0.0037,0.0161,-0.0680,-0.0036,9.7344,0.1545,1.2002,0.0003,0.0002,-0.0000,1.0000,0.2434,0.0038,0.0300
25243,Left,2,0.1514,0.0600,-0.9814,-0.1020,0.0088,0.0118,0.0043,-0.1023,0.0451,-0.0778,-2.6675,-1.4698,9.2469,0.0001,0.0001,0.0001,1.0000,-0.0667,-0.0368,0.2312
25244,Right,2,0.1566,-0.0418,-0.8655,0.4740,0.0106,0.0074,0.0064,-0.0400,-0.0826,-0.0532,-2.1686,2.1673,9.2659,0.0001,0.0001,0.0001,1.0000,-0.0542,0.0541,0.2317
25244,Pelvis,2,-0.6600,-0.0561,-0.7470,0.0565,0.0277,0.0182,-0.0100,0.0332,-0.0414,0.0396,9.7744,0.1341,1.2303,0.0003,0.0002,-0.0001,1.0000,0.2444,0.0033,0.0307
25244,Left,2,0.1514,0.0601,-0.9814,-0.1012,0.0098,0.0134,0.0070,-0.1170,0.0362,-0.0819,-2.6562,-1.4585,9.2477,0.0001,0.0002,0.0001,1.0000,-0.0664,-0.0365,0.2312
25245,Right,2,0.1567,-0.0419,-0.8656,0.4737,0.0121,0.0124,0.0045,-0.0655,-0.1111,-0.0884,-2.1252,2.1569,9.2417,0.0002,0.0002,0.0001,1.0000,-0.0531,0.0539,0.2311
25245,Pelvis,2,-0.6598,-0.0565,-0.7472,0.0567,0.0312,0.0208,-0.0120,0.0261,-0.0043,0.0707,9.8051,0.1003,1.2375,0.0004,0.0003,-0.0001,1.0000,0.2451,0.0025,0.0309
25245,Left,2,0.1515,0.0602,-0.9815,-0.1008,0.0092,0.0141,0.0072,-0.1036,0.0354,-0.0866,-2.6697,-1.4598,9.2385,0.0001,0.0002,0.0001,1.0000,-0.0667,-0.0365,0.2310
25246,Right,2,0.1569,-0.0421,-0.8659,0.4731,0.0143,0.0170,0.0028,-0.0312,-0.0610,-0.0241,-2.2015,2.1740,9.2870,0.0002,0.0002,0.0000,1.0000,-0.0550,0.0543,0.2322
25246,Pelvis,2,-0.6595,-0.0569,-0.7474,0.0568,0.0362,0.0256,-0.0167,0.0028,0.0367,0.0045,9.7411,0.0604,1.2187,0.0005,0.0003,-0.0002,1.0000,0.2435,0.0014,0.0304
25246,Left,2,0.1516,0.0602,-0.9815,-0.1005,0.0093,0.0131,0.0062,-0.0922,0.0300,-0.0784,-2.6861,-1.4583,9.2425,0.0001,0.0002,0.0001,1.0000,-0.0671,-0.0365,0.2311
25247,Right,2,0.1570,-0.0422,-0.8660,0.4728,0.0144,0.0136,0.0062,-0.0418,-0.0697,0.0080,-2.1992,2.1804,9.3200,0.0002,0.0002,0.0001,1.0000,-0.0549,0.0545,0.2330
25247,Pelvis,2,-0.6592,-0.0574,-0.7476,0.0571,0.0448,0.0286,-0.0123,0.0701,0.0159,0.0083,9.7359,0.0966,1.2880,0.0006,0.0004,-0.0002,1.0000,0.2434,0.0024,0.0321
25247,Left,2,0.1517,0.0603,-0.9815,-0.1002,0.0073,0.0107,0.0043,-0.1043,0.0243,-0.0737,-2.6790,-1.4521,9.2506,0.0001,0.0001,0.0001,1.0000,-0.0669,-0.0363,0.2313
25248,Right,2,0.1572,-0.0423,-0.8661,0.4727,0.0083,0.0108,0.0044,-0.0322,-0.0738,-0.0139,-2.1973,2.1878,9.2956,0.0001,0.0001,0.0001,1.0000,-0.0549,0.0547,0.2324
25248,Pelvis,2,-0.6588,-0.0577,-0.7479,0.0573,0.0378,0.0419,-0.0083,0.1297,-0.0033,0.0517,9.7706,0.1298,1.3571,0.0005,0.0005,-0.0001,1.0000,0.2443,0.0032,0.0338
25248,Left,2,0.1518,0.0603,-0.9815,-0.1002,0.0104,0.0117,0.0060,-0.1145,0.0234,-0.0818,-2.6688,-1.4486,9.2457,0.0001,0.0001,0.0001,1.0000,-0.0667,-0.0362,0.2311
25249,Right,2,0.1572,-0.0424,-0.8663,0.4722,0.0040,0.0110,0.0033,-0.0401,-0.0775,-0.0122,-2.1923,2.1850,9.2993,0.0000,0.0001,0.0000,1.0000,-0.0548,0.0546,0.2325
25249,Pelvis,2,-0.6582,-0.0581,-0.7484,0.0575,0.0321,0.0611,-0.0069,0.0879,0.0120,0.0239,9.7463,0.1109,1.3274,0.0004,0.0008,-0.0001,1.0000,0.2437,0.0027,0.0330
25249,Left,2,0.1518,0.0604,-0.9815,-0.0996,0.0087,0.0122,0.0051,-0.0949,0.0491,-0.0761,-2.6848,-1.4786,9.2422,0.0001,0.0002,0.0001,1.0000,-0.0671,-0.0370,0.2311
25250,Right,2,0.1573,-0.0423,-0.8663,0.4721,0.0030,0.0113,0.0040,-0.0442,-0.0987,-0.0317,-2.1700,2.1893,9.2832,0.0000,0.0001,0.0000,1.0000,-0.0542,0.0547,0.2321
25250,Pelvis,2,-0.6576,-0.0582,-0.7489,0.0575,0.0183,0.0653,-0.0074,0.0296,0.0541,0.0282,9.7555,0.0629,1.2931,0.0002,0.0008,-0.0001,1.0000,0.2439,0.0015,0.0321
25250,Left,2,0.1518,0.0605,-0.9816,-0.0990,0.0112,0.0117,0.0055,-0.0850,0.0390,-0.0550,-2.7038,-1.4741,9.2594,0.0001,0.0001,0.0001,1.0000,-0.0676,-0.0369,0.2315
25251,Right,2,0.1574,-0.0424,-0.8665,0.4718,0.0038,0.0097,0.0026,-0.0415,-0.0634,-0.0510,-2.1980,2.1681,9.2609,0.0000,0.0001,0.0000,1.0000,-0.0549,0.0542,0.2315
25251,Pelvis,2,-0.6570,-0.0584,-0.7495,0.0577,0.0253,0.0675,-0.0113,-0.0542,0.0742,-0.0367,9.6997,0.0318,1.2221,0.0003,0.0008,-0.0001,1.0000,0.2425,0.0008,0.0303
25251,Left,2,0.1520,0.0603,-0.9814,-0.1002,0.0080,0.0072,0.0047,-0.0943,0.0227,-0.0688,-2.6959,-1.4543,9.2504,0.0001,0.0001,0.0001,1.0000,-0.0674,-0.0364,0.2313
25252,Right,2,0.1575,-0.0422,-0.8658,0.4730,0.0060,0.0078,0.0048,-0.0541,-0.0806,-0.0486,-2.1795,2.1683,9.2680,0.0001,0.0001,0.0001,1.0000,-0.0545,0.0542,0.2317
25252,Pelvis,2,-0.6564,-0.0587,-0.7499,0.0578,0.0303,0.0576,-0.0112,-0.0379,0.0480,-0.0688,9.6640,0.0639,1.2446,0.0004,0.0007,-0.0001,1.0000,0.2416,0.0016,0.0309
25252,Left,2,0.1519,0.0606,-0.9816,-0.0990,0.0094,0.0055,0.0031,-0.0992,0.0272,-0.0592,-2.6933,-1.4605,9.2604,0.0001,0.0001,0.0000,1.0000,-0.0673,-0.0365,0.2315
25253,Right,2,0.1576,-0.0423,-0.8662,0.4722,0.0087,0.0097,0.0056,-0.0318,-0.0810,-0.0531,-2.1902,2.1869,9.2562,0.0001,0.0001,0.0001,1.0000,-0.0547,0.0546,0.2314
25253,Pelvis,2,-0.6559,-0.0589,-0.7503,0.0580,0.0241,0.0537,0.0002,0.0219,-0.0835,-0.0454,9.6789,0.2061,1.2978,0.0003,0.0007,0.0000,1.0000,0.2420,0.0051,0.0323
25253,Left,2,0.1518,0.0607,-0.9816,-0.0983,0.0099,0.0022,0.0048,-0.1097,0.0480,-0.0963,-2.6682,-1.4742,9.2266,0.0001,0.0000,0.0001,1.0000,-0.0667,-0.0369,0.2307
25254,Right,2,0.1577,-0.0424,-0.8662,0.4723,0.0105,0.0137,0.0049,-0.0532,-0.1018,-0.0490,-2.1649,2.1838,9.2675,0.0001,0.0002,0.0001,1.0000,-0.0541,0.0546,0.2317
25254,Pelvis,2,-0.6553,-0.0588,-0.7509,0.0581,0.0054,0.0668,0.0068,-0.0095,-0.0892,0.0743,9.7998,0.2079,1.2966,0.0001,0.0008,0.0001,1.0000,0.2450,0.0052,0.0322
25254,Left,2,0.1519,0.0605,-0.9815,-0.0993,0.0107,0.0080,0.0049,-0.1135,0.0379,-0.0923,-2.6681,-1.4638,9.2325,0.0001,0.0001,0.0001,1.0000,-0.0667,-0.0366,0.2308
25255,Right,2,0.1580,-0.0423,-0.8659,0.4727,0.0110,0.0176,0.0020,-0.0485,-0.1190,-0.0703,-2.1509,2.1943,9.2461,0.0001,0.0002,0.0000,1.0000,-0.0537,0.0548,0.2312
25255,Pelvis,2,-0.6547,-0.0587,-0.7513,0.0581,-0.0020,0.0578,0.0019,-0.0069,-0.0368,0.0680,9.7907,0.1558,1.3220,-0.0000,0.0007,0.0000,1.0000,0.2448,0.0039,0.0329
25255,Left,2,0.1519,0.0606,-0.9816,-0.0989,0.0100,0.0080,0.0054,-0.1102,0.0376,-0.0834,-2.6746,-1.4658,9.2396,0.0001,0.0001,0.0001,1.0000,-0.0668,-0.0367,0.2310
25256,Right,2,0.1582,-0.0423,-0.8659,0.4726,0.0108,0.0230,0.0020,-0.0395,-0.0761,-0.0408,-2.2020,2.1864,9.2665,0.0001,0.0003,0.0000,1.0000,-0.0550,0.0546,0.2317
25256,Pelvis,2,-0.6543,-0.0587,-0.7517,0.0581,-0.0008,0.0410,-0.0034,0.0106,-0.0435,-0.0273,9.6923,0.1644,1.3371,-0.0000,0.0005,-0.0000,1.0000,0.2423,0.0041,0.0333
25256,Left,2,0.1520,0.0606,-0.9815,-0.0990,0.0114,0.0123,0.0077,-0.1050,0.0423,-0.0874,-2.6786,-1.4706,9.2335,0.0001,0.0002,0.0001,1.0000,-0.0669,-0.0368,0.2308
25257,Right,2,0.1585,-0.0422,-0.8656,0.4732,0.0147,0.0214,0.0032,-0.0556,-0.0674,0.0030,-2.2159,2.1807,9.3108,0.0002,0.0003,0.0000,1.0000,-0.0553,0.0545,0.2328
25257,Pelvis,2,-0.6540,-0.0587,-0.7520,0.0580,-0.0033,0.0386,-0.0054,0.0054,-0.0275,-0.0964,9.6231,0.1482,1.3346,-0.0000,0.0005,-0.0001,1.0000,0.2406,0.0037,0.0332
25257,Left,2,0.1521,0.0604,-0.9815,-0.0995,0.0130,0.0094,0.0078,-0.0868,0.0275,-0.0671,-2.7060,-1.4616,9.2480,0.0002,0.0001,0.0001,1.0000,-0.0676,-0.0366,0.2312
25258,Right,2,0.1586,-0.0425,-0.8663,0.4718,0.0089,0.0158,0.0046,-0.0306,-0.0546,-0.0117,-2.2389,2.1931,9.2866,0.0001,0.0002,0.0001,1.0000,-0.0559,0.0548,0.2322
25258,Pelvis,2,-0.6537,-0.0587,-0.7523,0.0579,0.0028,0.0319,-0.0084,-0.0017,-0.0463,-0.0754,9.6439,0.1677,1.3358,0.0000,0.0004,-0.0001,1.0000,0.2411,0.0042,0.0333
25258,Left,2,0.1522,0.0604,-0.9815,-0.0997,0.0116,0.0100,0.0024,-0.1108,0.0401,-0.0649,-2.6826,-1.4696,9.2562,0.0001,0.0001,0.0000,1.0000,-0.0670,-0.0368,0.2314
25259,Right,2,0.1587,-0.0425,-0.8662,0.4719,0.0068,0.0114,0.0039,-0.0405,-0.0583,-0.0195,-2.2315,2.1868,9.2817,0.0001,0.0001,0.0000,1.0000,-0.0558,0.0546,0.2321
25259,Pelvis,2,-0.6535,-0.0588,-0.7524,0.0578,-0.0025,0.0169,-0.0085,0.0445,-0.0532,-0.0254,9.6862,0.1850,1.3925,-0.0000,0.0002,-0.0001,1.0000,0.2422,0.0046,0.0348
25259,Left,2,0.1522,0.0604,-0.9815,-0.0996,0.0121,0.0096,0.0057,-0.0873,0.0390,-0.0832,-2.7006,-1.4698,9.2314,0.0002,0.0001,0.0001,1.0000,-0.0675,-0.0368,0.2308
25260,Right,2,0.1589,-0.0424,-0.8660,0.4722,0.0036,0.0108,0.0066,-0.0261,-0.0937,-0.0334,-2.2079,2.2154,9.2662,0.0000,0.0001,0.0001,1.0000,-0.0552,0.0554,0.2317
25260,Pelvis,2,-0.6535,-0.0587,-0.7525,0.0576,-0.0047,0.0058,-0.0065,0.0188,-0.0619,0.0256,9.7399,0.1921,1.3758,-0.0001,0.0001,-0.0001,1.0000,0.2435,0.0048,0.0344
25260,Left,2,0.1524,0.0602,-0.9814,-0.1004,0.0118,0.0094,0.0042,-0.0912,0.0287,-0.0792,-2.7016,-1.4590,9.2371,0.0001,0.0001,0.0001,1.0000,-0.0675,-0.0365,0.2309
25261,Right,2,0.1590,-0.0424,-0.8663,0.4716,0.0043,0.0154,0.0036,-0.0486,-0.0921,-0.0384,-2.1987,2.1961,9.2678,0.0001,0.0002,0.0000,1.0000,-0.0549,0.0549,0.2317
25261,Pelvis,2,-0.6534,-0.0587,-0.7525,0.0575,-0.0090,0.0087,-0.0048,0.0148,-0.0137,0.0134,9.7276,0.1450,1.3797,-0.0001,0.0001,-0.0001,1.0000,0.2432,0.0036,0.0345
25261,Left,2,0.1524,0.0603,-0.9814,-0.0999,0.0117,0.0104,0.0052,-0.0987,0.0305,-0.0784,-2.6955,-1.4597,9.2396,0.0001,0.0001,0.0001,1.0000,-0.0674,-0.0365,0.2310
25262,Right,2,0.1591,-0.0424,-0.8664,0.4715,0.0045,0.0169,0.0029,-0.0359,-0.0664,-0.0301,-2.2314,2.1945,9.2687,0.0001,0.0002,0.0000,1.0000,-0.0557,0.0548,0.2317
25262,Pelvis,2,-0.6533,-0.0587,-0.7526,0.0575,-0.0030,0.0100,-0.0035,-0.0188,0.0174,0.0299,9.7481,0.1099,1.3564,-0.0000,0.0001,-0.0000,1.0000,0.2437,0.0027,0.0339
25262,Left,2,0.1524,0.0604,-0.9814,-0.0995,0.0115,0.0081,0.0044,-0.0871,0.0251,-0.0703,-2.7108,-1.4577,9.2439,0.0001,0.0001,0.0001,1.0000,-0.0677,-0.0365,0.2311
25263,Right,2,0.1592,-0.0426,-0.8670,0.4703,0.0021,0.0133,0.0025,-0.0310,-0.0664,-0.0110,-2.2408,2.2033,9.2845,0.0000,0.0002,0.0000,1.0000,-0.0560,0.0551,0.2321
25263,Pelvis,2,-0.6532,-0.0588,-0.7527,0.0574,0.0038,0.0132,-0.0047,0.0242,-0.0030,0.0123,9.7244,0.1380,1.3952,0.0000,0.0002,-0.0001,1.0000,0.2431,0.0034,0.0348
25263,Left,2,0.1524,0.0606,-0.9815,-0.0984,0.0108,0.0086,0.0051,-0.1039,0.0334,-0.0905,-2.6883,-1.4605,9.2289,0.0001,0.0001,0.0001,1.0000,-0.0672,-0.0365,0.2307
25264,Right,2,0.1592,-0.0426,-0.8673,0.4697,0.0011,0.0136,0.0032,-0.0429,-0.0694,-0.0284,-2.2304,2.1915,9.2716,0.0000,0.0002,0.0000,1.0000,-0.0557,0.0548,0.2318
25264,Pelvis,2,-0.6531,-0.0588,-0.7528,0.0575,0.0021,0.0086,-0.0017,0.0873,-0.0216,0.0032,9.7064,0.1676,1.4549,0.0000,0.0001,-0.0000,1.0000,0.2427,0.0042,0.0363
25264,Left,2,0.1525,0.0605,-0.9815,-0.0986,0.0119,0.0118,0.0050,-0.1022,0.0288,-0.0687,-2.6983,-1.4593,9.2491,0.0001,0.0001,0.0001,1.0000,-0.0674,-0.0365,0.2312
25265,Right,2,0.1592,-0.0428,-0.8678,0.4687,-0.0004,0.0102,0.0052,-0.0363,-0.0781,-0.0199,-2.2302,2.2035,9.2778,-0.0000,0.0001,0.0001,1.0000,-0.0557,0.0551,0.2320
25265,Pelvis,2,-0.6529,-0.0589,-0.7529,0.0574,-0.0014,0.0181,-0.0042,0.0766,-0.0335,-0.0249,9.6797,0.1780,1.4418,-0.0000,0.0002,-0.0001,1.0000,0.2420,0.0044,0.0360
25265,Left,2,0.1526,0.0603,-0.9814,-0.0997,0.0110,0.0094,0.0047,-0.1206,0.0338,-0.0761,-2.6793,-1.4590,9.2471,0.0001,0.0001,0.0001,1.0000,-0.0670,-0.0365,0.2312
25266,Right,2,0.1592,-0.0430,-0.8685,0.4674,-0.0009,0.0068,0.0029,-0.0372,-0.0689,-0.0093,-2.2407,2.1998,9.2873,-0.0000,0.0001,0.0000,1.0000,-0.0560,0.0550,0.2322
25266,Pelvis,2,-0.6527,-0.0589,-0.7531,0.0573,-0.0035,0.0251,-0.0078,0.0449,0.0247,0.0031,9.7105,0.1174,1.4294,-0.0000,0.0003,-0.0001,1.0000,0.2428,0.0029,0.0357
25266,Left,2,0.1526,0.0603,-0.9814,-0.0997,0.0113,0.0073,0.0048,-0.0835,0.0336,-0.0774,-2.7144,-1.4651,9.2342,0.0001,0.0001,0.0001,1.0000,-0.0678,-0.0367,0.2309
25267,Right,2,0.1589,-0.0436,-0.8705,0.4637,-0.0031,0.0059,0.0049,-0.0309,-0.0768,-0.0008,-2.2393,2.2112,9.2939,-0.0000,0.0001,0.0001,1.0000,-0.0560,0.0553,0.2323
25267,Pelvis,2,-0.6525,-0.0589,-0.7533,0.0572,-0.0009,0.0196,-0.0125,0.0293,0.0666,0.0082,9.7166,0.0763,1.4271,-0.0000,0.0002,-0.0002,1.0000,0.2429,0.0019,0.0356
25267,Left,2,0.1526,0.0603,-0.9814,-0.0997,0.0116,0.0054,0.0023,-0.0873,0.0228,-0.0734,-2.7146,-1.4545,9.2400,0.0001,0.0001,0.0000,1.0000,-0.0678,-0.0364,0.2310
25268,Right,2,0.1589,-0.0436,-0.8706,0.4635,-0.0036,0.0056,0.0029,-0.0502,-0.0618,-0.0160,-2.2385,2.1828,9.2847,-0.0000,0.0001,0.0000,1.0000,-0.0559,0.0546,0.2321
25268,Pelvis,2,-0.6523,-0.0590,-0.7535,0.0571,0.0056,0.0181,-0.0068,-0.0014,0.0632,-0.0193,9.6932,0.0769,1.3971,0.0001,0.0002,-0.0001,1.0000,0.2423,0.0019,0.0349
25268,Left,2,0.1526,0.0602,-0.9813,-0.1004,0.0124,0.0031,0.0030,-0.0832,0.0437,-0.0717,-2.7143,-1.4754,9.2386,0.0002,0.0000,0.0000,1.0000,-0.0678,-0.0369,0.2310
25269,Right,2,0.1589,-0.0435,-0.8706,0.4636,-0.0015,0.0038,0.0051,-0.0280,-0.0630,-0.0205,-2.2483,2.1991,9.2736,-0.0000,0.0000,0.0001,1.0000,-0.0562,0.0550,0.2318
25269,Pelvis,2,-0.6521,-0.0589,-0.7537,0.0570,-0.0074,0.0232,-0.0026,0.0169,0.0179,-0.0406,9.6691,0.1256,1.4094,-0.0001,0.0003,-0.0000,1.0000,0.2417,0.0031,0.0352
25269,Left,2,0.1526,0.0602,-0.9813,-0.1003,0.0125,0.0033,0.0024,-0.0961,0.0398,-0.0887,-2.6977,-1.4666,9.2270,0.0002,0.0000,0.0000,1.0000,-0.0674,-0.0367,0.2307
25270,Right,2,0.1589,-0.0436,-0.8710,0.4628,-0.0015,0.0059,0.0062,-0.0420,-0.0959,-0.0585,-2.2051,2.1978,9.2446,-0.0000,0.0001,0.0001,1.0000,-0.0551,0.0549,0.2311
25270,Pelvis,2,-0.6520,-0.0587,-0.7538,0.0569,-0.0203,0.0191,-0.0002,-0.0325,0.0908,-0.0190,9.6962,0.0459,1.3812,-0.0003,0.0002,-0.0000,1.0000,0.2424,0.0012,0.0345
25270,Left,2,0.1525,0.0604,-0.9815,-0.0991,0.0132,0.0037,0.0027,-0.1120,0.0463,-0.0871,-2.6814,-1.4709,9.2329,0.0002,0.0000,0.0000,1.0000,-0.0670,-0.0368,0.2308
25271,Right,2,0.1590,-0.0432,-0.8699,0.4649,-0.0001,0.0063,0.0046,-0.0426,-0.0573,-0.0368,-2.2425,2.1792,9.2626,-0.0000,0.0001,0.0001,1.0000,-0.0560,0.0545,0.2316
25271,Pelvis,2,-0.6520,-0.0585,-0.7538,0.0567,-0.0097,-0.0039,0.0022,-0.0395,0.0721,0.0021,9.7180,0.0631,1.3759,-0.0001,-0.0000,0.0000,1.0000,0.2429,0.0016,0.0344
25271,Left,2,0.1525,0.0603,-0.9815,-0.0992,0.0132,0.0043,0.0029,-0.0911,0.0342,-0.0580,-2.7116,-1.4666,9.2552,0.0002,0.0001,0.0000,1.0000,-0.0678,-0.0367,0.2314
25272,Right,2,0.1590,-0.0432,-0.8698,0.4651,0.0006,0.0045,0.0055,-0.0446,-0.0702,-0.0266,-2.2335,2.1867,9.2739,0.0000,0.0001,0.0001,1.0000,-0.0558,0.0547,0.2319
25272,Pelvis,2,-0.6523,-0.0583,-0.7536,0.0566,-0.0157,-0.0276,0.0076,0.0402,-0.0039,-0.0668,9.6397,0.1486,1.4276,-0.0002,-0.0003,0.0001,1.0000,0.2410,0.0037,0.0358
25272,Left,2,0.1525,0.0604,-0.9815,-0.0990,0.0123,0.0041,0.0040,-0.0996,0.0379,-0.0790,-2.6966,-1.4655,9.2378,0.0002,0.0001,0.0000,1.0000,-0.0674,-0.0367,0.2309
25273,Right,2,0.1589,-0.0433,-0.8703,0.4642,-0.0007,0.0028,0.0045,-0.0388,-0.0571,-0.0272,-2.2471,2.1837,9.2705,-0.0000,0.0000,0.0001,1.0000,-0.0562,0.0546,0.2318
25273,Pelvis,2,-0.6526,-0.0581,-0.7534,0.0564,-0.0303,-0.0291,0.0039,0.1002,-0.0999,-0.0518,9.6479,0.2512,1.4659,-0.0004,-0.0004,0.0000,1.0000,0.2412,0.0063,0.0367
25273,Left,2,0.1525,0.0601,-0.9814,-0.1001,0.0175,0.0028,0.0034,-0.0706,0.0435,-0.0795,-2.7219,-1.4745,9.2281,0.0002,0.0000,0.0000,1.0000,-0.0680,-0.0369,0.2307
25274,Right,2,0.1590,-0.0432,-0.8700,0.4648,0.0030,0.0011,0.0066,-0.0429,-0.0699,-0.0266,-2.2342,2.1876,9.2735,0.0000,0.0000,0.0001,1.0000,-0.0559,0.0547,0.2318
25274,Pelvis,2,-0.6529,-0.0576,-0.7532,0.0559,-0.0449,-0.0280,-0.0002,0.0634,-0.0796,0.0080,9.7132,0.2245,1.4348,-0.0006,-0.0003,-0.0000,1.0000,0.2428,0.0056,0.0360
25274,Left,2,0.1525,0.0599,-0.9813,-0.1008,0.0184,0.0047,0.0035,-0.0855,0.0495,-0.0562,-2.7133,-1.4792,9.2546,0.0002,0.0001,0.0000,1.0000,-0.0678,-0.0370,0.2314
25275,Right,2,0.1591,-0.0428,-0.8687,0.4672,0.0023,0.0053,0.0053,-0.0380,-0.0796,-0.0276,-2.2289,2.1963,9.2716,0.0000,0.0001,0.0001,1.0000,-0.0557,0.0549,0.2318
25275,Pelvis,2,-0.6532,-0.0572,-0.7530,0.0554,-0.0473,-0.0197,-0.0033,0.0039,0.0092,0.0946,9.8075,0.1277,1.3973,-0.0006,-0.0002,-0.0000,1.0000,0.2452,0.0032,0.0350
25275,Left,2,0.1526,0.0597,-0.9813,-0.1013,0.0192,0.0039,0.0054,-0.0875,0.0437,-0.0651,-2.7100,-1.4698,9.2477,0.0002,0.0000,0.0001,1.0000,-0.0677,-0.0368,0.2312
25276,Right,2,0.1592,-0.0427,-0.8685,0.4674,0.0051,0.0057,0.0059,-0.0425,-0.0619,-0.0159,-2.2444,2.1858,9.2826,0.0001,0.0001,0.0001,1.0000,-0.0561,0.0546,0.2321
25276,Pelvis,2,-0.6533,-0.0569,-0.7530,0.0551,-0.0339,-0.0098,0.0004,-0.0054,0.0402,0.1327,9.8467,0.0953,1.3947,-0.0004,-0.0001,0.0000,1.0000,0.2462,0.0024,0.0349
25276,Left,2,0.1525,0.0597,-0.9813,-0.1014,0.0152,0.0041,0.0026,-0.0940,0.0300,-0.0700,-2.7052,-1.4532,9.2466,0.0002,0.0001,0.0000,1.0000,-0.0676,-0.0364,0.2312
25277,Right,2,0.1592,-0.0429,-0.8688,0.4670,0.0049,0.0042,0.0065,-0.0445,-0.0745,-0.0057,-2.2353,2.1946,9.2936,0.0001,0.0001,0.0001,1.0000,-0.0559,0.0548,0.2323
25277,Pelvis,2,-0.6533,-0.0566,-0.7530,0.0549,-0.0238,0.0036,0.0029,-0.0020,0.0309,0.0710,9.7853,0.1030,1.3871,-0.0003,0.0000,0.0000,1.0000,0.2446,0.0026,0.0347
25277,Left,2,0.1525,0.0597,-0.9813,-0.1013,0.0130,0.0014,0.0019,-0.0906,0.0299,-0.0611,-2.7104,-1.4544,9.2542,0.0002,0.0000,0.0000,1.0000,-0.0678,-0.0364,0.2314
25278,Right,2,0.1591,-0.0430,-0.8690,0.4666,0.0014,0.0039,0.0072,-0.0440,-0.0827,-0.0259,-2.2240,2.1956,9.2749,0.0000,0.0000,0.0001,1.0000,-0.0556,0.0549,0.2319
25278,Pelvis,2,-0.6532,-0.0564,-0.7531,0.0548,-0.0198,0.0103,0.0023,0.0699,0.0203,-0.0501,9.6552,0.1220,1.4404,-0.0002,0.0001,0.0000,1.0000,0.2414,0.0031,0.0360
25278,Left,2,0.1524,0.0597,-0.9813,-0.1014,0.0112,-0.0003,-0.0003,-0.1037,0.0262,-0.0781,-2.6930,-1.4459,9.2429,0.0001,-0.0000,-0.0000,1.0000,-0.0673,-0.0362,0.2311
25279,Right,2,0.1592,-0.0427,-0.8683,0.4679,0.0008,0.0043,0.0060,-0.0321,-0.0794,-0.0181,-2.2349,2.2046,9.2783,0.0000,0.0001,0.0001,1.0000,-0.0559,0.0551,0.2320
25279,Pelvis,2,-0.6532,-0.0562,-0.7531,0.0547,-0.0146,0.0026,0.0044,0.0329,0.0483,-0.0920,9.6185,0.0867,1.4041,-0.0002,0.0000,0.0001,1.0000,0.2405,0.0022,0.0351
25279,Left,2,0.1523,0.0596,-0.9813,-0.1019,0.0138,-0.0036,0.0006,-0.1066,0.0363,-0.0813,-2.6854,-1.4544,9.2405,0.0002,-0.0000,0.0000,1.0000,-0.0671,-0.0364,0.2310
25280,Right,2,0.1592,-0.0426,-0.8681,0.4681,-0.0000,0.0055,0.0052,-0.0477,-0.0736,-0.0343,-2.2281,2.1850,9.2674,-0.0000,0.0001,0.0001,1.0000,-0.0557,0.0546,0.2317
25280,Pelvis,2,-0.6531,-0.0561,-0.7532,0.0547,-0.0067,0.0082,0.0050,-0.0385,0.0491,0.0199,9.7392,0.0749,1.3512,-0.0001,0.0001,0.0001,1.0000,0.2435,0.0019,0.0338
25280,Left,2,0.1523,0.0595,-0.9812,-0.1024,0.0107,-0.0004,0.0022,-0.0940,0.0154,-0.0789,-2.7008,-1.4364,9.2412,0.0001,-0.0000,0.0000,1.0000,-0.0675,-0.0359,0.2310
25281,Right,2,0.1593,-0.0426,-0.8680,0.4684,0.0008,0.0051,0.0054,-0.0360,-0.0700,-0.0265,-2.2394,2.1937,9.2708,0.0000,0.0001,0.0001,1.0000,-0.0560,0.0548,0.2318
25281,Pelvis,2,-0.6531,-0.0559,-0.7533,0.0546,-0.0101,0.0090,0.0079,-0.0501,-0.0029,0.0365,9.7575,0.1230,1.3361,-0.0001,0.0001,0.0001,1.0000,0.2439,0.0031,0.0334
25281,Left,2,0.1522,0.0596,-0.9813,-0.1019,0.0110,0.0006,0.0013,-0.0980,0.0408,-0.0763,-2.6910,-1.4613,9.2430,0.0001,0.0000,0.0000,1.0000,-0.0673,-0.0366,0.2311
25282,Right,2,0.1592,-0.0428,-0.8686,0.4673,0.0023,0.0038,0.0051,-0.0268,-0.0740,-0.0485,-2.2356,2.1987,9.2474,0.0000,0.0000,0.0001,1.0000,-0.0559,0.0550,0.2312
25282,Pelvis,2,-0.6530,-0.0557,-0.7534,0.0545,-0.0166,0.0141,0.0030,-0.0481,-0.0009,0.0657,9.7858,0.1203,1.3449,-0.0002,0.0002,0.0000,1.0000,0.2447,0.0030,0.0336
25282,Left,2,0.1522,0.0596,-0.9813,-0.1020,0.0109,0.0026,0.0032,-0.1028,0.0319,-0.0940,-2.6825,-1.4492,9.2286,0.0001,0.0000,0.0000,1.0000,-0.0671,-0.0363,0.2307
25283,Right,2,0.1592,-0.0429,-0.8688,0.4669,0.0030,0.0052,0.0041,-0.0451,-0.0727,-0.0343,-2.2306,2.1869,9.2664,0.0000,0.0001,0.0001,1.0000,-0.0558,0.0547,0.2317
25283,Pelvis,2,-0.6529,-0.0555,-0.7534,0.0544,-0.0173,0.0060,0.0035,-0.0358,0.0207,0.0214,9.7397,0.0990,1.3564,-0.0002,0.0001,0.0000,1.0000,0.2435,0.0025,0.0339
25283,Left,2,0.1522,0.0597,-0.9813,-0.1014,0.0111,0.0073,0.0027,-0.0966,0.0343,-0.0762,-2.6927,-1.4559,9.2433,0.0001,0.0001,0.0000,1.0000,-0.0673,-0.0364,0.2311
25284,Right,2,0.1592,-0.0429,-0.8687,0.4670,0.0041,0.0045,0.0063,-0.0337,-0.0774,-0.0467,-2.2299,2.1963,9.2512,0.0001,0.0001,0.0001,1.0000,-0.0557,0.0549,0.2313
25284,Pelvis,2,-0.6529,-0.0553,-0.7535,0.0542,-0.0151,0.0046,0.0050,-0.0505,0.0012,-0.0289,9.6920,0.1143,1.3330,-0.0002,0.0001,0.0001,1.0000,0.2423,0.0029,0.0333
25284,Left,2,0.1521,0.0598,-0.9814,-0.1009,0.0107,0.0058,0.0035,-0.1078,0.0490,-0.0786,-2.6786,-1.4683,9.2432,0.0001,0.0001,0.0000,1.0000,-0.0669,-0.0367,0.2311
25285,Right,2,0.1593,-0.0426,-0.8681,0.4682,0.0018,0.0048,0.0048,-0.0322,-0.0693,-0.0265,-2.2426,2.1974,9.2692,0.0000,0.0001,0.0001,1.0000,-0.0561,0.0549,0.2317
25285,Pelvis,2,-0.6530,-0.0550,-0.7534,0.0541,-0.0201,-0.0052,0.0089,-0.0002,-0.0107,-0.0769,9.6376,0.1310,1.3735,-0.0003,-0.0001,0.0001,1.0000,0.2409,0.0033,0.0344
25285,Left,2,0.1522,0.0598,-0.9814,-0.1008,0.0136,0.0067,0.0057,-0.1060,0.0300,-0.0843,-2.6829,-1.4490,9.2388,0.0002,0.0001,0.0001,1.0000,-0.0671,-0.0363,0.2310
25286,Right,2,0.1592,-0.0429,-0.8688,0.4669,0.0008,0.0051,0.0054,-0.0402,-0.0725,-0.0248,-2.2362,2.1935,9.2736,0.0000,0.0001,0.0001,1.0000,-0.0559,0.0548,0.2318
25286,Pelvis,2,-0.6532,-0.0548,-0.7533,0.0540,-0.0217,-0.0206,0.0101,0.0044,-0.0127,-0.0639,9.6503,0.1310,1.3760,-0.0003,-0.0003,0.0001,1.0000,0.2412,0.0033,0.0345
25286,Left,2,0.1522,0.0597,-0.9814,-0.1010,0.0145,0.0063,0.0045,-0.0745,0.0380,-0.0759,-2.7134,-1.4629,9.2363,0.0002,0.0001,0.0001,1.0000,-0.0678,-0.0366,0.2309
25287,Right,2,0.1592,-0.0430,-0.8692,0.4661,0.0020,0.0055,0.0047,-0.0217,-0.0644,-0.0283,-2.2517,2.2030,9.2637,0.0000,0.0001,0.0001,1.0000,-0.0563,0.0551,0.2316
25287,Pelvis,2,-0.6535,-0.0545,-0.7530,0.0540,-0.0166,-0.0295,0.0115,-0.0053,0.0284,-0.0167,9.6989,0.0864,1.3735,-0.0002,-0.0004,0.0001,1.0000,0.2425,0.0022,0.0344
25287,Left,2,0.1522,0.0597,-0.9814,-0.1008,0.0150,0.0050,0.0042,-0.1029,0.0426,-0.0696,-2.6878,-1.4625,9.2508,0.0002,0.0001,0.0001,1.0000,-0.0672,-0.0366,0.2313
25288,Right,2,0.1592,-0.0432,-0.8696,0.4654,0.0022,0.0021,0.0072,-0.0351,-0.0889,-0.0460,-2.2201,2.2025,9.2530,0.0000,0.0000,0.0001,1.0000,-0.0555,0.0551,0.2313
25288,Pelvis,2,-0.6539,-0.0543,-0.7527,0.0539,-0.0114,-0.0362,0.0148,-0.0262,0.0428,0.0295,9.7486,0.0662,1.3536,-0.0001,-0.0005,0.0002,1.0000,0.2437,0.0017,0.0339
25288,Left,2,0.1522,0.0595,-0.9813,-0.1013,0.0155,0.0063,0.0060,-0.1012,0.0241,-0.0753,-2.6920,-1.4425,9.2466,0.0002,0.0001,0.0001,1.0000,-0.0673,-0.0361,0.2312
25289,Right,2,0.1592,-0.0433,-0.8699,0.4647,0.0007,0.0075,0.0050,-0.0376,-0.0713,-0.0247,-2.2385,2.1956,9.2725,0.0000,0.0001,0.0001,1.0000,-0.0559,0.0549,0.2318
25289,Pelvis,2,-0.6542,-0.0541,-0.7525,0.0540,-0.0081,-0.0284,0.0151,-0.0260,0.0429,0.0295,9.7497,0.0622,1.3457,-0.0001,-0.0004,0.0002,1.0000,0.2437,0.0016,0.0337
25289,Left,2,0.1522,0.0594,-0.9813,-0.1017,0.0152,0.0057,0.0038,-0.0978,0.0242,-0.0664,-2.6980,-1.4433,9.2540,0.0002,0.0001,0.0000,1.0000,-0.0674,-0.0361,0.2313
25290,Right,2,0.1593,-0.0429,-0.8688,0.4669,0.0022,0.0062,0.0047,-0.0383,-0.0713,-0.0343,-2.2367,2.1923,9.2636,0.0000,0.0001,0.0001,1.0000,-0.0559,0.0548,0.2316
25290,Pelvis,2,-0.6545,-0.0539,-0.7522,0.0540,-0.0101,-0.0281,0.0194,0.0415,-0.0089,0.0056,9.7183,0.1191,1.3937,-0.0001,-0.0004,0.0002,1.0000,0.2429,0.0030,0.0349
25290,Left,2,0.1522,0.0595,-0.9814,-0.1010,0.0157,0.0060,0.0047,-0.0981,0.0365,-0.0606,-2.6968,-1.4556,9.2586,0.0002,0.0001,0.0001,1.0000,-0.0674,-0.0364,0.2315
25291,Right,2,0.1593,-0.0430,-0.8691,0.4662,0.0005,0.0053,0.0049,-0.0286,-0.0670,-0.0360,-2.2451,2.1973,9.2585,0.0000,0.0001,0.0001,1.0000,-0.0561,0.0549,0.2315
25291,Pelvis,2,-0.6548,-0.0536,-0.7520,0.0540,-0.0118,-0.0287,0.0173,0.0594,-0.0234,0.0120,9.7233,0.1316,1.4028,-0.0001,-0.0004,0.0002,1.0000,0.2431,0.0033,0.0352
25291,Left,2,0.1522,0.0595,-0.9814,-0.1006,0.0134,0.0043,0.0050,-0.0929,0.0409,-0.0645,-2.6996,-1.4596,9.2530,0.0002,0.0001,0.0001,1.0000,-0.0675,-0.0365,0.2313
25292,Right,2,0.1593,-0.0428,-0.8688,0.4669,0.0018,0.0053,0.0071,-0.0420,-0.0614,-0.0427,-2.2414,2.1818,9.2560,0.0000,0.0001,0.0001,1.0000,-0.0560,0.0545,0.2314
25292,Pelvis,2,-0.6550,-0.0534,-0.7518,0.0540,-0.0200,-0.0205,0.0136,0.0680,-0.0278,0.0379,9.7488,0.1333,1.4080,-0.0002,-0.0003,0.0002,1.0000,0.2437,0.0034,0.0353
25292,Left,2,0.1521,0.0595,-0.9814,-0.1004,0.0149,0.0032,0.0036,-0.0896,0.0406,-0.0556,-2.7051,-1.4607,9.2606,0.0002,0.0000,0.0000,1.0000,-0.0676,-0.0366,0.2315
25293,Right,2,0.1593,-0.0429,-0.8689,0.4666,0.0040,0.0015,0.0068,-0.0427,-0.0525,-0.0321,-2.2506,2.1790,9.2656,0.0001,0.0000,0.0001,1.0000,-0.0563,0.0545,0.2316
25293,Pelvis,2,-0.6552,-0.0530,-0.7517,0.0538,-0.0237,-0.0198,0.0084,0.0170,-0.0123,0.0204,9.7390,0.1071,1.3530,-0.0003,-0.0002,0.0001,1.0000,0.2435,0.0027,0.0339
25293,Left,2,0.1521,0.0596,-0.9815,-0.1000,0.0158,0.0050,0.0037,-0.0943,0.0314,-0.0734,-2.6972,-1.4476,9.2462,0.0002,0.0001,0.0000,1.0000,-0.0674,-0.0362,0.2312
25294,Right,2,0.1593,-0.0428,-0.8685,0.4675,0.0043,0.0006,0.0065,-0.0305,-0.0795,-0.0353,-2.2332,2.2036,9.2607,0.0001,0.0000,0.0001,1.0000,-0.0558,0.0551,0.2315
25294,Pelvis,2,-0.6554,-0.0527,-0.7515,0.0535,-0.0344,-0.0204,0.0069,0.0292,-0.0468,-0.0339,9.6847,0.1399,1.3474,-0.0004,-0.0003,0.0001,1.0000,0.2421,0.0035,0.0337
25294,Left,2,0.1520,0.0595,-0.9815,-0.1000,0.0153,0.0029,0.0043,-0.0918,0.0331,-0.0862,-2.6952,-1.4468,9.2334,0.0002,0.0000,0.0001,1.0000,-0.0674,-0.0362,0.2308
25295,Right,2,0.1593,-0.0429,-0.8685,0.4674,0.0062,0.0030,0.0056,-0.0394,-0.0694,-0.0629,-2.2299,2.1856,9.2367,0.0001,0.0000,0.0001,1.0000,-0.0557,0.0546,0.2309
25295,Pelvis,2,-0.6556,-0.0522,-0.7514,0.0531,-0.0445,-0.0173,0.0042,0.0268,-0.0425,-0.0176,9.7017,0.1331,1.3433,-0.0006,-0.0002,0.0001,1.0000,0.2425,0.0034,0.0336
25295,Left,2,0.1521,0.0594,-0.9815,-0.1003,0.0137,0.0057,0.0048,-0.1022,0.0325,-0.0943,-2.6834,-1.4422,9.2292,0.0002,0.0001,0.0001,1.0000,-0.0671,-0.0361,0.2307
25296,Right,2,0.1593,-0.0430,-0.8687,0.4670,0.0061,0.0052,0.0067,-0.0302,-0.0702,-0.0247,-2.2427,2.2031,9.2697,0.0001,0.0001,0.0001,1.0000,-0.0561,0.0551,0.2317
25296,Pelvis,2,-0.6559,-0.0517,-0.7513,0.0527,-0.0471,-0.0198,0.0061,0.0575,-0.0180,0.0282,9.7434,0.1113,1.3787,-0.0006,-0.0002,0.0001,1.0000,0.2436,0.0028,0.0345
25296,Left,2,0.1522,0.0592,-0.9814,-0.1011,0.0151,0.0072,0.0056,-0.0915,0.0435,-0.0804,-2.6954,-1.4556,9.2382,0.0002,0.0001,0.0001,1.0000,-0.0674,-0.0364,0.2310
25297,Right,2,0.1593,-0.0430,-0.8686,0.4672,0.0029,0.0035,0.0062,-0.0353,-0.0691,-0.0533,-2.2342,2.1927,9.2440,0.0000,0.0000,0.0001,1.0000,-0.0558,0.0548,0.2311
25297,Pelvis,2,-0.6561,-0.0512,-0.7512,0.0523,-0.0422,-0.0175,0.0017,0.0080,0.0093,0.0492,9.7712,0.0750,1.3325,-0.0005,-0.0002,0.0000,1.0000,0.2443,0.0019,0.0334
25297,Left,2,0.1522,0.0591,-0.9813,-0.1017,0.0139,0.0048,0.0032,-0.0800,0.0386,-0.0723,-2.7100,-1.4529,9.2428,0.0002,0.0001,0.0000,1.0000,-0.0677,-0.0364,0.2311
25298,Right,2,0.1594,-0.0430,-0.8685,0.4674,0.0043,0.0039,0.0046,-0.0411,-0.0732,-0.0420,-2.2306,2.1933,9.2567,0.0001,0.0000,0.0001,1.0000,-0.0558,0.0548,0.2314
25298,Pelvis,2,-0.6562,-0.0509,-0.7511,0.0520,-0.0384,-0.0117,0.0014,0.0220,-0.0133,0.0333,9.7544,0.0976,1.3369,-0.0005,-0.0001,0.0000,1.0000,0.2439,0.0025,0.0335
25298,Left,2,0.1521,0.0591,-0.9814,-0.1012,0.0144,0.0051,0.0041,-0.0947,0.0297,-0.0764,-2.6968,-1.4407,9.2443,0.0002,0.0001,0.0001,1.0000,-0.0674,-0.0361,0.2311
25299,Right,2,0.1593,-0.0433,-0.8693,0.4660,0.0046,0.0044,0.0060,-0.0410,-0.0775,-0.0021,-2.2362,2.2059,9.2946,0.0001,0.0001,0.0001,1.0000,-0.0559,0.0551,0.2324
25299,Pelvis,2,-0.6562,-0.0506,-0.7511,0.0516,-0.0312,-0.0015,-0.0033,-0.0158,0.0103,0.0277,9.7538,0.0683,1.3009,-0.0004,-0.0000,-0.0000,1.0000,0.2438,0.0017,0.0325
25299,Left,2,0.1521,0.0592,-0.9815,-0.1004,0.0154,0.0065,0.0034,-0.0895,0.0338,-0.0803,-2.6997,-1.4448,9.2387,0.0002,0.0001,0.0000,1.0000,-0.0675,-0.0362,0.2310
25300,Right,2,0.1593,-0.0434,-0.8695,0.4656,0.0043,0.0039,0.0046,-0.0431,-0.0630,-0.0409,-2.2377,2.1882,9.2573,0.0001,0.0000,0.0001,1.0000,-0.0559,0.0547,0.2314
25300,Pelvis,2,-0.6563,-0.0504,-0.7511,0.0512,-0.0262,-0.0018,-0.0088,0.0278,-0.0054,-0.0262,9.6948,0.0905,1.3337,-0.0003,-0.0000,-0.0001,1.0000,0.2424,0.0022,0.0333
25300,Left,2,0.1521,0.0592,-0.9814,-0.1006,0.0128,0.0058,0.0027,-0.0988,0.0312,-0.0666,-2.6957,-1.4419,9.2547,0.0002,0.0001,0.0000,1.0000,-0.0674,-0.0361,0.2314
25301,Right,2,0.1593,-0.0433,-0.8690,0.4665,0.0052,0.0027,0.0055,-0.0224,-0.0559,-0.0349,-2.2557,2.2025,9.2558,0.0001,0.0000,0.0001,1.0000,-0.0564,0.0550,0.2314
25301,Pelvis,2,-0.6564,-0.0502,-0.7510,0.0509,-0.0196,-0.0098,-0.0076,0.0552,0.0158,-0.0387,9.6787,0.0749,1.3604,-0.0002,-0.0001,-0.0001,1.0000,0.2420,0.0019,0.0340
25301,Left,2,0.1521,0.0592,-0.9815,-0.1005,0.0129,0.0034,0.0039,-0.0853,0.0307,-0.0714,-2.7069,-1.4427,9.2462,0.0002,0.0000,0.0000,1.0000,-0.0677,-0.0361,0.2312
25302,Right,2,0.1594,-0.0432,-0.8687,0.4671,0.0037,0.0016,0.0062,-0.0312,-0.0731,-0.0134,-2.2417,2.2105,9.2802,0.0000,0.0000,0.0001,1.0000,-0.0560,0.0552,0.2320
25302,Pelvis,2,-0.6565,-0.0500,-0.7510,0.0506,-0.0136,-0.0100,-0.0047,0.0366,0.0469,0.0096,9.7291,0.0433,1.3505,-0.0002,-0.0001,-0.0001,1.0000,0.2432,0.0011,0.0338
25302,Left,2,0.1521,0.0591,-0.9814,-0.1009,0.0122,0.0059,0.0026,-0.0729,0.0462,-0.0702,-2.7154,-1.4598,9.2422,0.0002,0.0001,0.0000,1.0000,-0.0679,-0.0365,0.2311
25303,Right,2,0.1593,-0.0435,-0.8692,0.4660,0.0035,0.0016,0.0071,-0.0419,-0.0540,-0.0303,-2.2472,2.1884,9.2662,0.0000,0.0000,0.0001,1.0000,-0.0562,0.0547,0.2317
25303,Pelvis,2,-0.6566,-0.0500,-0.7509,0.0505,-0.0106,-0.0085,-0.0060,0.0433,0.0511,0.0155,9.7343,0.0412,1.3561,-0.0001,-0.0001,-0.0001,1.0000,0.2434,0.0010,0.0339
25303,Left,2,0.1521,0.0591,-0.9814,-0.1008,0.0120,0.0046,0.0027,-0.0895,0.0328,-0.0616,-2.7053,-1.4450,9.2567,0.0001,0.0001,0.0000,1.0000,-0.0676,-0.0362,0.2314
25304,Right,2,0.1593,-0.0435,-0.8694,0.4657,0.0021,0.0038,0.0060,-0.0317,-0.0721,-0.0229,-2.2390,2.2088,9.2712,0.0000,0.0000,0.0001,1.0000,-0.0560,0.0552,0.2318
25304,Pelvis,2,-0.6567,-0.0499,-0.7508,0.0502,-0.0033,-0.0114,-0.0074,0.0367,0.0475,0.0096,9.7297,0.0456,1.3458,-0.0000,-0.0001,-0.0001,1.0000,0.2432,0.0011,0.0337
25304,Left,2,0.1521,0.0593,-0.9815,-0.0998,0.0119,0.0050,0.0035,-0.0889,0.0290,-0.0616,-2.7065,-1.4420,9.2568,0.0001,0.0001,0.0000,1.0000,-0.0676,-0.0361,0.2314
25305,Right,2,0.1592,-0.0436,-0.8697,0.4651,0.0004,0.0021,0.0068,-0.0236,-0.0594,-0.0140,-2.2554,2.2102,9.2761,0.0000,0.0000,0.0001,1.0000,-0.0564,0.0552,0.2319
25305,Pelvis,2,-0.6568,-0.0500,-0.7507,0.0503,0.0061,-0.0077,-0.0029,0.0484,0.0540,-0.0078,9.7112,0.0420,1.3534,0.0001,-0.0001,-0.0000,1.0000,0.2428,0.0010,0.0339
25305,Left,2,0.1520,0.0593,-0.9815,-0.0999,0.0124,0.0027,0.0023,-0.0909,0.0231,-0.0705,-2.7030,-1.4344,9.2496,0.0002,0.0000,0.0000,1.0000,-0.0676,-0.0359,0.2312
25306,Right,2,0.1592,-0.0436,-0.8695,0.4655,-0.0005,0.0024,0.0074,-0.0393,-0.0536,-0.0303,-2.2479,2.1904,9.2655,-0.0000,0.0000,0.0001,1.0000,-0.0562,0.0548,0.2316
25306,Pelvis,2,-0.6568,-0.0501,-0.7507,0.0503,0.0042,-0.0060,-0.0001,0.0438,0.0415,0.0063,9.7262,0.0545,1.3471,0.0001,-0.0001,-0.0000,1.0000,0.2432,0.0014,0.0337
25306,Left,2,0.1520,0.0593,-0.9815,-0.0997,0.0108,0.0038,0.0016,-0.0788,0.0382,-0.0693,-2.7111,-1.4517,9.2457,0.0001,0.0000,0.0000,1.0000,-0.0678,-0.0363,0.2311
25307,Right,2,0.1592,-0.0435,-0.8693,0.4659,0.0023,0.0006,0.0070,-0.0414,-0.0667,-0.0200,-2.2379,2.1982,9.2770,0.0000,0.0000,0.0001,1.0000,-0.0559,0.0549,0.2319
25307,Pelvis,2,-0.6569,-0.0501,-0.7506,0.0503,0.0039,-0.0036,0.0015,0.0130,0.0485,-0.0119,9.7124,0.0433,1.3141,0.0000,-0.0000,0.0000,1.0000,0.2428,0.0011,0.0329
25307,Left,2,0.1520,0.0593,-0.9815,-0.0999,0.0121,0.0002,0.0021,-0.0852,0.0246,-0.0743,-2.7058,-1.4366,9.2444,0.0002,0.0000,0.0000,1.0000,-0.0676,-0.0360,0.2311
25308,Right,2,0.1591,-0.0437,-0.8697,0.4651,-0.0003,0.0022,0.0080,-0.0426,-0.0659,-0.0296,-2.2347,2.1949,9.2684,-0.0000,0.0000,0.0001,1.0000,-0.0559,0.0549,0.2317
25308,Pelvis,2,-0.6569,-0.0501,-0.7506,0.0503,0.0045,-0.0032,0.0006,-0.0005,0.0156,-0.0059,9.7205,0.0743,1.2958,0.0001,-0.0000,0.0000,1.0000,0.2430,0.0019,0.0324
25308,Left,2,0.1519,0.0593,-0.9816,-0.0997,0.0128,0.0006,0.0024,-0.0972,0.0188,-0.0696,-2.6960,-1.4295,9.2535,0.0002,0.0000,0.0000,1.0000,-0.0674,-0.0358,0.2313
25309,Right,2,0.1591,-0.0437,-0.8697,0.4652,0.0006,0.0010,0.0089,-0.0225,-0.0669,-0.0437,-2.2403,2.2082,9.2489,0.0000,0.0000,0.0001,1.0000,-0.0560,0.0552,0.2312
25309,Pelvis,2,-0.6570,-0.0502,-0.7506,0.0503,0.0062,-0.0029,0.0002,0.0014,0.0176,0.0233,9.7493,0.0732,1.3008,0.0001,-0.0000,0.0000,1.0000,0.2437,0.0018,0.0325
25309,Left,2,0.1518,0.0593,-0.9816,-0.0998,0.0112,0.0007,0.0007,-0.0867,0.0293,-0.0556,-2.7066,-1.4436,9.2628,0.0001,0.0000,0.0000,1.0000,-0.0677,-0.0361,0.2316
25310,Right,2,0.1591,-0.0435,-0.8693,0.4660,0.0004,0.0036,0.0070,-0.0474,-0.0699,-0.0182,-2.2305,2.1955,9.2813,0.0000,0.0000,0.0001,1.0000,-0.0558,0.0549,0.2320
25310,Pelvis,2,-0.6570,-0.0502,-0.7505,0.0503,0.0079,-0.0064,0.0028,-0.0077,0.0178,0.0336,9.7609,0.0720,1.2920,0.0001,-0.0001,0.0000,1.0000,0.2440,0.0018,0.0323
25310,Left,2,0.1518,0.0593,-0.9815,-0.1001,0.0110,-0.0000,0.0011,-0.0985,0.0237,-0.0509,-2.6967,-1.4369,9.2718,0.0001,-0.0000,0.0000,1.0000,-0.0674,-0.0360,0.2318
25311,Right,2,0.1591,-0.0434,-0.8689,0.4667,0.0006,0.0043,0.0069,-0.0322,-0.0533,-0.0207,-2.2513,2.1972,9.2731,0.0000,0.0001,0.0001,1.0000,-0.0563,0.0549,0.2318
25311,Pelvis,2,-0.6571,-0.0503,-0.7504,0.0504,0.0155,-0.0128,0.0022,0.0071,0.0458,-0.0178,9.7081,0.0459,1.3012,0.0002,-0.0002,0.0000,1.0000,0.2427,0.0011,0.0326
25311,Left,2,0.1517,0.0594,-0.9816,-0.0997,0.0117,-0.0000,0.0006,-0.0834,0.0278,-0.0684,-2.7036,-1.4415,9.2505,0.0001,-0.0000,0.0000,1.0000,-0.0676,-0.0361,0.2313
25312,Right,2,0.1591,-0.0434,-0.8691,0.4662,-0.0013,0.0027,0.0072,-0.0329,-0.0749,-0.0211,-2.2329,2.2085,9.2746,-0.0000,0.0000,0.0001,1.0000,-0.0558,0.0552,0.2319
25312,Pelvis,2,-0.6573,-0.0505,-0.7503,0.0506,0.0240,-0.0155,0.0024,0.0164,0.0461,-0.0281,9.6971,0.0471,1.3054,0.0003,-0.0002,0.0000,1.0000,0.2424,0.0012,0.0327
25312,Left,2,0.1516,0.0594,-0.9816,-0.0996,0.0123,0.0009,0.0017,-0.0874,0.0396,-0.0931,-2.6891,-1.4487,9.2277,0.0002,0.0000,0.0000,1.0000,-0.0672,-0.0363,0.2307
25313,Right,2,0.1591,-0.0433,-0.8689,0.4668,0.0004,0.0014,0.0060,-0.0572,-0.0728,-0.0355,-2.2182,2.1842,9.2688,0.0000,0.0000,0.0001,1.0000,-0.0555,0.0546,0.2317
25313,Pelvis,2,-0.6574,-0.0507,-0.7501,0.0508,0.0220,-0.0131,0.0054,-0.0070,-0.0020,0.0152,9.7440,0.0918,1.2775,0.0003,-0.0002,0.0001,1.0000,0.2436,0.0023,0.0320
25313,Left,2,0.1516,0.0595,-0.9817,-0.0991,0.0097,0.0029,0.0030,-0.0856,0.0342,-0.0714,-2.6971,-1.4474,9.2484,0.0001,0.0000,0.0000,1.0000,-0.0674,-0.0362,0.2312
25314,Right,2,0.1590,-0.0434,-0.8690,0.4665,0.0020,0.0014,0.0073,-0.0304,-0.0695,-0.0610,-2.2281,2.1981,9.2361,0.0000,0.0000,0.0001,1.0000,-0.0557,0.0549,0.2309
25314,Pelvis,2,-0.6574,-0.0508,-0.7501,0.0509,0.0212,-0.0030,0.0034,-0.0232,-0.0207,0.0466,9.7778,0.1082,1.2608,0.0003,-0.0000,0.0000,1.0000,0.2444,0.0027,0.0315
25314,Left,2,0.1516,0.0594,-0.9816,-0.1000,0.0087,0.0011,0.0029,-0.0812,0.0187,-0.0683,-2.7049,-1.4336,9.2514,0.0001,0.0000,0.0000,1.0000,-0.0676,-0.0359,0.2313
25315,Right,2,0.1590,-0.0436,-0.8696,0.4654,0.0016,0.0040,0.0063,-0.0301,-0.0739,-0.0211,-2.2333,2.2102,9.2741,0.0000,0.0000,0.0001,1.0000,-0.0558,0.0552,0.2319
25315,Pelvis,2,-0.6574,-0.0510,-0.7501,0.0511,0.0223,0.0006,0.0027,-0.0248,-0.0016,0.0358,9.7672,0.0891,1.2599,0.0003,0.0000,0.0000,1.0000,0.2442,0.0022,0.0315
25315,Left,2,0.1515,0.0596,-0.9817,-0.0989,0.0090,0.0031,0.0003,-0.0825,0.0327,-0.0841,-2.6952,-1.4461,9.2357,0.0001,0.0000,0.0000,1.0000,-0.0674,-0.0362,0.2309
25316,Right,2,0.1589,-0.0437,-0.8698,0.4651,0.0009,0.0034,0.0067,-0.0405,-0.0549,-0.0380,-2.2392,2.1875,9.2602,0.0000,0.0000,0.0001,1.0000,-0.0560,0.0547,0.2315
25316,Pelvis,2,-0.6575,-0.0511,-0.7500,0.0512,0.0226,-0.0037,0.0001,0.0301,0.0199,-0.0077,9.7167,0.0761,1.3105,0.0003,-0.0000,0.0000,1.0000,0.2429,0.0019,0.0328
25316,Left,2,0.1514,0.0597,-0.9817,-0.0990,0.0082,0.0008,0.0021,-0.0781,0.0168,-0.0811,-2.7028,-1.4325,9.2386,0.0001,0.0000,0.0000,1.0000,-0.0676,-0.0358,0.2310
25317,Right,2,0.1590,-0.0436,-0.8696,0.4655,0.0001,0.0053,0.0066,-0.0426,-0.0679,-0.0277,-2.2299,2.1952,9.2715,0.0000,0.0001,0.0001,1.0000,-0.0557,0.0549,0.2318
25317,Pelvis,2,-0.6575,-0.0513,-0.7500,0.0513,0.0219,-0.0044,0.0001,0.0436,0.0077,-0.0144,9.7087,0.0911,1.3200,0.0003,-0.0001,0.0000,1.0000,0.2427,0.0023,0.0330
25317,Left,2,0.1514,0.0598,-0.9817,-0.0986,0.0092,0.0015,0.0012,-0.0785,0.0291,-0.0752,-2.7005,-1.4465,9.2434,0.0001,0.0000,0.0000,1.0000,-0.0675,-0.0362,0.2311
25318,Right,2,0.1590,-0.0435,-0.8693,0.4660,0.0005,0.0027,0.0076,-0.0307,-0.0645,-0.0200,-2.2407,2.2041,9.2749,0.0000,0.0000,0.0001,1.0000,-0.0560,0.0551,0.2319
25318,Pelvis,2,-0.6575,-0.0514,-0.7499,0.0514,0.0170,-0.0046,0.0016,0.0234,-0.0397,-0.0235,9.7029,0.1356,1.2908,0.0002,-0.0001,0.0000,1.0000,0.2426,0.0034,0.0323
25318,Left,2,0.1513,0.0598,-0.9817,-0.0988,0.0107,0.0026,0.0012,-0.0817,0.0391,-0.0782,-2.6939,-1.4556,9.2409,0.0001,0.0000,0.0000,1.0000,-0.0673,-0.0364,0.2310
25319,Right,2,0.1589,-0.0437,-0.8696,0.4654,0.0002,0.0014,0.0069,-0.0252,-0.0596,-0.0408,-2.2419,2.2012,9.2532,0.0000,0.0000,0.0001,1.0000,-0.0560,0.0550,0.2313
25319,Pelvis,2,-0.6576,-0.0515,-0.7498,0.0515,0.0088,-0.0084,0.0039,0.0125,-0.0206,-0.0239,9.7039,0.1151,1.2810,0.0001,-0.0001,0.0000,1.0000,0.2426,0.0029,0.0321
25319,Left,2,0.1513,0.0598,-0.9817,-0.0989,0.0117,0.0010,0.0016,-0.0998,0.0207,-0.0567,-2.6860,-1.4378,9.2686,0.0001,0.0000,0.0000,1.0000,-0.0671,-0.0360,0.2317
25320,Right,2,0.1589,-0.0435,-0.8692,0.4662,0.0032,0.0018,0.0066,-0.0298,-0.0504,-0.0493,-2.2447,2.1903,9.2462,0.0000,0.0000,0.0001,1.0000,-0.0561,0.0547,0.2312
25320,Pelvis,2,-0.6577,-0.0515,-0.7497,0.0516,0.0074,-0.0121,0.0052,0.0060,-0.0141,-0.0206,9.7083,0.1071,1.2733,0.0001,-0.0002,0.0001,1.0000,0.2427,0.0027,0.0319
25320,Left,2,0.1512,0.0597,-0.9817,-0.0990,0.0136,0.0018,0.0023,-0.0856,0.0410,-0.0683,-2.6907,-1.4581,9.2518,0.0002,0.0000,0.0000,1.0000,-0.0673,-0.0365,0.2313
25321,Right,2,0.1589,-0.0434,-0.8689,0.4668,0.0014,0.0018,0.0061,-0.0257,-0.0646,-0.0104,-2.2439,2.2102,9.2827,0.0000,0.0000,0.0001,1.0000,-0.0561,0.0552,0.2321
25321,Pelvis,2,-0.6579,-0.0515,-0.7496,0.0516,0.0015,-0.0166,0.0025,0.0296,-0.0294,0.0278,9.7540,0.1255,1.2970,0.0000,-0.0002,0.0000,1.0000,0.2438,0.0031,0.0325
25321,Left,2,0.1512,0.0596,-0.9817,-0.0995,0.0132,0.0021,0.0016,-0.0832,0.0431,-0.0811,-2.6881,-1.4581,9.2391,0.0002,0.0000,0.0000,1.0000,-0.0672,-0.0365,0.2310
25322,Right,2,0.1589,-0.0434,-0.8687,0.4671,0.0027,-0.0006,0.0096,-0.0320,-0.0466,-0.0082,-2.2552,2.1957,9.2857,0.0000,-0.0000,0.0001,1.0000,-0.0564,0.0549,0.2321
25322,Pelvis,2,-0.6581,-0.0515,-0.7493,0.0516,-0.0011,-0.0257,0.0036,0.0483,-0.0393,-0.0020,9.7228,0.1372,1.3045,-0.0000,-0.0003,0.0000,1.0000,0.2431,0.0034,0.0327
25322,Left,2,0.1511,0.0597,-0.9817,-0.0989,0.0147,-0.0002,0.0019,-0.0722,0.0303,-0.0385,-2.7121,-1.4538,9.2775,0.0002,-0.0000,0.0000,1.0000,-0.0678,-0.0364,0.2319
25323,Right,2,0.1589,-0.0431,-0.8680,0.4685,-0.0043,-0.0024,0.0092,-0.0382,-0.0290,-0.0060,-2.2659,2.1806,9.2889,-0.0001,-0.0000,0.0001,1.0000,-0.0567,0.0545,0.2322
25323,Pelvis,2,-0.6585,-0.0515,-0.7491,0.0516,0.0045,-0.0324,0.0002,0.0352,0.0089,-0.0040,9.7230,0.0873,1.2914,0.0001,-0.0004,0.0000,1.0000,0.2431,0.0022,0.0324
25323,Left,2,0.1510,0.0596,-0.9817,-0.0993,0.0157,-0.0056,-0.0002,-0.0880,0.0240,-0.0644,-2.6894,-1.4402,9.2591,0.0002,-0.0001,-0.0000,1.0000,-0.0673,-0.0360,0.2315
25324,Right,2,0.1588,-0.0431,-0.8678,0.4689,-0.0038,-0.0028,0.0104,-0.0471,-0.0851,-0.0157,-2.2110,2.2013,9.2875,-0.0000,-0.0000,0.0001,1.0000,-0.0553,0.0550,0.2322
25324,Pelvis,2,-0.6587,-0.0517,-0.7488,0.0516,0.0120,-0.0284,-0.0010,-0.0095,0.0135,0.0114,9.7450,0.0770,1.2424,0.0001,-0.0004,-0.0000,1.0000,0.2436,0.0019,0.0311
25324,Left,2,0.1509,0.0595,-0.9817,-0.0997,0.0150,-0.0015,-0.0004,-0.0719,0.0266,-0.0602,-2.7031,-1.4453,9.2586,0.0002,-0.0000,-0.0000,1.0000,-0.0676,-0.0362,0.2315
25325,Right,2,0.1587,-0.0430,-0.8676,0.4692,-0.0043,-0.0024,0.0092,-0.0223,-0.0816,-0.0507,-2.2166,2.2102,9.2468,-0.0001,-0.0000,0.0001,1.0000,-0.0554,0.0553,0.2312
25325,Pelvis,2,-0.6590,-0.0518,-0.7486,0.0516,0.0150,-0.0259,-0.0011,-0.0501,-0.0047,0.0214,9.7610,0.0903,1.1944,0.0002,-0.0003,-0.0000,1.0000,0.2440,0.0022,0.0299
25325,Left,2,0.1509,0.0594,-0.9817,-0.1001,0.0154,-0.0030,-0.0001,-0.0975,0.0206,-0.0724,-2.6750,-1.4323,9.2561,0.0002,-0.0000,-0.0000,1.0000,-0.0669,-0.0359,0.2314
25326,Right,2,0.1586,-0.0430,-0.8678,0.4689,-0.0067,-0.0013,0.0071,-0.0376,-0.0672,-0.0468,-2.2201,2.1895,9.2551,-0.0001,-0.0000,0.0001,1.0000,-0.0555,0.0548,0.2314
25326,Pelvis,2,-0.6592,-0.0519,-0.7484,0.0516,0.0128,-0.0279,0.0013,-0.0581,-0.0202,-0.0229,9.7190,0.1048,1.1718,0.0002,-0.0003,0.0000,1.0000,0.2430,0.0026,0.0294
25326,Left,2,0.1507,0.0596,-0.9818,-0.0990,0.0151,-0.0043,0.0001,-0.0852,0.0351,-0.0712,-2.6815,-1.4489,9.2529,0.0002,-0.0001,0.0000,1.0000,-0.0670,-0.0363,0.2313
25327,Right,2,0.1584,-0.0430,-0.8681,0.4685,-0.0061,-0.0005,0.0052,-0.0383,-0.0582,-0.0361,-2.2284,2.1846,9.2654,-0.0001,-0.0000,0.0001,1.0000,-0.0557,0.0546,0.2316
25327,Pelvis,2,-0.6595,-0.0520,-0.7481,0.0517,0.0153,-0.0274,0.0023,-0.0308,0.0214,-0.0171,9.7219,0.0679,1.1984,0.0002,-0.0003,0.0000,1.0000,0.2430,0.0017,0.0300
25327,Left,2,0.1505,0.0597,-0.9819,-0.0985,0.0134,-0.0027,0.0002,-0.0719,0.0343,-0.0759,-2.6907,-1.4497,9.2450,0.0002,-0.0000,0.0000,1.0000,-0.0673,-0.0363,0.2311
25328,Right,2,0.1583,-0.0430,-0.8683,0.4682,-0.0068,0.0003,0.0073,-0.0425,-0.0705,-0.0354,-2.2150,2.1867,9.2690,-0.0001,0.0000,0.0001,1.0000,-0.0554,0.0547,0.2317
25328,Pelvis,2,-0.6597,-0.0522,-0.7479,0.0519,0.0240,-0.0233,0.0042,-0.0690,0.0197,-0.0049,9.7395,0.0641,1.1558,0.0003,-0.0003,0.0001,1.0000,0.2435,0.0016,0.0290
25328,Left,2,0.1505,0.0596,-0.9818,-0.0991,0.0124,-0.0035,0.0010,-0.0884,0.0211,-0.0673,-2.6786,-1.4348,9.2600,0.0002,-0.0000,0.0000,1.0000,-0.0670,-0.0359,0.2315
25329,Right,2,0.1582,-0.0432,-0.8686,0.4676,-0.0019,-0.0024,0.0070,-0.0329,-0.0663,-0.0372,-2.2216,2.1906,9.2645,-0.0000,-0.0000,0.0001,1.0000,-0.0556,0.0548,0.2316
25329,Pelvis,2,-0.6599,-0.0523,-0.7477,0.0520,0.0220,-0.0217,0.0022,-0.0476,-0.0223,0.0322,9.7747,0.1094,1.1696,0.0003,-0.0003,0.0000,1.0000,0.2444,0.0027,0.0293
25329,Left,2,0.1504,0.0595,-0.9818,-0.0999,0.0127,-0.0038,-0.0003,-0.0897,0.0364,-0.0830,-2.6675,-1.4466,9.2449,0.0002,-0.0000,-0.0000,1.0000,-0.0667,-0.0362,0.2311
25330,Right,2,0.1582,-0.0430,-0.8683,0.4681,-0.0026,0.0017,0.0071,-0.0318,-0.0662,-0.0372,-2.2212,2.1904,9.2647,-0.0000,0.0000,0.0001,1.0000,-0.0555,0.0548,0.2316
25330,Pelvis,2,-0.6601,-0.0525,-0.7475,0.0522,0.0223,-0.0265,0.0009,-0.0748,-0.0428,0.0448,9.7914,0.1263,1.1354,0.0003,-0.0003,0.0000,1.0000,0.2448,0.0032,0.0285
25330,Left,2,0.1502,0.0597,-0.9819,-0.0990,0.0104,-0.0009,0.0000,-0.0707,0.0273,-0.0976,-2.6810,-1.4398,9.2265,0.0001,-0.0000,0.0000,1.0000,-0.0670,-0.0360,0.2307
25331,Right,2,0.1581,-0.0432,-0.8688,0.4673,-0.0021,0.0024,0.0061,-0.0258,-0.0833,-0.0489,-2.2066,2.2017,9.2532,-0.0000,0.0000,0.0001,1.0000,-0.0552,0.0550,0.2313
25331,Pelvis,2,-0.6604,-0.0528,-0.7473,0.0523,0.0233,-0.0248,-0.0008,-0.0626,-0.0006,0.0188,9.7645,0.0870,1.1439,0.0003,-0.0003,-0.0000,1.0000,0.2441,0.0022,0.0287
25331,Left,2,0.1501,0.0598,-0.9819,-0.0987,0.0102,-0.0017,0.0004,-0.0783,0.0428,-0.0689,-2.6771,-1.4585,9.2550,0.0001,-0.0000,0.0000,1.0000,-0.0669,-0.0365,0.2314
25332,Right,2,0.1581,-0.0432,-0.8688,0.4672,-0.0019,0.0037,0.0069,-0.0359,-0.0561,-0.0456,-2.2244,2.1785,9.2578,-0.0000,0.0000,0.0001,1.0000,-0.0556,0.0545,0.2314
25332,Pelvis,2,-0.6606,-0.0530,-0.7471,0.0524,0.0234,-0.0229,0.0001,-0.0467,0.0142,0.0236,9.7679,0.0759,1.1561,0.0003,-0.0003,0.0000,1.0000,0.2442,0.0019,0.0290
25332,Left,2,0.1501,0.0598,-0.9819,-0.0984,0.0106,-0.0003,0.0023,-0.0803,0.0366,-0.0779,-2.6724,-1.4514,9.2481,0.0001,-0.0000,0.0000,1.0000,-0.0668,-0.0363,0.2312
25333,Right,2,0.1580,-0.0430,-0.8686,0.4677,-0.0036,0.0007,0.0061,-0.0482,-0.0642,-0.0229,-2.2161,2.1771,9.2841,-0.0000,0.0000,0.0001,1.0000,-0.0554,0.0544,0.2321
25333,Pelvis,2,-0.6608,-0.0532,-0.7468,0.0525,0.0230,-0.0256,0.0009,-0.0305,-0.0124,-0.0085,9.7351,0.1050,1.1580,0.0003,-0.0003,0.0000,1.0000,0.2434,0.0026,0.0290
25333,Left,2,0.1500,0.0598,-0.9819,-0.0988,0.0110,-0.0000,0.0011,-0.0795,0.0338,-0.0778,-2.6724,-1.4488,9.2485,0.0001,-0.0000,0.0000,1.0000,-0.0668,-0.0363,0.2312
25334,Right,2,0.1580,-0.0429,-0.8683,0.4682,-0.0024,0.0010,0.0054,-0.0425,-0.0598,-0.0438,-2.2172,2.1733,9.2627,-0.0000,0.0000,0.0001,1.0000,-0.0554,0.0543,0.2316
25334,Pelvis,2,-0.6611,-0.0534,-0.7466,0.0527,0.0211,-0.0299,0.0017,-0.0435,-0.0305,-0.0295,9.7167,0.1213,1.1330,0.0003,-0.0004,0.0000,1.0000,0.2429,0.0030,0.0284
25334,Left,2,0.1499,0.0598,-0.9819,-0.0987,0.0110,0.0012,0.0015,-0.0705,0.0255,-0.0787,-2.6811,-1.4425,9.2459,0.0001,0.0000,0.0000,1.0000,-0.0670,-0.0361,0.2311
25335,Right,2,0.1579,-0.0431,-0.8688,0.4673,0.0002,0.0007,0.0060,-0.0303,-0.0780,-0.0269,-2.2115,2.1967,9.2764,0.0000,0.0000,0.0001,1.0000,-0.0553,0.0549,0.2319
25335,Pelvis,2,-0.6613,-0.0536,-0.7463,0.0529,0.0197,-0.0289,0.0028,-0.0484,-0.0226,0.0030,9.7504,0.1130,1.1259,0.0002,-0.0004,0.0000,1.0000,0.2437,0.0028,0.0282
25335,Left,2,0.1499,0.0598,-0.9819,-0.0987,0.0110,0.0022,0.0024,-0.0990,0.0300,-0.0722,-2.6545,-1.4430,9.2607,0.0001,0.0000,0.0000,1.0000,-0.0664,-0.0361,0.2315
25336,Right,2,0.1579,-0.0432,-0.8690,0.4669,0.0002,0.0034,0.0094,-0.0441,-0.0723,-0.0336,-2.2071,2.1810,9.2742,0.0000,0.0000,0.0001,1.0000,-0.0552,0.0545,0.2319
25336,Pelvis,2,-0.6616,-0.0538,-0.7461,0.0531,0.0192,-0.0257,0.0008,-0.0400,0.0039,0.0565,9.8031,0.0889,1.1376,0.0002,-0.0003,0.0000,1.0000,0.2451,0.0022,0.0285
25336,Left,2,0.1499,0.0598,-0.9819,-0.0989,0.0111,0.0024,0.0019,-0.0899,0.0219,-0.0731,-2.6637,-1.4367,9.2580,0.0001,0.0000,0.0000,1.0000,-0.0666,-0.0360,0.2314
25337,Right,2,0.1578,-0.0432,-0.8691,0.4669,0.0003,0.0038,0.0056,-0.0452,-0.0716,-0.0431,-2.2045,2.1775,9.2656,0.0000,0.0000,0.0001,1.0000,-0.0551,0.0544,0.2316
25337,Pelvis,2,-0.6618,-0.0540,-0.7458,0.0532,0.0168,-0.0263,-0.0016,-0.0301,0.0294,0.0284,9.7746,0.0657,1.1412,0.0002,-0.0003,-0.0000,1.0000,0.2444,0.0016,0.0286
25337,Left,2,0.1498,0.0599,-0.9820,-0.0983,0.0122,0.0059,0.0025,-0.0775,0.0368,-0.0717,-2.6720,-1.4540,9.2542,0.0002,0.0001,0.0000,1.0000,-0.0668,-0.0364,0.2314
25338,Right,2,0.1578,-0.0434,-0.8695,0.4660,0.0009,0.0014,0.0042,-0.0548,-0.0661,-0.0306,-2.2065,2.1697,9.2801,0.0000,0.0000,0.0001,1.0000,-0.0552,0.0542,0.2320
25338,Pelvis,2,-0.6621,-0.0542,-0.7455,0.0533,0.0209,-0.0319,-0.0040,-0.0564,0.0032,-0.0045,9.7461,0.0887,1.1002,0.0003,-0.0004,-0.0001,1.0000,0.2436,0.0022,0.0276
25338,Left,2,0.1498,0.0599,-0.9820,-0.0984,0.0104,0.0023,0.0023,-0.0758,0.0315,-0.0500,-2.6807,-1.4525,9.2747,0.0001,0.0000,0.0000,1.0000,-0.0670,-0.0363,0.2319
25339,Right,2,0.1578,-0.0434,-0.8696,0.4659,0.0039,0.0086,0.0047,-0.0572,-0.1127,-0.0915,-2.1528,2.1807,9.2265,0.0000,0.0001,0.0001,1.0000,-0.0538,0.0545,0.2307
25339,Pelvis,2,-0.6623,-0.0545,-0.7453,0.0534,0.0229,-0.0219,-0.0005,-0.0478,-0.0114,0.0122,9.7625,0.1060,1.1016,0.0003,-0.0003,-0.0000,1.0000,0.2441,0.0026,0.0276
25339,Left,2,0.1498,0.0600,-0.9820,-0.0981,0.0105,0.0041,0.0029,-0.0887,0.0278,-0.0670,-2.6640,-1.4445,9.2631,0.0001,0.0001,0.0000,1.0000,-0.0666,-0.0361,0.2316
25340,Right,2,0.1578,-0.0435,-0.8698,0.4654,0.0057,0.0051,0.0024,-0.0425,-0.0399,-0.0321,-2.2349,2.1655,9.2725,0.0001,0.0001,0.0000,1.0000,-0.0559,0.0541,0.2318
25340,Pelvis,2,-0.6625,-0.0547,-0.7451,0.0536,0.0269,-0.0205,0.0003,-0.0635,0.0053,0.0351,9.7875,0.0882,1.0859,0.0003,-0.0003,0.0000,1.0000,0.2447,0.0022,0.0272
25340,Left,2,0.1497,0.0601,-0.9821,-0.0976,0.0096,0.0017,0.0026,-0.0818,0.0372,-0.0835,-2.6631,-1.4531,9.2445,0.0001,0.0000,0.0000,1.0000,-0.0666,-0.0364,0.2311
25341,Right,2,0.1579,-0.0436,-0.8699,0.4652,0.0072,0.0068,0.0024,-0.0140,-0.0422,-0.0082,-2.2539,2.1957,9.2860,0.0001,0.0001,0.0000,1.0000,-0.0563,0.0549,0.2322
25341,Pelvis,2,-0.6625,-0.0550,-0.7451,0.0539,0.0303,-0.0055,-0.0000,0.0101,0.0086,0.0632,9.8073,0.0974,1.1585,0.0004,-0.0001,-0.0000,1.0000,0.2452,0.0024,0.0290
25341,Left,2,0.1497,0.0601,-0.9820,-0.0978,0.0077,0.0027,0.0025,-0.0854,0.0264,-0.0797,-2.6622,-1.4431,9.2504,0.0001,0.0000,0.0000,1.0000,-0.0665,-0.0361,0.2313
25342,Right,2,0.1580,-0.0436,-0.8699,0.4651,0.0070,0.0066,0.0048,-0.0625,-0.0464,-0.0475,-2.2169,2.1520,9.2639,0.0001,0.0001,0.0001,1.0000,-0.0554,0.0538,0.2316
25342,Pelvis,2,-0.6624,-0.0554,-0.7451,0.0541,0.0350,0.0065,-0.0024,0.0139,-0.0290,0.0848,9.8285,0.1368,1.1589,0.0004,0.0001,-0.0000,1.0000,0.2457,0.0034,0.0290
25342,Left,2,0.1497,0.0601,-0.9820,-0.0984,0.0062,0.0039,0.0013,-0.0793,0.0293,-0.0618,-2.6721,-1.4504,9.2652,0.0001,0.0000,0.0000,1.0000,-0.0668,-0.0363,0.2316
25343,Right,2,0.1580,-0.0436,-0.8699,0.4651,0.0055,0.0079,0.0051,-0.0253,-0.0753,-0.0364,-2.2156,2.2014,9.2643,0.0001,0.0001,0.0001,1.0000,-0.0554,0.0550,0.2316
25343,Pelvis,2,-0.6623,-0.0558,-0.7451,0.0544,0.0443,0.0094,-0.0076,0.0173,-0.0280,0.0323,9.7757,0.1384,1.1579,0.0006,0.0001,-0.0001,1.0000,0.2444,0.0034,0.0289
25343,Left,2,0.1497,0.0600,-0.9819,-0.0991,0.0068,0.0032,0.0012,-0.0768,0.0317,-0.0745,-2.6699,-1.4521,9.2521,0.0001,0.0000,0.0000,1.0000,-0.0667,-0.0363,0.2313
25344,Right,2,0.1581,-0.0435,-0.8697,0.4656,0.0018,0.0089,0.0022,-0.0089,-0.0422,0.0014,-2.2614,2.2043,9.2922,0.0000,0.0001,0.0000,1.0000,-0.0565,0.0551,0.2323
25344,Pelvis,2,-0.6623,-0.0563,-0.7452,0.0548,0.0479,0.0054,-0.0019,0.0295,0.0140,0.0063,9.7480,0.1011,1.1748,0.0006,0.0001,-0.0000,1.0000,0.2437,0.0025,0.0294
25344,Left,2,0.1497,0.0602,-0.9820,-0.0986,0.0063,0.0022,0.0027,-0.0844,0.0334,-0.0736,-2.6620,-1.4541,9.2551,0.0001,0.0000,0.0000,1.0000,-0.0665,-0.0364,0.2314
25345,Right,2,0.1581,-0.0434,-0.8693,0.4663,0.0018,0.0042,0.0040,-0.0365,-0.0532,-0.0027,-2.2381,2.1874,9.2976,0.0000,0.0001,0.0000,1.0000,-0.0559,0.0547,0.2324
25345,Pelvis,2,-0.6622,-0.0568,-0.7451,0.0553,0.0638,0.0057,0.0058,0.0454,0.0286,0.0111,9.7506,0.0906,1.1943,0.0008,0.0001,0.0001,1.0000,0.2438,0.0023,0.0298
25345,Left,2,0.1496,0.0605,-0.9821,-0.0973,0.0083,0.0043,0.0012,-0.0729,0.0271,-0.0656,-2.6759,-1.4532,9.2596,0.0001,0.0001,0.0000,1.0000,-0.0669,-0.0364,0.2315
25346,Right,2,0.1581,-0.0433,-0.8694,0.4662,-0.0039,0.0064,0.0032,-0.0237,-0.0666,-0.0258,-2.2286,2.1993,9.2728,-0.0000,0.0001,0.0000,1.0000,-0.0557,0.0550,0.2318
25346,Pelvis,2,-0.6620,-0.0574,-0.7452,0.0560,0.0725,0.0110,0.0089,0.0054,0.0356,0.0033,9.7473,0.0778,1.1570,0.0009,0.0001,0.0001,1.0000,0.2437,0.0019,0.0289
25346,Left,2,0.1494,0.0608,-0.9822,-0.0958,0.0071,0.0022,0.0022,-0.0831,0.0253,-0.0736,-2.6636,-1.4504,9.2552,0.0001,0.0000,0.0000,1.0000,-0.0666,-0.0363,0.2314
25347,Right,2,0.1581,-0.0431,-0.8692,0.4666,-0.0059,0.0071,0.0045,-0.0439,-0.0652,-0.0211,-2.2213,2.1816,9.2838,-0.0001,0.0001,0.0001,1.0000,-0.0555,0.0546,0.2321
25347,Pelvis,2,-0.6619,-0.0580,-0.7452,0.0566,0.0746,0.0104,0.0054,-0.0285,0.0215,0.0192,9.7669,0.0872,1.1256,0.0009,0.0001,0.0001,1.0000,0.2442,0.0022,0.0281
25347,Left,2,0.1495,0.0608,-0.9822,-0.0963,0.0048,0.0045,0.0024,-0.0851,0.0197,-0.0825,-2.6600,-1.4444,9.2478,0.0001,0.0001,0.0000,1.0000,-0.0665,-0.0361,0.2312
25348,Right,2,0.1582,-0.0429,-0.8690,0.4669,-0.0055,0.0071,0.0027,-0.0325,-0.0397,-0.0225,-2.2489,2.1742,9.2772,-0.0001,0.0001,0.0000,1.0000,-0.0562,0.0544,0.2319
25348,Pelvis,2,-0.6619,-0.0585,-0.7451,0.0571,0.0615,-0.0052,0.0079,-0.0431,-0.0189,-0.0495,9.7007,0.1244,1.0970,0.0008,-0.0001,0.0001,1.0000,0.2425,0.0031,0.0274
25348,Left,2,0.1495,0.0607,-0.9821,-0.0970,0.0049,0.0040,0.0016,-0.0746,0.0306,-0.0684,-2.6715,-1.4600,9.2569,0.0001,0.0001,0.0000,1.0000,-0.0668,-0.0365,0.2314
25349,Right,2,0.1581,-0.0429,-0.8690,0.4670,-0.0053,0.0045,0.0046,-0.0403,-0.0432,-0.0207,-2.2428,2.1686,9.2819,-0.0001,0.0001,0.0001,1.0000,-0.0561,0.0542,0.2320
25349,Pelvis,2,-0.6620,-0.0589,-0.7449,0.0575,0.0461,-0.0147,0.0087,-0.0374,-0.0013,-0.0998,9.6503,0.1071,1.0968,0.0006,-0.0002,0.0001,1.0000,0.2413,0.0027,0.0275
25349,Left,2,0.1495,0.0609,-0.9822,-0.0966,0.0079,0.0034,0.0021,-0.0760,0.0452,-0.0840,-2.6622,-1.4732,9.2411,0.0001,0.0000,0.0000,1.0000,-0.0665,-0.0369,0.2310
25350,Right,2,0.1581,-0.0428,-0.8690,0.4670,-0.0032,0.0022,0.0045,-0.0508,-0.0548,-0.0485,-2.2211,2.1592,9.2601,-0.0000,0.0000,0.0001,1.0000,-0.0555,0.0540,0.2315
25350,Pelvis,2,-0.6622,-0.0591,-0.7448,0.0578,0.0288,-0.0149,0.0056,-0.0096,-0.0085,-0.0291,9.7177,0.1191,1.1273,0.0004,-0.0002,0.0001,1.0000,0.2429,0.0030,0.0282
25350,Left,2,0.1495,0.0609,-0.9821,-0.0967,0.0103,0.0028,0.0031,-0.0947,0.0495,-0.0910,-2.6414,-1.4738,9.2398,0.0001,0.0000,0.0000,1.0000,-0.0660,-0.0369,0.2310
25351,Right,2,0.1580,-0.0429,-0.8692,0.4666,0.0005,0.0038,0.0047,-0.0427,-0.0725,-0.0507,-2.2099,2.1745,9.2569,0.0000,0.0000,0.0001,1.0000,-0.0552,0.0544,0.2314
25351,Pelvis,2,-0.6623,-0.0591,-0.7446,0.0579,0.0109,-0.0158,0.0073,-0.0157,-0.0301,0.0574,9.8050,0.1397,1.1238,0.0001,-0.0002,0.0001,1.0000,0.2451,0.0035,0.0281
25351,Left,2,0.1494,0.0609,-0.9822,-0.0964,0.0127,0.0063,0.0034,-0.0817,0.0282,-0.0891,-2.6582,-1.4557,9.2396,0.0002,0.0001,0.0000,1.0000,-0.0664,-0.0364,0.2310
25352,Right,2,0.1580,-0.0430,-0.8694,0.4661,0.0052,0.0025,0.0069,-0.0558,-0.0582,-0.0372,-2.2178,2.1595,9.2728,0.0001,0.0000,0.0001,1.0000,-0.0554,0.0540,0.2318
25352,Pelvis,2,-0.6625,-0.0590,-0.7444,0.0580,-0.0042,-0.0218,0.0122,-0.0015,-0.0070,0.0422,9.7886,0.1168,1.1349,-0.0001,-0.0003,0.0002,1.0000,0.2447,0.0030,0.0284
25352,Left,2,0.1495,0.0608,-0.9821,-0.0967,0.0128,0.0113,0.0063,-0.0656,0.0308,-0.0849,-2.6749,-1.4612,9.2383,0.0002,0.0001,0.0001,1.0000,-0.0668,-0.0366,0.2310
25353,Right,2,0.1581,-0.0431,-0.8693,0.4664,0.0095,0.0039,0.0068,-0.0496,-0.0453,-0.0379,-2.2312,2.1585,9.2690,0.0001,0.0000,0.0001,1.0000,-0.0558,0.0539,0.2317
25353,Pelvis,2,-0.6628,-0.0588,-0.7442,0.0579,-0.0138,-0.0266,0.0133,-0.0050,0.0104,0.0022,9.7499,0.0954,1.1237,-0.0002,-0.0003,0.0002,1.0000,0.2437,0.0024,0.0282
25353,Left,2,0.1496,0.0608,-0.9822,-0.0964,0.0116,0.0086,0.0072,-0.0792,0.0197,-0.0674,-2.6706,-1.4504,9.2597,0.0001,0.0001,0.0001,1.0000,-0.0667,-0.0363,0.2315
25354,Right,2,0.1581,-0.0431,-0.8692,0.4666,0.0100,0.0029,0.0071,-0.0268,-0.0687,-0.0335,-2.2244,2.1927,9.2673,0.0001,0.0000,0.0001,1.0000,-0.0556,0.0548,0.2317
25354,Pelvis,2,-0.6631,-0.0585,-0.7440,0.0579,-0.0131,-0.0289,0.0135,0.0159,-0.0034,-0.0439,9.7026,0.1087,1.1298,-0.0002,-0.0004,0.0002,1.0000,0.2426,0.0028,0.0283
25354,Left,2,0.1496,0.0607,-0.9821,-0.0970,0.0125,0.0071,0.0049,-0.0616,0.0276,-0.0759,-2.6840,-1.4592,9.2454,0.0002,0.0001,0.0001,1.0000,-0.0671,-0.0365,0.2311
25355,Right,2,0.1582,-0.0431,-0.8689,0.4671,0.0084,0.0037,0.0051,-0.0279,-0.0686,-0.0430,-2.2218,2.1912,9.2582,0.0001,0.0000,0.0001,1.0000,-0.0555,0.0548,0.2315
25355,Pelvis,2,-0.6633,-0.0583,-0.7438,0.0579,-0.0134,-0.0204,0.0133,0.0465,-0.0352,-0.0079,9.7359,0.1420,1.1525,-0.0002,-0.0003,0.0002,1.0000,0.2434,0.0036,0.0289
25355,Left,2,0.1496,0.0608,-0.9821,-0.0966,0.0139,0.0060,0.0036,-0.0696,0.0085,-0.0683,-2.6828,-1.4402,9.2567,0.0002,0.0001,0.0000,1.0000,-0.0671,-0.0360,0.2314
25356,Right,2,0.1583,-0.0431,-0.8687,0.4674,0.0081,0.0067,0.0064,-0.0325,-0.0589,-0.0514,-2.2254,2.1817,9.2506,0.0001,0.0001,0.0001,1.0000,-0.0556,0.0545,0.2313
25356,Pelvis,2,-0.6635,-0.0582,-0.7437,0.0580,-0.0129,-0.0137,0.0120,0.0254,-0.0566,0.0468,9.7934,0.1566,1.1302,-0.0002,-0.0002,0.0002,1.0000,0.2448,0.0040,0.0283
25356,Left,2,0.1497,0.0605,-0.9820,-0.0977,0.0145,0.0053,0.0035,-0.0739,0.0348,-0.0650,-2.6745,-1.4642,9.2589,0.0002,0.0001,0.0000,1.0000,-0.0668,-0.0366,0.2315
25357,Right,2,0.1583,-0.0434,-0.8692,0.4664,0.0085,0.0081,0.0063,-0.0430,-0.0363,-0.0082,-2.2493,2.1724,9.2926,0.0001,0.0001,0.0001,1.0000,-0.0562,0.0543,0.2323
25357,Pelvis,2,-0.6636,-0.0580,-0.7436,0.0579,-0.0092,-0.0093,0.0094,0.0545,-0.0133,0.0818,9.8249,0.1163,1.1667,-0.0001,-0.0001,0.0001,1.0000,0.2456,0.0029,0.0292
25357,Left,2,0.1497,0.0605,-0.9820,-0.0980,0.0125,0.0055,0.0038,-0.0869,0.0315,-0.0819,-2.6583,-1.4555,9.2472,0.0002,0.0001,0.0000,1.0000,-0.0664,-0.0364,0.2312
25358,Right,2,0.1583,-0.0434,-0.8691,0.4666,0.0061,0.0054,0.0052,-0.0135,-0.0556,-0.0151,-2.2475,2.2065,9.2777,0.0001,0.0001,0.0001,1.0000,-0.0562,0.0551,0.2320
25358,Pelvis,2,-0.6637,-0.0579,-0.7435,0.0578,-0.0044,-0.0069,0.0065,0.0334,0.0089,0.0263,9.7722,0.0887,1.1413,-0.0001,-0.0001,0.0001,1.0000,0.2443,0.0022,0.0286
25358,Left,2,0.1497,0.0605,-0.9820,-0.0978,0.0116,0.0053,0.0049,-0.0742,0.0102,-0.0801,-2.6754,-1.4372,9.2470,0.0001,0.0001,0.0001,1.0000,-0.0669,-0.0360,0.2312
25359,Right,2,0.1584,-0.0433,-0.8688,0.4671,0.0040,0.0021,0.0076,-0.0227,-0.0508,-0.0027,-2.2497,2.1998,9.2919,0.0001,0.0000,0.0001,1.0000,-0.0562,0.0550,0.2323
25359,Pelvis,2,-0.6636,-0.0578,-0.7436,0.0578,-0.0030,0.0030,0.0033,0.0136,-0.0236,-0.0099,9.7389,0.1161,1.1120,-0.0000,0.0000,0.0000,1.0000,0.2435,0.0029,0.0278
25359,Left,2,0.1497,0.0603,-0.9820,-0.0985,0.0138,0.0048,0.0032,-0.0574,0.0339,-0.0824,-2.6855,-1.4621,9.2376,0.0002,0.0001,0.0000,1.0000,-0.0671,-0.0366,0.2309
25360,Right,2,0.1584,-0.0434,-0.8690,0.4668,0.0040,0.0062,0.0051,-0.0349,-0.0537,-0.0199,-2.2370,2.1886,9.2795,0.0001,0.0001,0.0001,1.0000,-0.0559,0.0547,0.2320
25360,Pelvis,2,-0.6636,-0.0578,-0.7437,0.0578,0.0064,0.0107,0.0026,-0.0247,-0.0147,0.0115,9.7642,0.1010,1.0798,0.0001,0.0001,0.0000,1.0000,0.2441,0.0025,0.0270
25360,Left,2,0.1497,0.0605,-0.9820,-0.0980,0.0096,0.0047,0.0016,-0.0728,0.0175,-0.0522,-2.6829,-1.4483,9.2724,0.0001,0.0001,0.0000,1.0000,-0.0671,-0.0362,0.2318
25361,Right,2,0.1584,-0.0434,-0.8689,0.4669,0.0014,0.0017,0.0062,-0.0360,-0.0533,-0.0294,-2.2345,2.1855,9.2707,0.0000,0.0000,0.0001,1.0000,-0.0559,0.0546,0.2318
25361,Pelvis,2,-0.6634,-0.0578,-0.7438,0.0579,0.0100,0.0202,0.0022,-0.0047,0.0181,0.0477,9.7972,0.0720,1.1123,0.0001,0.0003,0.0000,1.0000,0.2449,0.0018,0.0277
25361,Left,2,0.1497,0.0605,-0.9820,-0.0983,0.0085,0.0011,0.0009,-0.0897,0.0271,-0.0719,-2.6589,-1.4523,9.2580,0.0001,0.0000,0.0000,1.0000,-0.0665,-0.0363,0.2314
25362,Right,2,0.1584,-0.0433,-0.8688,0.4671,-0.0001,0.0024,0.0057,-0.0205,-0.0588,-0.0228,-2.2391,2.2022,9.2727,-0.0000,0.0000,0.0001,1.0000,-0.0560,0.0551,0.2318
25362,Pelvis,2,-0.6632,-0.0580,-0.7440,0.0581,0.0250,0.0204,0.0015,-0.0399,0.0377,0.0258,9.7787,0.0470,1.0834,0.0003,0.0003,0.0000,1.0000,0.2445,0.0012,0.0270
25362,Left,2,0.1497,0.0604,-0.9819,-0.0986,0.0092,0.0038,0.0025,-0.0846,0.0321,-0.0757,-2.6610,-1.4580,9.2526,0.0001,0.0000,0.0000,1.0000,-0.0665,-0.0365,0.2313
25363,Right,2,0.1584,-0.0434,-0.8691,0.4667,0.0026,0.0051,0.0059,-0.0327,-0.0616,-0.0400,-2.2263,2.1903,9.2604,0.0000,0.0001,0.0001,1.0000,-0.0556,0.0547,0.2315
25363,Pelvis,2,-0.6629,-0.0582,-0.7442,0.0583,0.0263,0.0285,-0.0025,-0.0445,-0.0055,0.0122,9.7655,0.0899,1.0761,0.0003,0.0004,-0.0000,1.0000,0.2441,0.0022,0.0268
25363,Left,2,0.1496,0.0606,-0.9820,-0.0981,0.0092,0.0032,0.0023,-0.0696,0.0365,-0.0931,-2.6687,-1.4633,9.2311,0.0001,0.0000,0.0000,1.0000,-0.0667,-0.0366,0.2308
25364,Right,2,0.1583,-0.0434,-0.8691,0.4665,-0.0003,0.0056,0.0046,-0.0302,-0.0395,-0.0397,-2.2462,2.1801,9.2583,-0.0000,0.0001,0.0001,1.0000,-0.0561,0.0545,0.2315
25364,Pelvis,2,-0.6625,-0.0584,-0.7445,0.0584,0.0206,0.0369,-0.0015,-0.0292,-0.0366,0.0164,9.7673,0.1245,1.0943,0.0003,0.0005,-0.0000,1.0000,0.2442,0.0031,0.0272
25364,Left,2,0.1496,0.0606,-0.9820,-0.0981,0.0098,0.0036,0.0026,-0.0760,0.0362,-0.0705,-2.6687,-1.4657,9.2546,0.0001,0.0000,0.0000,1.0000,-0.0667,-0.0367,0.2314
25365,Right,2,0.1584,-0.0434,-0.8691,0.4666,-0.0008,0.0051,0.0041,-0.0386,-0.0515,-0.0580,-2.2280,2.1753,9.2446,-0.0000,0.0001,0.0001,1.0000,-0.0557,0.0544,0.2311
25365,Pelvis,2,-0.6623,-0.0585,-0.7446,0.0586,0.0147,0.0195,0.0009,0.0084,-0.0317,-0.0612,9.6851,0.1258,1.1295,0.0002,0.0002,0.0000,1.0000,0.2421,0.0031,0.0282
25365,Left,2,0.1496,0.0607,-0.9820,-0.0979,0.0102,0.0045,0.0017,-0.0709,0.0275,-0.1021,-2.6661,-1.4540,9.2239,0.0001,0.0001,0.0000,1.0000,-0.0666,-0.0364,0.2306
25366,Right,2,0.1583,-0.0433,-0.8691,0.4667,-0.0015,0.0037,0.0051,-0.0438,-0.0471,-0.0265,-2.2366,2.1751,9.2758,-0.0000,0.0000,0.0001,1.0000,-0.0559,0.0544,0.2319
25366,Pelvis,2,-0.6623,-0.0585,-0.7447,0.0586,0.0067,0.0098,0.0046,-0.0689,0.0342,-0.0833,9.6711,0.0477,1.0655,0.0001,0.0001,0.0001,1.0000,0.2418,0.0012,0.0266
25366,Left,2,0.1496,0.0606,-0.9820,-0.0982,0.0116,0.0027,0.0028,-0.0790,0.0222,-0.0667,-2.6692,-1.4527,9.2605,0.0001,0.0000,0.0000,1.0000,-0.0667,-0.0364,0.2315
25367,Right,2,0.1584,-0.0431,-0.8685,0.4678,0.0001,0.0046,0.0058,-0.0308,-0.0613,-0.0496,-2.2267,2.1871,9.2510,0.0000,0.0001,0.0001,1.0000,-0.0557,0.0547,0.2313
25367,Pelvis,2,-0.6621,-0.0585,-0.7448,0.0587,0.0054,0.0158,0.0012,-0.0588,0.0727,0.0086,9.7605,0.0119,1.0954,0.0001,0.0002,0.0000,1.0000,0.2440,0.0003,0.0273
25367,Left,2,0.1496,0.0607,-0.9820,-0.0980,0.0100,0.0044,0.0023,-0.0721,0.0319,-0.0831,-2.6684,-1.4613,9.2420,0.0001,0.0001,0.0000,1.0000,-0.0667,-0.0366,0.2310
25368,Right,2,0.1584,-0.0431,-0.8684,0.4679,0.0032,0.0024,0.0074,-0.0343,-0.0354,-0.0177,-2.2539,2.1769,9.2804,0.0000,0.0000,0.0001,1.0000,-0.0563,0.0544,0.2320
25368,Pelvis,2,-0.6620,-0.0586,-0.7449,0.0588,0.0135,0.0088,0.0023,-0.0415,0.0330,0.0328,9.7826,0.0543,1.1113,0.0002,0.0001,0.0000,1.0000,0.2446,0.0014,0.0278
25368,Left,2,0.1495,0.0607,-0.9820,-0.0981,0.0107,0.0032,0.0014,-0.0770,0.0367,-0.0732,-2.6654,-1.4669,9.2525,0.0001,0.0000,0.0000,1.0000,-0.0666,-0.0367,0.2313
25369,Right,2,0.1584,-0.0432,-0.8684,0.4678,0.0072,-0.0016,0.0090,-0.0355,-0.0350,-0.0272,-2.2504,2.1745,9.2717,0.0001,-0.0000,0.0001,1.0000,-0.0563,0.0543,0.2318
25369,Pelvis,2,-0.6621,-0.0587,-0.7448,0.0589,0.0130,-0.0035,0.0041,-0.0003,-0.0101,-0.0324,9.7134,0.1028,1.1374,0.0002,-0.0000,0.0001,1.0000,0.2428,0.0026,0.0284
25369,Left,2,0.1495,0.0607,-0.9820,-0.0978,0.0111,0.0050,0.0040,-0.0653,0.0310,-0.0652,-2.6795,-1.4650,9.2570,0.0001,0.0001,0.0000,1.0000,-0.0670,-0.0367,0.2314
25370,Right,2,0.1584,-0.0433,-0.8683,0.4680,0.0087,-0.0006,0.0083,-0.0205,-0.0485,-0.0408,-2.2421,2.1927,9.2552,0.0001,-0.0000,0.0001,1.0000,-0.0561,0.0548,0.2314
25370,Pelvis,2,-0.6621,-0.0589,-0.7447,0.0591,0.0205,-0.0087,0.0011,0.0224,-0.0329,-0.0586,9.6852,0.1286,1.1512,0.0003,-0.0001,0.0000,1.0000,0.2421,0.0032,0.0288
25370,Left,2,0.1495,0.0607,-0.9820,-0.0979,0.0123,0.0048,0.0042,-0.0640,0.0356,-0.0996,-2.6700,-1.4644,9.2237,0.0002,0.0001,0.0001,1.0000,-0.0667,-0.0366,0.2306
25371,Right,2,0.1583,-0.0432,-0.8681,0.4685,0.0056,-0.0023,0.0069,-0.0136,-0.0578,-0.0323,-2.2386,2.2065,9.2617,0.0001,-0.0000,0.0001,1.0000,-0.0560,0.0551,0.2315
25371,Pelvis,2,-0.6621,-0.0592,-0.7447,0.0592,0.0188,0.0046,-0.0048,0.0503,-0.0402,0.0120,9.7522,0.1423,1.1848,0.0002,0.0001,-0.0001,1.0000,0.2438,0.0035,0.0296
25371,Left,2,0.1495,0.0606,-0.9820,-0.0984,0.0107,0.0055,0.0027,-0.0747,0.0277,-0.0731,-2.6690,-1.4584,9.2528,0.0001,0.0001,0.0000,1.0000,-0.0667,-0.0365,0.2313
25372,Right,2,0.1583,-0.0433,-0.8681,0.4686,0.0043,-0.0003,0.0072,-0.0178,-0.0706,-0.0316,-2.2249,2.2111,9.2648,0.0001,-0.0000,0.0001,1.0000,-0.0556,0.0553,0.2316
25372,Pelvis,2,-0.6619,-0.0594,-0.7449,0.0592,0.0152,0.0210,-0.0127,0.0426,-0.0739,0.0602,9.8009,0.1774,1.1800,0.0002,0.0003,-0.0002,1.0000,0.2450,0.0044,0.0294
25372,Left,2,0.1496,0.0605,-0.9819,-0.0988,0.0106,0.0059,0.0035,-0.0734,0.0458,-0.0796,-2.6647,-1.4751,9.2446,0.0001,0.0001,0.0000,1.0000,-0.0666,-0.0369,0.2311
25373,Right,2,0.1583,-0.0434,-0.8683,0.4681,0.0015,0.0009,0.0068,-0.0309,-0.0562,-0.0180,-2.2321,2.1963,9.2808,0.0000,0.0000,0.0001,1.0000,-0.0558,0.0549,0.2320
25373,Pelvis,2,-0.6616,-0.0596,-0.7451,0.0592,0.0132,0.0294,-0.0163,0.0855,-0.1152,0.0241,9.7596,0.2292,1.2169,0.0002,0.0004,-0.0002,1.0000,0.2440,0.0057,0.0303
25373,Left,2,0.1496,0.0605,-0.9819,-0.0991,0.0096,0.0063,0.0027,-0.0744,0.0378,-0.0669,-2.6694,-1.4691,9.2576,0.0001,0.0001,0.0000,1.0000,-0.0667,-0.0368,0.2314
25374,Right,2,0.1582,-0.0435,-0.8686,0.4677,-0.0020,0.0007,0.0074,-0.0228,-0.0434,-0.0092,-2.2480,2.1975,9.2859,-0.0000,0.0000,0.0001,1.0000,-0.0562,0.0549,0.2321
25374,Pelvis,2,-0.6611,-0.0598,-0.7456,0.0590,0.0020,0.0480,-0.0196,0.0775,-0.0750,-0.0104,9.7247,0.1926,1.2211,0.0000,0.0006,-0.0002,1.0000,0.2431,0.0048,0.0304
25374,Left,2,0.1497,0.0605,-0.9818,-0.0996,0.0088,0.0069,0.0034,-0.0744,0.0142,-0.0604,-2.6767,-1.4474,9.2657,0.0001,0.0001,0.0000,1.0000,-0.0669,-0.0362,0.2316
25375,Right,2,0.1581,-0.0434,-0.8684,0.4679,-0.0061,0.0014,0.0077,-0.0160,-0.0526,-0.0008,-2.2451,2.2087,9.2929,-0.0001,0.0000,0.0001,1.0000,-0.0561,0.0552,0.2323
25375,Pelvis,2,-0.6604,-0.0599,-0.7462,0.0588,-0.0063,0.0739,-0.0269,0.0579,0.0105,0.0185,9.7530,0.1112,1.2343,-0.0001,0.0009,-0.0003,1.0000,0.2439,0.0027,0.0306
25375,Left,2,0.1496,0.0605,-0.9819,-0.0994,0.0076,0.0038,0.0009,-0.0647,0.0267,-0.0679,-2.6808,-1.4611,9.2544,0.0001,0.0000,0.0000,1.0000,-0.0670,-0.0366,0.2314
25376,Right,2,0.1580,-0.0433,-0.8684,0.4680,-0.0063,0.0023,0.0080,-0.0125,-0.0474,-0.0312,-2.2431,2.2002,9.2632,-0.0001,0.0000,0.0001,1.0000,-0.0561,0.0550,0.2316
25376,Pelvis,2,-0.6597,-0.0600,-0.7469,0.0585,-0.0029,0.0804,-0.0304,0.0006,0.0884,0.0142,9.7525,0.0318,1.2095,-0.0000,0.0010,-0.0004,1.0000,0.2438,0.0007,0.0300
25376,Left,2,0.1497,0.0605,-0.9818,-0.1000,0.0086,0.0052,0.0002,-0.0596,0.0318,-0.0716,-2.6833,-1.4671,9.2488,0.0001,0.0001,0.0000,1.0000,-0.0671,-0.0367,0.2312
25377,Right,2,0.1580,-0.0432,-0.8682,0.4685,-0.0061,0.0023,0.0071,-0.0260,-0.0418,-0.0378,-2.2388,2.1830,9.2614,-0.0001,0.0000,0.0001,1.0000,-0.0560,0.0546,0.2315
25377,Pelvis,2,-0.6590,-0.0601,-0.7475,0.0583,-0.0015,0.0744,-0.0237,-0.0304,0.1365,0.0328,9.7721,-0.0139,1.2081,-0.0000,0.0009,-0.0003,1.0000,0.2443,-0.0004,0.0300
25377,Left,2,0.1497,0.0605,-0.9818,-0.1000,0.0075,0.0037,0.0015,-0.0744,0.0234,-0.0758,-2.6699,-1.4565,9.2500,0.0001,0.0000,0.0000,1.0000,-0.0667,-0.0364,0.2313
25378,Right,2,0.1579,-0.0432,-0.8683,0.4683,-0.0029,-0.0001,0.0101,-0.0267,-0.0635,-0.0381,-2.2197,2.1932,9.2633,-0.0000,-0.0000,0.0001,1.0000,-0.0555,0.0548,0.2316
25378,Pelvis,2,-0.6587,-0.0601,-0.7478,0.0580,-0.0180,0.0302,-0.0145,-0.0986,0.0845,-0.0646,9.6828,0.0293,1.1332,-0.0002,0.0004,-0.0002,1.0000,0.2421,0.0007,0.0282
25378,Left,2,0.1496,0.0605,-0.9818,-0.1002,0.0090,0.0014,0.0018,-0.0592,0.0415,-0.0653,-2.6825,-1.4791,9.2538,0.0001,0.0000,0.0000,1.0000,-0.0671,-0.0370,0.2313
25379,Right,2,0.1579,-0.0432,-0.8682,0.4684,0.0024,-0.0005,0.0091,-0.0512,-0.0612,-0.0524,-2.2045,2.1689,9.2577,0.0000,-0.0000,0.0001,1.0000,-0.0551,0.0542,0.2314
25379,Pelvis,2,-0.6586,-0.0596,-0.7479,0.0576,-0.0479,0.0117,-0.0007,-0.0780,-0.0594,-0.0378,9.7073,0.1762,1.1377,-0.0006,0.0001,-0.0000,1.0000,0.2427,0.0044,0.0284
25379,Left,2,0.1496,0.0605,-0.9818,-0.1004,0.0120,-0.0004,0.0019,-0.0531,0.0308,-0.0753,-2.6866,-1.4684,9.2437,0.0002,-0.0000,0.0000,1.0000,-0.0672,-0.0367,0.2311
25380,Right,2,0.1579,-0.0432,-0.8681,0.4686,0.0082,0.0037,0.0060,-0.0579,-0.0770,-0.1213,-2.1714,2.1579,9.1957,0.0001,0.0000,0.0001,1.0000,-0.0543,0.0539,0.2299
25380,Pelvis,2,-0.6587,-0.0588,-0.7480,0.0570,-0.0769,0.0027,0.0057,-0.0829,-0.0513,-0.0053,9.7399,0.1655,1.1403,-0.0010,0.0000,0.0001,1.0000,0.2435,0.0042,0.0285
25380,Left,2,0.1495,0.0604,-0.9817,-0.1010,0.0140,-0.0006,0.0016,-0.0825,0.0381,-0.0902,-2.6519,-1.4674,9.2385,0.0002,-0.0000,0.0000,1.0000,-0.0663,-0.0367,0.2310
25381,Right,2,0.1580,-0.0433,-0.8682,0.4684,0.0084,0.0086,0.0020,-0.0076,-0.0469,-0.0312,-2.2436,2.2029,9.2625,0.0001,0.0001,0.0000,1.0000,-0.0561,0.0550,0.2316
25381,Pelvis,2,-0.6589,-0.0580,-0.7478,0.0564,-0.0852,-0.0227,0.0100,-0.0551,0.0463,0.0102,9.7514,0.0699,1.1830,-0.0011,-0.0003,0.0001,1.0000,0.2438,0.0018,0.0296
25381,Left,2,0.1495,0.0603,-0.9817,-0.1011,0.0166,0.0007,0.0026,-0.0846,0.0324,-0.0991,-2.6474,-1.4593,9.2316,0.0002,0.0000,0.0000,1.0000,-0.0662,-0.0365,0.2308
25382,Right,2,0.1580,-0.0435,-0.8683,0.4681,0.0132,0.0034,0.0044,-0.0221,-0.0241,-0.0070,-2.2613,2.1861,9.2876,0.0002,0.0000,0.0001,1.0000,-0.0565,0.0546,0.2322
25382,Pelvis,2,-0.6592,-0.0573,-0.7477,0.0558,-0.0652,-0.0183,0.0059,-0.0238,-0.0015,-0.0084,9.7300,0.1179,1.1986,-0.0008,-0.0002,0.0001,1.0000,0.2432,0.0030,0.0300
25382,Left,2,0.1495,0.0602,-0.9817,-0.1014,0.0185,0.0025,0.0043,-0.0673,0.0324,-0.0732,-2.6701,-1.4647,9.2514,0.0002,0.0000,0.0001,1.0000,-0.0667,-0.0367,0.2313
25383,Right,2,0.1581,-0.0436,-0.8684,0.4679,0.0102,0.0044,0.0064,-0.0118,-0.0423,0.0003,-2.2532,2.2084,9.2921,0.0001,0.0001,0.0001,1.0000,-0.0563,0.0552,0.2323
25383,Pelvis,2,-0.6593,-0.0567,-0.7477,0.0554,-0.0614,-0.0115,0.0067,0.0393,-0.1563,0.0099,9.7421,0.2777,1.2345,-0.0008,-0.0001,0.0001,1.0000,0.2435,0.0070,0.0309
25383,Left,2,0.1494,0.0602,-0.9818,-0.1006,0.0183,0.0018,0.0047,-0.0837,0.0181,-0.0647,-2.6594,-1.4480,9.2661,0.0002,0.0000,0.0001,1.0000,-0.0665,-0.0363,0.2316
25384,Right,2,0.1581,-0.0436,-0.8683,0.4681,0.0041,0.0045,0.0063,-0.0093,-0.0506,-0.0103,-2.2450,2.2141,9.2816,0.0001,0.0001,0.0001,1.0000,-0.0561,0.0553,0.2320
25384,Pelvis,2,-0.6593,-0.0561,-0.7478,0.0549,-0.0596,0.0129,0.0042,0.0684,-0.0925,0.0633,9.7909,0.2168,1.2800,-0.0007,0.0002,0.0001,1.0000,0.2448,0.0055,0.0320
25384,Left,2,0.1493,0.0602,-0.9818,-0.1005,0.0150,0.0040,0.0033,-0.0740,0.0306,-0.0722,-2.6630,-1.4597,9.2554,0.0002,0.0001,0.0000,1.0000,-0.0666,-0.0365,0.2314
25385,Right,2,0.1581,-0.0435,-0.8681,0.4686,-0.0019,0.0071,0.0035,-0.0177,-0.0623,-0.0286,-2.2269,2.2097,9.2677,-0.0000,0.0001,0.0000,1.0000,-0.0557,0.0552,0.2317
25385,Pelvis,2,-0.6590,-0.0555,-0.7481,0.0546,-0.0560,0.0366,0.0103,-0.0402,0.0831,0.1151,9.8537,0.0236,1.2136,-0.0007,0.0005,0.0001,1.0000,0.2464,0.0006,0.0302
25385,Left,2,0.1493,0.0601,-0.9818,-0.1010,0.0133,0.0045,0.0024,-0.0666,0.0176,-0.0605,-2.6758,-1.4491,9.2656,0.0002,0.0001,0.0000,1.0000,-0.0669,-0.0363,0.2316
25386,Right,2,0.1581,-0.0434,-0.8681,0.4685,-0.0050,0.0085,0.0026,-0.0182,-0.0535,-0.0180,-2.2375,2.2054,9.2774,-0.0001,0.0001,0.0000,1.0000,-0.0559,0.0551,0.2319
25386,Pelvis,2,-0.6587,-0.0553,-0.7484,0.0546,-0.0075,0.0354,0.0130,-0.1004,0.0856,-0.0121,9.7341,0.0068,1.1476,-0.0001,0.0004,0.0002,1.0000,0.2434,0.0002,0.0286
25386,Left,2,0.1494,0.0599,-0.9817,-0.1021,0.0103,0.0023,0.0024,-0.0796,0.0151,-0.0774,-2.6590,-1.4410,9.2539,0.0001,0.0000,0.0000,1.0000,-0.0665,-0.0361,0.2313
25387,Right,2,0.1581,-0.0433,-0.8682,0.4683,-0.0061,0.0055,0.0051,-0.0392,-0.0599,-0.0333,-2.2184,2.1872,9.2702,-0.0001,0.0001,0.0001,1.0000,-0.0554,0.0547,0.2318
25387,Pelvis,2,-0.6585,-0.0555,-0.7485,0.0550,0.0301,0.0125,0.0114,-0.0932,-0.0133,-0.0982,9.6479,0.1021,1.1342,0.0004,0.0002,0.0001,1.0000,0.2412,0.0026,0.0283
25387,Left,2,0.1493,0.0601,-0.9817,-0.1015,0.0082,0.0014,0.0023,-0.0788,0.0247,-0.0495,-2.6647,-1.4556,9.2795,0.0001,0.0000,0.0000,1.0000,-0.0666,-0.0364,0.2320
25388,Right,2,0.1581,-0.0433,-0.8684,0.4681,-0.0061,0.0064,0.0045,-0.0040,-0.0580,-0.0209,-2.2413,2.2154,9.2710,-0.0001,0.0001,0.0001,1.0000,-0.0560,0.0554,0.2318
25388,Pelvis,2,-0.6586,-0.0560,-0.7484,0.0555,0.0498,-0.0077,0.0037,-0.1523,0.0300,-0.0123,9.7402,0.0503,1.0942,0.0006,-0.0001,0.0000,1.0000,0.2435,0.0013,0.0274
25388,Left,2,0.1492,0.0603,-0.9818,-0.1011,0.0047,0.0017,0.0009,-0.0837,0.0159,-0.0674,-2.6560,-1.4452,9.2647,0.0001,0.0000,0.0000,1.0000,-0.0664,-0.0361,0.2316
25389,Right,2,0.1580,-0.0433,-0.8686,0.4676,-0.0063,0.0057,0.0046,-0.0284,-0.0249,-0.0242,-2.2557,2.1751,9.2735,-0.0001,0.0001,0.0001,1.0000,-0.0564,0.0544,0.2318
25389,Pelvis,2,-0.6587,-0.0566,-0.7481,0.0562,0.0788,-0.0204,0.0076,-0.0611,0.0288,0.0314,9.7725,0.0671,1.1851,0.0010,-0.0003,0.0001,1.0000,0.2443,0.0017,0.0297
25389,Left,2,0.1492,0.0604,-0.9818,-0.1009,0.0038,0.0044,0.0009,-0.0608,0.0520,-0.0859,-2.6638,-1.4836,9.2368,0.0000,0.0001,0.0000,1.0000,-0.0666,-0.0371,0.2309
25390,Right,2,0.1580,-0.0432,-0.8685,0.4678,-0.0050,0.0037,0.0043,-0.0291,-0.0465,-0.0245,-2.2376,2.1848,9.2753,-0.0001,0.0000,0.0001,1.0000,-0.0559,0.0546,0.2319
25390,Pelvis,2,-0.6590,-0.0571,-0.7478,0.0568,0.0698,-0.0340,0.0181,-0.0275,-0.0995,-0.0317,9.7078,0.1978,1.1825,0.0009,-0.0004,0.0002,1.0000,0.2427,0.0050,0.0297
25390,Left,2,0.1492,0.0604,-0.9817,-0.1014,0.0075,0.0053,0.0026,-0.0881,0.0411,-0.0854,-2.6405,-1.4693,9.2465,0.0001,0.0001,0.0000,1.0000,-0.0660,-0.0368,0.2312
25391,Right,2,0.1579,-0.0432,-0.8687,0.4676,-0.0052,0.0015,0.0041,-0.0267,-0.0550,-0.0351,-2.2291,2.1875,9.2655,-0.0001,0.0000,0.0001,1.0000,-0.0557,0.0547,0.2316
25391,Pelvis,2,-0.6594,-0.0576,-0.7474,0.0575,0.0529,-0.0422,0.0124,-0.0291,-0.0274,-0.1436,9.5974,0.1232,1.1690,0.0007,-0.0005,0.0002,1.0000,0.2399,0.0031,0.0294
25391,Left,2,0.1493,0.0604,-0.9817,-0.1014,0.0084,0.0061,0.0017,-0.0655,0.0331,-0.0695,-2.6681,-1.4689,9.2552,0.0001,0.0001,0.0000,1.0000,-0.0667,-0.0367,0.2314
25392,Right,2,0.1578,-0.0431,-0.8687,0.4675,-0.0058,-0.0007,0.0058,-0.0251,-0.0464,-0.0150,-2.2409,2.1868,9.2841,-0.0001,-0.0000,0.0001,1.0000,-0.0560,0.0547,0.2321
25392,Pelvis,2,-0.6599,-0.0581,-0.7469,0.0577,0.0378,-0.0528,-0.0034,-0.0712,0.0704,-0.0978,9.6486,0.0206,1.1376,0.0005,-0.0007,-0.0000,1.0000,0.2412,0.0005,0.0286
25392,Left,2,0.1493,0.0604,-0.9817,-0.1013,0.0127,0.0069,0.0036,-0.0731,0.0351,-0.0685,-2.6612,-1.4699,9.2582,0.0002,0.0001,0.0000,1.0000,-0.0665,-0.0368,0.2315
25393,Right,2,0.1578,-0.0429,-0.8684,0.4682,-0.0072,0.0006,0.0052,-0.0246,-0.0548,-0.0351,-2.2286,2.1853,9.2662,-0.0001,0.0000,0.0001,1.0000,-0.0557,0.0546,0.2317
25393,Pelvis,2,-0.6605,-0.0586,-0.7463,0.0580,0.0504,-0.0721,-0.0035,-0.0747,0.1422,0.0191,9.7661,-0.0472,1.1449,0.0006,-0.0009,-0.0000,1.0000,0.2441,-0.0012,0.0288
25393,Left,2,0.1493,0.0603,-0.9817,-0.1017,0.0116,0.0054,0.0049,-0.0635,0.0481,-0.0758,-2.6656,-1.4826,9.2471,0.0001,0.0001,0.0001,1.0000,-0.0666,-0.0371,0.2312
25394,Right,2,0.1577,-0.0428,-0.8682,0.4686,-0.0050,0.0003,0.0077,-0.0324,-0.0587,-0.0333,-2.2212,2.1796,9.2713,-0.0001,0.0000,0.0001,1.0000,-0.0555,0.0545,0.2318
25394,Pelvis,2,-0.6610,-0.0589,-0.7458,0.0583,0.0280,-0.0547,0.0051,0.0001,0.0039,0.0293,9.7703,0.1026,1.1809,0.0004,-0.0007,0.0001,1.0000,0.2442,0.0026,0.0297
25394,Left,2,0.1493,0.0603,-0.9817,-0.1016,0.0136,0.0081,0.0035,-0.0756,0.0291,-0.0991,-2.6522,-1.4583,9.2304,0.0002,0.0001,0.0000,1.0000,-0.0663,-0.0365,0.2308
25395,Right,2,0.1576,-0.0427,-0.8677,0.4694,-0.0004,-0.0043,0.0058,-0.0171,-0.0422,-0.0359,-2.2406,2.1809,9.2635,-0.0000,-0.0001,0.0001,1.0000,-0.0560,0.0545,0.2316
25395,Pelvis,2,-0.6618,-0.0588,-0.7451,0.0579,-0.0227,-0.0845,-0.0112,0.0928,-0.1265,-0.0830,9.6511,0.2464,1.2196,-0.0003,-0.0011,-0.0001,1.0000,0.2412,0.0061,0.0307
25395,Left,2,0.1493,0.0604,-0.9818,-0.1009,0.0156,0.0049,0.0043,-0.0539,0.0361,-0.0768,-2.6774,-1.4721,9.2442,0.0002,0.0001,0.0001,1.0000,-0.0669,-0.0369,0.2311
25396,Right,2,0.1577,-0.0429,-0.8677,0.4695,0.0225,-0.0047,0.0038,0.0153,0.0023,0.0487,-2.3118,2.2029,9.3300,0.0003,-0.0001,0.0000,1.0000,-0.0578,0.0550,0.2333
25396,Pelvis,2,-0.6628,-0.0583,-0.7444,0.0566,-0.0863,-0.0979,-0.0342,0.0636,-0.2457,-0.1461,9.5954,0.3628,1.1424,-0.0011,-0.0012,-0.0004,1.0000,0.2399,0.0090,0.0288
25396,Left,2,0.1492,0.0604,-0.9819,-0.1001,0.0195,0.0055,0.0047,-0.0572,0.0454,-0.0795,-2.6717,-1.4794,9.2420,0.0002,0.0001,0.0001,1.0000,-0.0668,-0.0370,0.2310
25397,Right,2,0.1577,-0.0436,-0.8677,0.4693,0.0573,-0.0197,-0.0042,-0.0358,-0.0627,-0.0219,-2.2121,2.1909,9.2829,0.0007,-0.0002,-0.0001,1.0000,-0.0554,0.0546,0.2321
25397,Pelvis,2,-0.6636,-0.0575,-0.7438,0.0549,-0.1369,-0.0806,-0.0521,-0.0041,-0.1563,-0.0492,9.7009,0.2723,1.0807,-0.0017,-0.0010,-0.0007,1.0000,0.2425,0.0067,0.0272
25397,Left,2,0.1492,0.0602,-0.9819,-0.1003,0.0242,0.0061,0.0047,-0.0662,0.0423,-0.0657,-2.6679,-1.4742,9.2584,0.0003,0.0001,0.0001,1.0000,-0.0667,-0.0369,0.2315
25398,Right,2,0.1580,-0.0440,-0.8674,0.4698,0.0425,0.0010,0.0043,-0.0645,-0.0600,-0.0551,-2.1893,2.1696,9.2584,0.0005,0.0000,0.0001,1.0000,-0.0547,0.0541,0.2315
25398,Pelvis,2,-0.6642,-0.0566,-0.7435,0.0532,-0.1476,-0.0538,-0.0559,0.0314,0.0379,0.2313,9.9762,0.0992,1.1619,-0.0018,-0.0007,-0.0007,1.0000,0.2494,0.0024,0.0292
25398,Left,2,0.1493,0.0600,-0.9819,-0.1003,0.0262,0.0092,0.0067,-0.0754,0.0260,-0.0800,-2.6593,-1.4512,9.2495,0.0003,0.0001,0.0001,1.0000,-0.0665,-0.0364,0.2312
25399,Right,2,0.1581,-0.0444,-0.8676,0.4695,0.0316,-0.0032,0.0053,-0.0227,-0.0845,-0.0651,-2.1867,2.2227,9.2358,0.0004,-0.0000,0.0001,1.0000,-0.0547,0.0555,0.2309
25399,Pelvis,2,-0.6647,-0.0557,-0.7433,0.0514,-0.1457,-0.0475,-0.0472,0.0636,0.1540,0.2782,10.0202,-0.0010,1.2038,-0.0018,-0.0006,-0.0006,1.0000,0.2505,-0.0001,0.0302
25399,Left,2,0.1493,0.0598,-0.9818,-0.1007,0.0279,0.0103,0.0087,-0.0591,0.0286,-0.0757,-2.6763,-1.4531,9.2487,0.0003,0.0001,0.0001,1.0000,-0.0669,-0.0364,0.2312
25400,Right,2,0.1581,-0.0447,-0.8677,0.4691,0.0190,-0.0015,0.0071,-0.0151,-0.0498,-0.0655,-2.2179,2.2150,9.2295,0.0002,-0.0000,0.0001,1.0000,-0.0555,0.0553,0.2308
25400,Pelvis,2,-0.6653,-0.0547,-0.7429,0.0497,-0.1469,-0.0613,-0.0419,0.0836,0.0061,-0.0639,9.6799,0.1501,1.1502,-0.0018,-0.0008,-0.0005,1.0000,0.2420,0.0037,0.0289
25400,Left,2,0.1493,0.0597,-0.9819,-0.1000,0.0289,0.0061,0.0070,-0.0629,0.0171,-0.0720,-2.6771,-1.4381,9.2547,0.0004,0.0001,0.0001,1.0000,-0.0669,-0.0360,0.2314
25401,Right,2,0.1581,-0.0449,-0.8676,0.4693,0.0224,-0.0052,0.0076,-0.0339,-0.0315,-0.0204,-2.2322,2.2044,9.2763,0.0003,-0.0001,0.0001,1.0000,-0.0558,0.0550,0.2319
25401,Pelvis,2,-0.6659,-0.0536,-0.7426,0.0479,-0.1642,-0.0537,-0.0445,0.0860,-0.0847,-0.1175,9.6279,0.2457,1.1200,-0.0021,-0.0007,-0.0006,1.0000,0.2407,0.0061,0.0281
25401,Left,2,0.1493,0.0594,-0.9819,-0.1001,0.0276,0.0057,0.0066,-0.0550,0.0116,-0.0947,-2.6795,-1.4266,9.2318,0.0003,0.0001,0.0001,1.0000,-0.0670,-0.0358,0.2308
25402,Right,2,0.1581,-0.0452,-0.8677,0.4690,0.0234,-0.0048,0.0078,-0.0286,-0.0574,-0.0523,-2.2038,2.2209,9.2456,0.0003,-0.0001,0.0001,1.0000,-0.0551,0.0554,0.2312
25402,Pelvis,2,-0.6663,-0.0525,-0.7424,0.0461,-0.1616,-0.0329,-0.0456,0.0771,-0.0302,0.0497,9.7961,0.1996,1.1273,-0.0020,-0.0004,-0.0006,1.0000,0.2449,0.0049,0.0283
25402,Left,2,0.1493,0.0592,-0.9819,-0.1002,0.0238,0.0053,0.0056,-0.0536,0.0425,-0.0730,-2.6805,-1.4566,9.2498,0.0003,0.0001,0.0001,1.0000,-0.0670,-0.0365,0.2312
25403,Right,2,0.1582,-0.0454,-0.8675,0.4695,0.0186,-0.0009,0.0098,-0.0130,-0.0628,-0.0457,-2.2070,2.2425,9.2465,0.0002,-0.0000,0.0001,1.0000,-0.0552,0.0560,0.2312
25403,Pelvis,2,-0.6662,-0.0515,-0.7427,0.0445,-0.1415,0.0177,-0.0445,0.0794,-0.0254,0.1898,9.9351,0.2046,1.1439,-0.0018,0.0002,-0.0006,1.0000,0.2484,0.0050,0.0285
25403,Left,2,0.1492,0.0592,-0.9820,-0.0997,0.0230,0.0041,0.0058,-0.0629,0.0258,-0.0873,-2.6712,-1.4341,9.2410,0.0003,0.0001,0.0001,1.0000,-0.0668,-0.0359,0.2310
25404,Right,2,0.1583,-0.0454,-0.8672,0.4699,0.0106,0.0031,0.0091,-0.0120,-0.0932,-0.0567,-2.1788,2.2606,9.2374,0.0001,0.0000,0.0001,1.0000,-0.0545,0.0565,0.2309
25404,Pelvis,2,-0.6657,-0.0508,-0.7432,0.0433,-0.1108,0.0568,-0.0359,0.1718,0.0236,0.1977,9.9318,0.1750,1.2522,-0.0014,0.0007,-0.0004,1.0000,0.2483,0.0043,0.0311
25404,Left,2,0.1492,0.0591,-0.9820,-0.1000,0.0185,0.0031,0.0045,-0.0629,0.0151,-0.0530,-2.6831,-1.4262,9.2749,0.0002,0.0000,0.0001,1.0000,-0.0671,-0.0357,0.2319
25405,Right,2,0.1583,-0.0453,-0.8669,0.4704,-0.0022,0.0067,0.0082,-0.0138,-0.0755,-0.0355,-2.1973,2.2549,9.2567,-0.0000,0.0001,0.0001,1.0000,-0.0549,0.0564,0.2314
25405,Pelvis,2,-0.6651,-0.0504,-0.7438,0.0425,-0.0603,0.0647,-0.0282,0.0831,0.1777,0.1287,9.8715,0.0149,1.1928,-0.0008,0.0008,-0.0004,1.0000,0.2468,0.0003,0.0296
25405,Left,2,0.1492,0.0589,-0.9819,-0.1010,0.0119,0.0030,0.0016,-0.0676,0.0075,-0.0709,-2.6748,-1.4137,9.2603,0.0001,0.0000,0.0000,1.0000,-0.0669,-0.0354,0.2315
25406,Right,2,0.1583,-0.0450,-0.8665,0.4713,-0.0080,0.0069,0.0073,-0.0163,-0.0664,-0.0343,-2.2044,2.2465,9.2582,-0.0001,0.0001,0.0001,1.0000,-0.0551,0.0562,0.2315
25406,Pelvis,2,-0.6641,-0.0505,-0.7447,0.0424,0.0094,0.1036,-0.0188,-0.0418,0.2728,0.1568,9.9113,-0.0898,1.1062,0.0001,0.0013,-0.0002,1.0000,0.2478,-0.0023,0.0273
25406,Left,2,0.1492,0.0591,-0.9819,-0.1005,0.0069,0.0028,0.0004,-0.0734,0.0143,-0.0825,-2.6638,-1.4187,9.2506,0.0001,0.0000,0.0000,1.0000,-0.0666,-0.0355,0.2313
25407,Right,2,0.1582,-0.0449,-0.8667,0.4710,-0.0131,0.0082,0.0068,0.0096,-0.0462,-0.0293,-2.2362,2.2546,9.2538,-0.0002,0.0001,0.0001,1.0000,-0.0559,0.0564,0.2313
25407,Pelvis,2,-0.6628,-0.0514,-0.7458,0.0432,0.0842,0.1413,-0.0114,-0.1198,0.2469,0.1336,9.8939,-0.0698,1.0534,0.0011,0.0018,-0.0001,1.0000,0.2474,-0.0018,0.0259
25407,Left,2,0.1491,0.0592,-0.9819,-0.1003,-0.0002,-0.0000,-0.0020,-0.0590,0.0112,-0.0656,-2.6818,-1.4231,9.2624,-0.0000,-0.0000,-0.0000,1.0000,-0.0670,-0.0356,0.2316
25408,Right,2,0.1582,-0.0447,-0.8667,0.4709,-0.0202,0.0086,0.0073,-0.0181,-0.0568,-0.0332,-2.2132,2.2334,9.2604,-0.0003,0.0001,0.0001,1.0000,-0.0553,0.0559,0.2315
25408,Pelvis,2,-0.6613,-0.0529,-0.7469,0.0446,0.1662,0.1450,-0.0007,-0.2077,0.1858,0.1294,9.8963,-0.0160,0.9936,0.0021,0.0018,-0.0000,1.0000,0.2475,-0.0005,0.0244
25408,Left,2,0.1490,0.0597,-0.9820,-0.0993,-0.0075,0.0013,-0.0007,-0.0731,0.0227,-0.0761,-2.6617,-1.4349,9.2554,-0.0001,0.0000,-0.0000,1.0000,-0.0665,-0.0359,0.2314
25409,Right,2,0.1580,-0.0444,-0.8668,0.4708,-0.0244,0.0059,0.0058,-0.0252,-0.0467,-0.0512,-2.2143,2.2129,9.2461,-0.0003,0.0001,0.0001,1.0000,-0.0553,0.0554,0.2311
25409,Pelvis,2,-0.6600,-0.0550,-0.7478,0.0469,0.2455,0.1293,0.0155,-0.1656,0.0525,0.0923,9.8504,0.1244,1.0453,0.0031,0.0016,0.0002,1.0000,0.2463,0.0031,0.0257
25409,Left,2,0.1489,0.0601,-0.9821,-0.0989,-0.0112,-0.0006,-0.0034,-0.0642,0.0141,-0.0772,-2.6702,-1.4336,9.2520,-0.0001,-0.0000,-0.0000,1.0000,-0.0668,-0.0358,0.2313
25410,Right,2,0.1578,-0.0442,-0.8669,0.4707,-0.0268,0.0022,0.0069,-0.0310,-0.0504,-0.0398,-2.2108,2.2068,9.2605,-0.0003,0.0000,0.0001,1.0000,-0.0553,0.0552,0.2315
25410,Pelvis,2,-0.6587,-0.0576,-0.7486,0.0496,0.2922,0.1253,0.0156,-0.2059,0.1406,-0.0999,9.6617,0.0307,1.0252,0.0037,0.0016,0.0002,1.0000,0.2416,0.0007,0.0253
25410,Left,2,0.1488,0.0605,-0.9821,-0.0986,-0.0145,-0.0019,-0.0039,-0.0607,0.0134,-0.0682,-2.6744,-1.4412,9.2591,-0.0002,-0.0000,-0.0000,1.0000,-0.0669,-0.0360,0.2315
25411,Right,2,0.1576,-0.0439,-0.8670,0.4706,-0.0264,0.0030,0.0044,-0.0236,-0.0509,-0.0112,-2.2202,2.2130,9.2869,-0.0003,0.0000,0.0001,1.0000,-0.0555,0.0554,0.2322
25411,Pelvis,2,-0.6574,-0.0607,-0.7492,0.0525,0.3408,0.1120,0.0034,-0.1576,0.1678,-0.1403,9.6124,0.0164,1.0997,0.0043,0.0014,0.0000,1.0000,0.2403,0.0003,0.0272
25411,Left,2,0.1488,0.0608,-0.9820,-0.0988,-0.0155,0.0002,-0.0041,-0.0733,0.0312,-0.0913,-2.6507,-1.4593,9.2388,-0.0002,0.0000,-0.0001,1.0000,-0.0663,-0.0364,0.2310
25412,Right,2,0.1574,-0.0437,-0.8672,0.4704,-0.0269,0.0002,0.0044,-0.0160,-0.0465,-0.0226,-2.2244,2.2076,9.2751,-0.0003,0.0000,0.0001,1.0000,-0.0556,0.0553,0.2319
25412,Pelvis,2,-0.6564,-0.0640,-0.7497,0.0556,0.3535,0.0900,0.0012,-0.0742,0.0250,-0.1042,9.6344,0.1809,1.1861,0.0044,0.0011,0.0000,1.0000,0.2409,0.0044,0.0294
25412,Left,2,0.1488,0.0611,-0.9820,-0.0991,-0.0137,0.0016,-0.0053,-0.0609,0.0467,-0.0896,-2.6581,-1.4833,9.2346,-0.0002,0.0000,-0.0001,1.0000,-0.0665,-0.0370,0.2309
25413,Right,2,0.1572,-0.0433,-0.8672,0.4705,-0.0264,0.0022,0.0051,-0.0274,-0.0414,-0.0196,-2.2232,2.1895,9.2828,-0.0003,0.0000,0.0001,1.0000,-0.0556,0.0548,0.2321
25413,Pelvis,2,-0.6555,-0.0670,-0.7500,0.0584,0.3232,0.0689,0.0051,-0.0174,-0.1751,-0.1285,9.6003,0.3965,1.2210,0.0040,0.0009,0.0001,1.0000,0.2400,0.0098,0.0304
25413,Left,2,0.1489,0.0612,-0.9819,-0.0998,-0.0104,0.0033,-0.0014,-0.0600,0.0442,-0.0896,-2.6586,-1.4862,9.2340,-0.0001,0.0000,-0.0000,1.0000,-0.0665,-0.0371,0.2309
25414,Right,2,0.1571,-0.0431,-0.8672,0.4705,-0.0217,0.0036,0.0031,-0.0250,-0.0500,-0.0302,-2.2147,2.1878,9.2741,-0.0003,0.0000,0.0000,1.0000,-0.0554,0.0548,0.2318
25414,Pelvis,2,-0.6548,-0.0695,-0.7501,0.0608,0.2775,0.0513,0.0087,-0.0153,-0.1734,-0.0993,9.6272,0.4034,1.2383,0.0035,0.0006,0.0001,1.0000,0.2407,0.0100,0.0308
25414,Left,2,0.1489,0.0615,-0.9819,-0.0994,0.0005,0.0113,-0.0005,-0.0793,0.0403,-0.0621,-2.6495,-1.4877,9.2654,0.0000,0.0001,-0.0000,1.0000,-0.0662,-0.0372,0.2316
25415,Right,2,0.1570,-0.0428,-0.8670,0.4710,-0.0159,0.0058,0.0037,-0.0385,-0.0444,-0.0367,-2.2113,2.1674,9.2728,-0.0002,0.0001,0.0000,1.0000,-0.0553,0.0542,0.2318
25415,Pelvis,2,-0.6543,-0.0716,-0.7502,0.0629,0.2272,0.0366,0.0116,-0.0857,-0.1981,-0.0512,9.6833,0.4213,1.1794,0.0028,0.0005,0.0001,1.0000,0.2421,0.0105,0.0294
25415,Left,2,0.1489,0.0616,-0.9819,-0.0992,0.0003,0.0025,0.0002,-0.0543,0.0454,-0.0932,-2.6632,-1.4953,9.2274,0.0000,0.0000,0.0000,1.0000,-0.0666,-0.0374,0.2307
25416,Right,2,0.1569,-0.0427,-0.8671,0.4709,-0.0120,0.0033,0.0055,-0.0354,-0.0443,-0.0272,-2.2151,2.1684,9.2817,-0.0002,0.0000,0.0001,1.0000,-0.0554,0.0542,0.2320
25416,Pelvis,2,-0.6539,-0.0731,-0.7503,0.0645,0.1713,0.0286,0.0116,-0.0913,-0.1769,-0.0749,9.6597,0.4019,1.1801,0.0021,0.0004,0.0001,1.0000,0.2415,0.0100,0.0294
