PacketId,Role,StatusWord,Qx,Qy,Qz,Qw,Gx,Gy,Gz,FreeAx,FreeAy,FreeAz,Ax,Ay,Az,DQx,DQy,DQz,DQw,DVx,DVy,DVz
200273,Left,0,0.3471,0.0596,-0.9341,0.0579,0.0008,0.0079,0.0076,-0.0000,-0.0000,-0.0098,-6.4252,-0.6973,7.3707,0.0000,0.0001,0.0001,1.0000,-0.1606,-0.0175,0.1843
200273,Right,0,0.2828,-0.0996,-0.9457,-0.1252,0.0117,0.0086,-0.0001,-0.0000,-0.0000,-0.0602,-5.4613,1.1477,7.9979,0.0001,0.0001,-0.0000,1.0000,-0.1365,0.0287,0.2000
200273,Pelvis,0,-0.5408,-0.4528,-0.5326,0.4679,0.0259,0.0192,0.0056,0.0000,0.0000,0.0043,9.8140,-0.2343,0.0523,0.0003,0.0002,0.0001,1.0000,0.2454,-0.0058,0.0012
200274,Left,0,0.3472,0.0596,-0.9341,0.0579,0.0003,0.0051,0.0061,-0.0101,0.0010,-0.0158,-6.4135,-0.6996,7.3727,0.0000,0.0001,0.0001,1.0000,-0.1603,-0.0175,0.1843
200274,Right,0,0.2829,-0.0997,-0.9457,-0.1252,0.0107,0.0068,-0.0013,-0.0058,0.0047,-0.0691,-5.4506,1.1437,7.9950,0.0001,0.0001,-0.0000,1.0000,-0.1362,0.0286,0.1999
200274,Pelvis,0,-0.5405,-0.4528,-0.5326,0.4682,0.0248,0.0245,0.0025,0.0002,-0.0039,0.0397,9.8495,-0.2339,0.0493,0.0003,0.0003,0.0000,1.0000,0.2462,-0.0058,0.0012
200275,Left,0,0.3473,0.0596,-0.9341,0.0580,0.0001,0.0094,0.0098,-0.0164,0.0022,-0.0342,-6.3982,-0.6991,7.3616,0.0000,0.0001,0.0001,1.0000,-0.1599,-0.0175,0.1841
200275,Right,0,0.2830,-0.0999,-0.9457,-0.1252,0.0120,0.0085,0.0013,-0.0225,-0.0148,-0.0933,-5.4286,1.1665,7.9773,0.0001,0.0001,0.0000,1.0000,-0.1357,0.0291,0.1995
200275,Pelvis,0,-0.5402,-0.4527,-0.5327,0.4685,0.0194,0.0297,0.0056,0.0170,-0.0171,0.0334,9.8437,-0.2163,0.0462,0.0002,0.0004,0.0001,1.0000,0.2461,-0.0054,0.0011
200276,Left,0,0.3474,0.0595,-0.9340,0.0581,0.0025,0.0140,0.0095,-0.0133,0.0016,-0.0250,-6.4089,-0.6969,7.3647,0.0000,0.0002,0.0001,1.0000,-0.1602,-0.0174,0.1841
200276,Right,0,0.2831,-0.1000,-0.9456,-0.1253,0.0116,0.0131,-0.0034,-0.0122,-0.0228,-0.0978,-5.4379,1.1728,7.9645,0.0001,0.0002,-0.0000,1.0000,-0.1359,0.0293,0.1991
200276,Pelvis,0,-0.5400,-0.4525,-0.5328,0.4689,0.0106,0.0348,0.0067,0.0087,0.0199,-0.0028,9.8068,-0.2307,0.0894,0.0001,0.0004,0.0001,1.0000,0.2452,-0.0057,0.0021
200277,Left,0,0.3476,0.0595,-0.9339,0.0582,-0.0008,0.0131,0.0090,-0.0038,-0.0002,0.0027,-6.4367,-0.6941,7.3775,-0.0000,0.0002,0.0001,1.0000,-0.1609,-0.0174,0.1845
200277,Right,0,0.2832,-0.1002,-0.9455,-0.1254,0.0104,0.0100,-0.0022,0.0010,0.0042,-0.0536,-5.4709,1.1504,7.9992,0.0001,0.0001,-0.0000,1.0000,-0.1367,0.0287,0.2000
200277,Pelvis,0,-0.5398,-0.4524,-0.5329,0.4691,0.0101,0.0314,0.0053,-0.0165,0.0545,-0.0154,9.7932,-0.2618,0.1268,0.0001,0.0004,0.0001,1.0000,0.2448,-0.0065,0.0031
200278,Left,0,0.3477,0.0594,-0.9339,0.0583,0.0006,0.0103,0.0101,0.0097,-0.0122,-0.0130,-6.4380,-0.6776,7.3570,0.0000,0.0001,0.0001,1.0000,-0.1609,-0.0170,0.1839
200278,Right,0,0.2833,-0.1003,-0.9455,-0.1254,0.0108,0.0114,0.0002,-0.0106,-0.0014,-0.0488,-5.4673,1.1618,8.0058,0.0001,0.0001,0.0000,1.0000,-0.1367,0.0290,0.2002
200278,Pelvis,0,-0.5395,-0.4522,-0.5330,0.4694,0.0125,0.0254,0.0043,-0.0422,0.0831,-0.0369,9.7705,-0.2922,0.1591,0.0002,0.0003,0.0001,1.0000,0.2443,-0.0073,0.0039
200279,Left,0,0.3478,0.0594,-0.9339,0.0584,-0.0008,0.0067,0.0071,0.0038,0.0086,-0.0097,-6.4389,-0.6978,7.3588,-0.0000,0.0001,0.0001,1.0000,-0.1610,-0.0175,0.1840
200279,Right,0,0.2834,-0.1005,-0.9455,-0.1254,0.0114,0.0059,0.0013,-0.0070,0.0190,-0.0558,-5.4644,1.1429,8.0020,0.0001,0.0001,0.0000,1.0000,-0.1366,0.0285,0.2001
200279,Pelvis,0,-0.5394,-0.4522,-0.5330,0.4696,0.0114,0.0093,0.0057,-0.0192,0.1059,-0.0371,9.7705,-0.2741,0.1895,0.0001,0.0001,0.0001,1.0000,0.2443,-0.0068,0.0047
200280,Left,0,0.3479,0.0593,-0.9338,0.0585,0.0024,0.0040,0.0087,-0.0160,0.0019,-0.0033,-6.4289,-0.6933,7.3765,0.0000,0.0001,0.0001,1.0000,-0.1607,-0.0174,0.1844
200280,Right,0,0.2834,-0.1006,-0.9454,-0.1254,0.0106,0.0034,-0.0001,-0.0033,0.0114,-0.0760,-5.4583,1.1489,7.9807,0.0001,0.0000,-0.0000,1.0000,-0.1364,0.0287,0.1995
200280,Pelvis,0,-0.5394,-0.4522,-0.5329,0.4697,0.0082,-0.0033,0.0086,-0.0141,0.1156,-0.0316,9.7759,-0.2727,0.2026,0.0001,-0.0000,0.0001,1.0000,0.2444,-0.0068,0.0051
200281,Left,0,0.3479,0.0593,-0.9338,0.0586,0.0022,0.0031,0.0075,-0.0266,0.0137,-0.0093,-6.4186,-0.7043,7.3766,0.0000,0.0000,0.0001,1.0000,-0.1605,-0.0176,0.1844
200281,Right,0,0.2835,-0.1007,-0.9454,-0.1255,0.0123,0.0073,0.0000,-0.0200,0.0199,-0.0869,-5.4380,1.1467,7.9815,0.0002,0.0001,0.0000,1.0000,-0.1359,0.0286,0.1996
200281,Pelvis,0,-0.5394,-0.4522,-0.5328,0.4698,0.0027,-0.0119,0.0084,-0.0141,0.0971,-0.0141,9.7935,-0.2728,0.1847,0.0000,-0.0001,0.0001,1.0000,0.2448,-0.0068,0.0047
200282,Left,0,0.3480,0.0592,-0.9338,0.0587,0.0024,0.0040,0.0087,-0.0098,0.0010,-0.0158,-6.4267,-0.6872,7.3624,0.0000,0.0001,0.0001,1.0000,-0.1607,-0.0172,0.1841
200282,Right,0,0.2835,-0.1009,-0.9453,-0.1255,0.0105,0.0083,-0.0009,-0.0118,0.0050,-0.0847,-5.4500,1.1607,7.9740,0.0001,0.0001,-0.0000,1.0000,-0.1362,0.0290,0.1994
200282,Pelvis,0,-0.5395,-0.4521,-0.5327,0.4698,-0.0045,-0.0119,0.0063,-0.0148,0.0747,-0.0057,9.8021,-0.2725,0.1618,-0.0001,-0.0001,0.0001,1.0000,0.2451,-0.0068,0.0041
200283,Right,0,0.2836,-0.1010,-0.9453,-0.1255,0.0119,0.0061,0.0010,-0.0057,0.0115,-0.0625,-5.4675,1.1576,7.9896,0.0001,0.0001,0.0000,1.0000,-0.1367,0.0289,0.1998
200283,Pelvis,0,-0.5396,-0.4520,-0.5327,0.4697,-0.0069,-0.0111,0.0031,-0.0289,0.0458,-0.0042,9.8037,-0.2837,0.1298,-0.0001,-0.0001,0.0000,1.0000,0.2451,-0.0071,0.0033
200284,Left,0,0.3480,0.0591,-0.9338,0.0588,0.0021,0.0033,0.0082,-0.0193,0.0173,-0.0062,-6.4280,-0.7028,7.3725,0.0001,0.0001,0.0002,1.0000,-0.3214,-0.0352,0.3686
200284,Right,0,0.2836,-0.1012,-0.9453,-0.1256,0.0122,0.0071,0.0009,-0.0149,0.0122,-0.0645,-5.4598,1.1618,7.9917,0.0002,0.0001,0.0000,1.0000,-0.1365,0.0290,0.1998
200284,Pelvis,0,-0.5396,-0.4519,-0.5328,0.4698,-0.0067,-0.0026,0.0010,-0.0397,0.0702,0.0166,9.8238,-0.3000,0.1542,-0.0001,-0.0000,0.0000,1.0000,0.2456,-0.0075,0.0039
200285,Left,0,0.3481,0.0591,-0.9338,0.0589,-0.0008,0.0042,0.0074,-0.0164,0.0116,-0.0125,-6.4264,-0.6946,7.3663,-0.0000,0.0001,0.0001,1.0000,-0.1606,-0.0174,0.1842
200285,Right,0,0.2836,-0.1013,-0.9453,-0.1256,0.0116,0.0043,0.0017,-0.0111,0.0324,-0.0715,-5.4562,1.1431,7.9884,0.0001,0.0001,0.0000,1.0000,-0.1364,0.0285,0.1997
200285,Pelvis,0,-0.5396,-0.4517,-0.5330,0.4698,-0.0151,0.0101,-0.0011,0.0046,0.0535,0.0415,9.8499,-0.2550,0.1474,-0.0002,0.0001,-0.0000,1.0000,0.2462,-0.0064,0.0037
200286,Left,0,0.3481,0.0591,-0.9337,0.0590,0.0016,0.0063,0.0074,-0.0052,0.0195,-0.0156,-6.4340,-0.6996,7.3550,0.0000,0.0001,0.0001,1.0000,-0.1608,-0.0175,0.1839
200286,Right,0,0.2836,-0.1015,-0.9452,-0.1256,0.0124,0.0037,0.0026,-0.0129,0.0253,-0.0647,-5.4602,1.1536,7.9925,0.0002,0.0000,0.0000,1.0000,-0.1365,0.0288,0.1998
200286,Pelvis,0,-0.5395,-0.4514,-0.5332,0.4699,-0.0154,0.0151,-0.0014,-0.0250,0.0731,0.0235,9.8309,-0.2875,0.1673,-0.0002,0.0002,-0.0000,1.0000,0.2458,-0.0072,0.0041
200287,Left,0,0.3481,0.0591,-0.9337,0.0591,0.0016,0.0012,0.0080,-0.0198,0.0216,0.0000,-6.4340,-0.7037,7.3755,0.0000,0.0000,0.0001,1.0000,-0.1608,-0.0176,0.1844
200287,Right,0,0.2837,-0.1016,-0.9452,-0.1256,0.0124,0.0064,0.0007,-0.0059,0.0447,-0.0852,-5.4513,1.1330,7.9766,0.0002,0.0001,0.0000,1.0000,-0.1363,0.0283,0.1994
200287,Pelvis,0,-0.5395,-0.4512,-0.5335,0.4699,-0.0146,0.0129,0.0004,-0.0254,0.0788,-0.0119,9.7953,-0.2887,0.1790,-0.0002,0.0002,0.0000,1.0000,0.2449,-0.0072,0.0044
200288,Left,0,0.3482,0.0590,-0.9337,0.0591,0.0020,0.0048,0.0060,-0.0058,0.0091,-0.0157,-6.4336,-0.6873,7.3565,0.0000,0.0001,0.0001,1.0000,-0.1608,-0.0172,0.1839
200288,Right,0,0.2837,-0.1017,-0.9452,-0.1256,0.0110,0.0039,0.0029,-0.0032,0.0302,-0.0560,-5.4730,1.1515,7.9947,0.0001,0.0000,0.0000,1.0000,-0.1368,0.0288,0.1999
200288,Pelvis,0,-0.5394,-0.4509,-0.5337,0.4699,-0.0174,0.0073,0.0002,-0.0314,0.0605,-0.0264,9.7808,-0.2917,0.1652,-0.0002,0.0001,0.0000,1.0000,0.2445,-0.0073,0.0041
200289,Left,0,0.3482,0.0590,-0.9337,0.0592,0.0009,0.0039,0.0073,-0.0144,0.0301,-0.0216,-6.4253,-0.7080,7.3540,0.0000,0.0000,0.0001,1.0000,-0.1606,-0.0177,0.1839
200289,Right,0,0.2837,-0.1018,-0.9452,-0.1256,0.0117,0.0045,0.0009,-0.0295,0.0390,-0.0690,-5.4435,1.1512,7.9990,0.0001,0.0001,0.0000,1.0000,-0.1361,0.0287,0.2000
200289,Pelvis,0,-0.5395,-0.4507,-0.5338,0.4699,-0.0210,0.0020,0.0011,-0.0386,0.0667,-0.0187,9.7881,-0.3014,0.1731,-0.0003,0.0000,0.0000,1.0000,0.2447,-0.0075,0.0043
200290,Left,0,0.3482,0.0590,-0.9337,0.0592,0.0023,0.0036,0.0081,-0.0185,0.0205,-0.0309,-6.4158,-0.6976,7.3509,0.0000,0.0000,0.0001,1.0000,-0.1604,-0.0175,0.1838
200290,Right,0,0.2837,-0.1019,-0.9452,-0.1257,0.0117,0.0036,0.0015,-0.0070,0.0357,-0.0784,-5.4571,1.1484,7.9787,0.0001,0.0000,0.0000,1.0000,-0.1364,0.0287,0.1995
200290,Pelvis,0,-0.5397,-0.4505,-0.5340,0.4698,-0.0234,-0.0028,0.0021,-0.0334,0.0562,-0.0048,9.8022,-0.2965,0.1652,-0.0003,-0.0000,0.0000,1.0000,0.2451,-0.0074,0.0041
200291,Left,0,0.3482,0.0590,-0.9337,0.0593,0.0018,0.0027,0.0078,-0.0269,0.0014,-0.0186,-6.4165,-0.6801,7.3683,0.0000,0.0000,0.0001,1.0000,-0.1604,-0.0170,0.1842
200291,Right,0,0.2837,-0.1020,-0.9451,-0.1257,0.0111,0.0041,0.0021,-0.0059,0.0277,-0.0850,-5.4559,1.1566,7.9701,0.0001,0.0001,0.0000,1.0000,-0.1364,0.0289,0.1993
200291,Pelvis,0,-0.5399,-0.4502,-0.5340,0.4697,-0.0272,-0.0039,0.0053,-0.0317,0.0379,0.0126,9.8198,-0.2956,0.1481,-0.0003,-0.0000,0.0001,1.0000,0.2455,-0.0074,0.0037
200292,Left,0,0.3482,0.0590,-0.9337,0.0594,0.0004,0.0030,0.0070,-0.0182,0.0291,-0.0091,-6.4313,-0.7060,7.3655,0.0000,0.0000,0.0001,1.0000,-0.1608,-0.0177,0.1841
200292,Right,0,0.2837,-0.1021,-0.9451,-0.1257,0.0117,0.0036,0.0015,0.0013,0.0261,-0.0695,-5.4708,1.1595,7.9785,0.0001,0.0000,0.0000,1.0000,-0.1368,0.0290,0.1995
200292,Pelvis,0,-0.5401,-0.4498,-0.5342,0.4696,-0.0333,-0.0019,0.0075,-0.0413,0.0157,0.0106,9.8178,-0.3038,0.1264,-0.0004,-0.0000,0.0001,1.0000,0.2454,-0.0076,0.0032
200293,Left,0,0.3482,0.0590,-0.9337,0.0595,0.0006,0.0039,0.0082,-0.0085,0.0071,-0.0033,-6.4412,-0.6827,7.3668,0.0000,0.0000,0.0001,1.0000,-0.1610,-0.0171,0.1842
200293,Right,0,0.2837,-0.1022,-0.9451,-0.1257,0.0123,0.0036,0.0035,-0.0040,0.0463,-0.0785,-5.4578,1.1427,7.9789,0.0002,0.0000,0.0000,1.0000,-0.1364,0.0285,0.1995
200293,Pelvis,0,-0.5403,-0.4495,-0.5345,0.4694,-0.0369,-0.0005,0.0072,-0.0332,0.0288,0.0036,9.8108,-0.2989,0.1428,-0.0005,-0.0000,0.0001,1.0000,0.2453,-0.0074,0.0036
200294,Left,0,0.3483,0.0589,-0.9337,0.0595,0.0022,0.0031,0.0075,-0.0218,0.0191,-0.0184,-6.4225,-0.6944,7.3619,0.0000,0.0000,0.0001,1.0000,-0.1606,-0.0174,0.1841
200294,Right,0,0.2836,-0.1023,-0.9451,-0.1257,0.0117,0.0027,0.0022,0.0037,0.0375,-0.0696,-5.4706,1.1516,7.9797,0.0001,0.0000,0.0000,1.0000,-0.1368,0.0288,0.1995
200294,Pelvis,0,-0.5405,-0.4491,-0.5347,0.4693,-0.0372,-0.0009,0.0084,-0.0624,0.0530,-0.0054,9.8006,-0.3340,0.1628,-0.0005,-0.0000,0.0001,1.0000,0.2450,-0.0083,0.0041
200295,Left,0,0.3483,0.0589,-0.9336,0.0596,0.0020,0.0042,0.0075,-0.0216,0.0184,-0.0184,-6.4233,-0.6928,7.3614,0.0000,0.0001,0.0001,1.0000,-0.1606,-0.0173,0.1840
200295,Right,0,0.2836,-0.1025,-0.9451,-0.1258,0.0124,0.0046,0.0020,-0.0004,0.0508,-0.0853,-5.4557,1.1404,7.9724,0.0002,0.0001,0.0000,1.0000,-0.1364,0.0285,0.1993
200295,Pelvis,0,-0.5408,-0.4488,-0.5349,0.4691,-0.0364,-0.0031,0.0071,-0.0571,0.0634,0.0002,9.8060,-0.3330,0.1743,-0.0005,-0.0000,0.0001,1.0000,0.2452,-0.0083,0.0044
200296,Left,0,0.3483,0.0589,-0.9336,0.0597,0.0010,0.0024,0.0068,-0.0089,0.0157,-0.0124,-6.4370,-0.6878,7.3578,0.0000,0.0000,0.0001,1.0000,-0.1609,-0.0172,0.1839
200296,Right,0,0.2836,-0.1026,-0.9451,-0.1259,0.0127,0.0023,0.0022,-0.0025,0.0430,-0.0785,-5.4596,1.1509,7.9765,0.0002,0.0000,0.0000,1.0000,-0.1365,0.0287,0.1994
200296,Pelvis,0,-0.5410,-0.4485,-0.5350,0.4689,-0.0356,-0.0080,0.0081,-0.0591,0.0292,-0.0185,9.7878,-0.3317,0.1412,-0.0004,-0.0001,0.0001,1.0000,0.2447,-0.0083,0.0036
200297,Left,0,0.3483,0.0589,-0.9336,0.0597,0.0010,0.0043,0.0079,-0.0278,0.0084,-0.0060,-6.4267,-0.6834,7.3758,0.0000,0.0001,0.0001,1.0000,-0.1607,-0.0171,0.1844
200297,Right,0,0.2836,-0.1027,-0.9451,-0.1259,0.0117,0.0036,0.0015,-0.0148,0.0431,-0.0671,-5.4563,1.1574,7.9918,0.0001,0.0000,0.0000,1.0000,-0.1364,0.0289,0.1998
200297,Pelvis,0,-0.5413,-0.4481,-0.5352,0.4687,-0.0373,-0.0089,0.0098,-0.0462,0.0175,0.0057,9.8124,-0.3198,0.1321,-0.0005,-0.0001,0.0001,1.0000,0.2453,-0.0080,0.0033
200298,Left,0,0.3484,0.0589,-0.9336,0.0598,0.0020,0.0042,0.0075,-0.0179,0.0261,-0.0183,-6.4276,-0.6977,7.3573,0.0000,0.0001,0.0001,1.0000,-0.1607,-0.0175,0.1839
200298,Pelvis,0,-0.5417,-0.4478,-0.5354,0.4685,-0.0388,-0.0079,0.0113,-0.0718,0.0132,0.0190,9.8250,-0.3480,0.1226,-0.0005,-0.0001,0.0001,1.0000,0.2456,-0.0087,0.0031
200299,Left,0,0.3484,0.0589,-0.9336,0.0599,0.0005,0.0054,0.0087,-0.0246,0.0168,-0.0060,-6.4305,-0.6896,7.3720,0.0000,0.0001,0.0001,1.0000,-0.1607,-0.0173,0.1843
200299,Right,0,0.2837,-0.1029,-0.9450,-0.1259,0.0131,0.0049,0.0019,-0.0039,0.0442,-0.0684,-5.4649,1.1560,7.9845,0.0003,0.0001,0.0000,1.0000,-0.2732,0.0577,0.3993
200299,Pelvis,0,-0.5420,-0.4474,-0.5355,0.4683,-0.0422,-0.0054,0.0101,-0.0582,0.0118,0.0079,9.8142,-0.3378,0.1223,-0.0005,-0.0001,0.0001,1.0000,0.2454,-0.0084,0.0031
200300,Pelvis,0,-0.5422,-0.4470,-0.5358,0.4681,-0.0411,0.0056,0.0046,-0.0786,0.0187,0.0267,9.8322,-0.3622,0.1271,-0.0005,0.0001,0.0001,1.0000,0.2458,-0.0090,0.0032
200301,Left,0,0.3485,0.0588,-0.9335,0.0601,0.0028,0.0065,0.0086,-0.0215,0.0156,-0.0122,-6.4305,-0.6856,7.3640,0.0001,0.0002,0.0002,1.0000,-0.3215,-0.0344,0.3683
200301,Right,0,0.2836,-0.1031,-0.9450,-0.1260,0.0132,0.0046,0.0014,-0.0098,0.0487,-0.0773,-5.4544,1.1555,7.9809,0.0003,0.0001,0.0000,1.0000,-0.2727,0.0576,0.3991
200301,Pelvis,0,-0.5423,-0.4465,-0.5362,0.4680,-0.0407,0.0255,-0.0045,-0.1071,0.0260,0.0351,9.8397,-0.3935,0.1349,-0.0005,0.0003,-0.0001,1.0000,0.2460,-0.0099,0.0033
200302,Left,0,0.3486,0.0588,-0.9335,0.0601,0.0006,0.0064,0.0079,-0.0201,0.0342,-0.0058,-6.4383,-0.7029,7.3642,0.0000,0.0001,0.0001,1.0000,-0.1609,-0.0176,0.1841
200303,Left,0,0.3487,0.0588,-0.9335,0.0602,0.0022,0.0070,0.0098,-0.0236,0.0343,-0.0150,-6.4313,-0.7016,7.3582,0.0000,0.0001,0.0001,1.0000,-0.1608,-0.0176,0.1840
200303,Right,0,0.2837,-0.1034,-0.9450,-0.1261,0.0137,0.0056,0.0015,-0.0093,0.0460,-0.0773,-5.4564,1.1613,7.9787,0.0003,0.0001,0.0000,1.0000,-0.2728,0.0579,0.3990
200303,Pelvis,0,-0.5418,-0.4458,-0.5373,0.4680,-0.0270,0.0440,-0.0138,-0.0996,0.0411,0.0389,9.8433,-0.3851,0.1649,-0.0007,0.0011,-0.0003,1.0000,0.4922,-0.0194,0.0077
200304,Left,0,0.3487,0.0588,-0.9334,0.0603,0.0005,0.0060,0.0073,-0.0259,0.0141,-0.0152,-6.4288,-0.6815,7.3620,0.0000,0.0001,0.0001,1.0000,-0.1607,-0.0171,0.1841
200305,Left,0,0.3488,0.0588,-0.9334,0.0604,0.0010,0.0069,0.0076,-0.0267,0.0236,-0.0243,-6.4236,-0.6899,7.3536,0.0000,0.0001,0.0001,1.0000,-0.1606,-0.0173,0.1839
200305,Right,0,0.2839,-0.1035,-0.9449,-0.1261,0.0132,0.0089,0.0016,-0.0098,0.0572,-0.0706,-5.4604,1.1547,7.9851,0.0003,0.0002,0.0000,1.0000,-0.2729,0.0576,0.3993
200305,Pelvis,0,-0.5413,-0.4450,-0.5383,0.4683,-0.0167,0.0488,-0.0103,-0.0519,0.0412,0.0090,9.8142,-0.3347,0.1970,-0.0004,0.0012,-0.0003,1.0000,0.4907,-0.0169,0.0093
200307,Left,0,0.3489,0.0587,-0.9333,0.0606,0.0013,0.0067,0.0093,-0.0325,0.0242,-0.0119,-6.4295,-0.6901,7.3650,0.0000,0.0002,0.0002,1.0000,-0.3214,-0.0346,0.3683
200307,Right,0,0.2841,-0.1037,-0.9448,-0.1262,0.0117,0.0093,0.0003,0.0029,0.0531,-0.0675,-5.4774,1.1575,7.9768,0.0003,0.0002,0.0000,1.0000,-0.2738,0.0578,0.3989
200307,Pelvis,0,-0.5410,-0.4443,-0.5390,0.4684,-0.0179,0.0316,-0.0044,-0.0735,0.0394,-0.0482,9.7562,-0.3533,0.2122,-0.0004,0.0008,-0.0001,1.0000,0.4878,-0.0177,0.0102
200308,Left,0,0.3489,0.0587,-0.9334,0.0606,0.0032,0.0055,0.0068,-0.0123,0.0200,-0.0183,-6.4406,-0.6814,7.3474,0.0000,0.0001,0.0001,1.0000,-0.1610,-0.0171,0.1837
200308,Right,0,0.2841,-0.1038,-0.9447,-0.1264,0.0118,0.0059,0.0018,-0.0072,0.0689,-0.0809,-5.4607,1.1452,7.9738,0.0001,0.0001,0.0000,1.0000,-0.1365,0.0286,0.1994
200308,Pelvis,0,-0.5410,-0.4440,-0.5391,0.4686,-0.0046,0.0139,-0.0014,-0.1077,0.0680,-0.0271,9.7753,-0.3946,0.2463,-0.0001,0.0002,-0.0000,1.0000,0.2444,-0.0099,0.0061
200309,Left,0,0.3490,0.0586,-0.9333,0.0606,0.0004,0.0049,0.0081,-0.0307,0.0226,-0.0118,-6.4326,-0.6860,7.3627,0.0000,0.0001,0.0001,1.0000,-0.1608,-0.0172,0.1841
200309,Right,0,0.2842,-0.1039,-0.9447,-0.1264,0.0105,0.0065,0.0004,-0.0100,0.0611,-0.0741,-5.4652,1.1554,7.9775,0.0001,0.0001,0.0000,1.0000,-0.1366,0.0289,0.1995
200309,Pelvis,0,-0.5410,-0.4439,-0.5391,0.4687,-0.0005,0.0045,0.0004,-0.0757,0.0610,-0.0266,9.7767,-0.3637,0.2483,-0.0000,0.0001,0.0000,1.0000,0.2444,-0.0091,0.0062
200310,Left,0,0.3491,0.0586,-0.9333,0.0606,0.0004,0.0055,0.0067,-0.0368,0.0235,-0.0303,-6.4168,-0.6856,7.3520,0.0000,0.0001,0.0001,1.0000,-0.1604,-0.0172,0.1838
200310,Pelvis,0,-0.5409,-0.4439,-0.5392,0.4687,0.0054,0.0042,-0.0034,-0.0838,0.0551,0.0075,9.8106,-0.3711,0.2442,0.0001,0.0001,-0.0000,1.0000,0.2453,-0.0093,0.0061
200311,Left,0,0.3491,0.0586,-0.9333,0.0607,0.0018,0.0052,0.0075,-0.0229,0.0208,-0.0243,-6.4309,-0.6807,7.3480,0.0000,0.0001,0.0001,1.0000,-0.1608,-0.0170,0.1837
200311,Right,0,0.2843,-0.1042,-0.9446,-0.1266,0.0127,0.0055,0.0018,-0.0182,0.0680,-0.0549,-5.4695,1.1566,7.9979,0.0003,0.0001,0.0000,1.0000,-0.2734,0.0577,0.3999
200311,Pelvis,0,-0.5408,-0.4440,-0.5391,0.4689,0.0134,0.0019,-0.0032,-0.0687,0.0744,-0.0120,9.7910,-0.3598,0.2664,0.0002,0.0000,-0.0000,1.0000,0.2448,-0.0090,0.0067
200312,Left,0,0.3491,0.0585,-0.9333,0.0607,0.0017,0.0048,0.0069,-0.0375,0.0228,-0.0086,-6.4312,-0.6850,7.3683,0.0000,0.0001,0.0001,1.0000,-0.1608,-0.0171,0.1842
200312,Right,0,0.2841,-0.1042,-0.9447,-0.1266,0.0127,0.0055,0.0018,-0.0049,0.0706,-0.0742,-5.4671,1.1500,7.9770,0.0002,0.0001,0.0000,1.0000,-0.1367,0.0287,0.1994
200312,Pelvis,0,-0.5407,-0.4441,-0.5390,0.4689,0.0172,-0.0064,-0.0023,-0.0522,0.0844,-0.0176,9.7856,-0.3432,0.2800,0.0002,-0.0001,-0.0000,1.0000,0.2446,-0.0086,0.0070
200313,Left,0,0.3491,0.0585,-0.9333,0.0607,0.0019,0.0031,0.0084,-0.0193,0.0296,-0.0242,-6.4348,-0.6870,7.3442,0.0000,0.0000,0.0001,1.0000,-0.1609,-0.0172,0.1836
200313,Right,0,0.2842,-0.1043,-0.9446,-0.1267,0.0131,0.0042,0.0006,-0.0268,0.0578,-0.0782,-5.4514,1.1695,7.9799,0.0002,0.0001,0.0000,1.0000,-0.1363,0.0292,0.1995
200313,Pelvis,0,-0.5405,-0.4442,-0.5390,0.4691,0.0237,-0.0038,0.0005,-0.0349,0.0588,0.0115,9.8156,-0.3227,0.2611,0.0003,-0.0000,0.0000,1.0000,0.2454,-0.0081,0.0065
200314,Left,0,0.3489,0.0585,-0.9334,0.0607,0.0017,0.0048,0.0069,-0.0325,0.0318,-0.0177,-6.4265,-0.6916,7.3597,0.0000,0.0001,0.0001,1.0000,-0.1606,-0.0173,0.1840
200314,Right,0,0.2842,-0.1044,-0.9446,-0.1266,0.0130,0.0063,0.0026,-0.0027,0.0677,-0.0877,-5.4638,1.1534,7.9622,0.0002,0.0001,0.0000,1.0000,-0.1366,0.0288,0.1991
200314,Pelvis,0,-0.5401,-0.4442,-0.5390,0.4695,0.0280,0.0179,-0.0081,-0.0504,0.0189,0.0698,9.8744,-0.3340,0.2251,0.0003,0.0002,-0.0001,1.0000,0.2469,-0.0084,0.0056
200315,Left,0,0.3488,0.0585,-0.9334,0.0608,-0.0006,0.0037,0.0060,-0.0279,0.0405,-0.0176,-6.4293,-0.6997,7.3566,-0.0000,0.0000,0.0001,1.0000,-0.1607,-0.0175,0.1839
200315,Right,0,0.2841,-0.1045,-0.9446,-0.1267,0.0129,0.0039,0.0023,0.0029,0.0662,-0.0586,-5.4842,1.1590,7.9829,0.0002,0.0000,0.0000,1.0000,-0.1371,0.0289,0.1996
200315,Pelvis,0,-0.5395,-0.4443,-0.5392,0.4698,0.0324,0.0383,-0.0208,-0.0220,0.0323,0.0836,9.8884,-0.3060,0.2511,0.0004,0.0005,-0.0003,1.0000,0.2472,-0.0077,0.0062
200316,Left,0,0.3488,0.0586,-0.9334,0.0609,-0.0009,0.0063,0.0065,-0.0280,0.0300,-0.0177,-6.4284,-0.6895,7.3582,-0.0000,0.0001,0.0001,1.0000,-0.1607,-0.0172,0.1840
200316,Right,0,0.2842,-0.1045,-0.9446,-0.1265,0.0121,0.0027,0.0027,-0.0143,0.0730,-0.0695,-5.4635,1.1573,7.9841,0.0002,0.0000,0.0000,1.0000,-0.1366,0.0289,0.1996
200316,Pelvis,0,-0.5388,-0.4444,-0.5395,0.4703,0.0394,0.0483,-0.0338,0.0136,0.0348,0.0272,9.8327,-0.2655,0.2703,0.0005,0.0006,-0.0004,1.0000,0.2458,-0.0067,0.0066
200317,Left,0,0.3489,0.0585,-0.9333,0.0609,0.0007,0.0051,0.0053,-0.0375,0.0313,-0.0145,-6.4250,-0.6917,7.3654,0.0000,0.0001,0.0001,1.0000,-0.1606,-0.0173,0.1841
200317,Right,0,0.2841,-0.1046,-0.9446,-0.1264,0.0140,0.0032,0.0046,-0.0062,0.0709,-0.0539,-5.4782,1.1609,7.9925,0.0002,0.0000,0.0001,1.0000,-0.1369,0.0290,0.1998
200317,Pelvis,0,-0.5380,-0.4446,-0.5398,0.4706,0.0447,0.0454,-0.0417,0.0184,0.0501,-0.0116,9.7934,-0.2540,0.2985,0.0006,0.0006,-0.0005,1.0000,0.2448,-0.0065,0.0073
200318,Left,0,0.3488,0.0586,-0.9334,0.0610,-0.0004,0.0027,0.0060,-0.0285,0.0192,-0.0178,-6.4284,-0.6784,7.3591,-0.0000,0.0000,0.0001,1.0000,-0.1607,-0.0170,0.1840
200318,Right,0,0.2840,-0.1048,-0.9446,-0.1266,0.0120,0.0004,0.0024,-0.0251,0.0788,-0.0513,-5.4624,1.1617,8.0065,0.0002,0.0000,0.0000,1.0000,-0.1366,0.0290,0.2002
200318,Pelvis,0,-0.5373,-0.4449,-0.5400,0.4709,0.0372,0.0316,-0.0396,0.0624,0.0349,-0.0403,9.7659,-0.1993,0.3013,0.0005,0.0004,-0.0005,1.0000,0.2441,-0.0051,0.0074
200319,Left,0,0.3488,0.0585,-0.9334,0.0609,0.0001,0.0037,0.0043,-0.0280,0.0295,-0.0269,-6.4226,-0.6874,7.3512,0.0000,0.0000,0.0001,1.0000,-0.1606,-0.0172,0.1838
200319,Right,0,0.2839,-0.1048,-0.9447,-0.1265,0.0127,0.0031,0.0015,-0.0204,0.0768,-0.0648,-5.4575,1.1622,7.9933,0.0002,0.0000,0.0000,1.0000,-0.1364,0.0290,0.1998
200319,Pelvis,0,-0.5368,-0.4451,-0.5402,0.4711,0.0337,0.0193,-0.0350,0.0485,0.0210,-0.0563,9.7500,-0.2019,0.2944,0.0004,0.0002,-0.0004,1.0000,0.2438,-0.0052,0.0073
200320,Left,0,0.3487,0.0585,-0.9334,0.0608,0.0005,0.0034,0.0076,-0.0358,0.0211,-0.0237,-6.4169,-0.6802,7.3612,0.0000,0.0000,0.0001,1.0000,-0.1604,-0.0170,0.1840
200320,Right,0,0.2839,-0.1048,-0.9447,-0.1264,0.0097,0.0044,0.0015,-0.0202,0.0822,-0.0581,-5.4601,1.1591,8.0002,0.0001,0.0001,0.0000,1.0000,-0.1365,0.0289,0.2000
200320,Pelvis,0,-0.5363,-0.4454,-0.5403,0.4711,0.0305,0.0099,-0.0283,0.0221,0.0176,-0.0429,9.7630,-0.2193,0.2911,0.0004,0.0001,-0.0004,1.0000,0.2441,-0.0056,0.0072
200321,Left,0,0.3487,0.0585,-0.9334,0.0609,0.0006,0.0025,0.0056,-0.0310,0.0294,-0.0144,-6.4279,-0.6878,7.3632,0.0000,0.0000,0.0001,1.0000,-0.1607,-0.0172,0.1841
200321,Right,0,0.2839,-0.1050,-0.9446,-0.1267,0.0111,0.0040,0.0020,0.0008,0.1002,-0.0474,-5.4794,1.1390,8.0031,0.0001,0.0001,0.0000,1.0000,-0.1370,0.0284,0.2001
200321,Pelvis,0,-0.5360,-0.4457,-0.5403,0.4713,0.0309,0.0074,-0.0278,-0.0081,0.0281,-0.0038,9.8011,-0.2477,0.3014,0.0004,0.0001,-0.0003,1.0000,0.2450,-0.0063,0.0075
200322,Left,0,0.3487,0.0586,-0.9334,0.0611,0.0010,0.0025,0.0048,-0.0168,0.0262,-0.0085,-6.4414,-0.6832,7.3597,0.0000,0.0000,0.0001,1.0000,-0.1610,-0.0171,0.1840
200322,Right,0,0.2838,-0.1051,-0.9446,-0.1268,0.0106,0.0016,0.0012,-0.0040,0.0855,-0.0764,-5.4619,1.1521,7.9777,0.0001,0.0000,0.0000,1.0000,-0.1365,0.0288,0.1994
200322,Pelvis,0,-0.5357,-0.4461,-0.5402,0.4714,0.0309,-0.0005,-0.0296,-0.0132,0.0522,-0.0134,9.7908,-0.2519,0.3252,0.0004,-0.0000,-0.0004,1.0000,0.2448,-0.0064,0.0081
200323,Left,0,0.3486,0.0585,-0.9334,0.0611,0.0019,0.0018,0.0058,-0.0215,0.0269,-0.0269,-6.4251,-0.6831,7.3495,0.0000,0.0000,0.0001,1.0000,-0.1606,-0.0171,0.1837
200323,Right,0,0.2836,-0.1052,-0.9447,-0.1268,0.0126,0.0021,0.0031,0.0066,0.0830,-0.0608,-5.4764,1.1553,7.9863,0.0002,0.0000,0.0000,1.0000,-0.1369,0.0288,0.1997
200323,Pelvis,0,-0.5354,-0.4464,-0.5401,0.4716,0.0335,-0.0048,-0.0282,-0.0095,0.0551,-0.0044,9.7999,-0.2449,0.3287,0.0004,-0.0001,-0.0004,1.0000,0.2450,-0.0062,0.0082
200324,Left,0,0.3486,0.0586,-0.9334,0.0612,0.0003,0.0006,0.0053,-0.0358,0.0287,-0.0112,-6.4247,-0.6877,7.3704,0.0000,0.0000,0.0001,1.0000,-0.1606,-0.0172,0.1843
200324,Right,0,0.2835,-0.1053,-0.9447,-0.1269,0.0130,0.0008,0.0018,0.0032,0.0961,-0.0764,-5.4610,1.1442,7.9795,0.0002,0.0000,0.0000,1.0000,-0.1365,0.0286,0.1995
200324,Pelvis,0,-0.5351,-0.4469,-0.5399,0.4716,0.0336,-0.0102,-0.0266,-0.0050,0.0553,-0.0259,9.7787,-0.2340,0.3276,0.0004,-0.0001,-0.0003,1.0000,0.2445,-0.0059,0.0082
200325,Left,0,0.3487,0.0585,-0.9334,0.0612,0.0014,0.0009,0.0054,-0.0240,0.0463,-0.0142,-6.4334,-0.7021,7.3574,0.0000,0.0000,0.0001,1.0000,-0.1608,-0.0176,0.1839
200325,Right,0,0.2834,-0.1054,-0.9447,-0.1267,0.0116,0.0016,0.0037,-0.0032,0.0812,-0.0919,-5.4484,1.1599,7.9669,0.0001,0.0000,0.0000,1.0000,-0.1362,0.0290,0.1992
200325,Pelvis,0,-0.5349,-0.4473,-0.5398,0.4716,0.0332,-0.0173,-0.0236,0.0162,0.0156,-0.0012,9.8051,-0.2014,0.2911,0.0004,-0.0002,-0.0003,1.0000,0.2451,-0.0051,0.0073
200326,Left,0,0.3485,0.0586,-0.9335,0.0613,-0.0004,0.0007,0.0049,-0.0354,0.0378,-0.0203,-6.4187,-0.6955,7.3628,-0.0000,0.0000,0.0001,1.0000,-0.1605,-0.0174,0.1841
200326,Right,0,0.2834,-0.1054,-0.9447,-0.1266,0.0101,0.0003,0.0030,0.0037,0.0996,-0.0697,-5.4632,1.1440,7.9863,0.0001,0.0000,0.0000,1.0000,-0.1366,0.0286,0.1997
200326,Pelvis,0,-0.5347,-0.4477,-0.5396,0.4717,0.0284,-0.0167,-0.0215,0.0002,-0.0136,0.0217,9.8288,-0.2095,0.2575,0.0004,-0.0002,-0.0003,1.0000,0.2457,-0.0053,0.0065
200327,Left,0,0.3484,0.0584,-0.9335,0.0610,-0.0002,-0.0003,0.0049,-0.0174,0.0258,-0.0052,-6.4383,-0.6814,7.3670,-0.0000,-0.0000,0.0001,1.0000,-0.1610,-0.0170,0.1842
200327,Right,0,0.2834,-0.1055,-0.9448,-0.1266,0.0127,0.0005,0.0035,0.0035,0.0845,-0.0696,-5.4645,1.1602,7.9830,0.0002,0.0000,0.0000,1.0000,-0.1366,0.0290,0.1996
200327,Pelvis,0,-0.5345,-0.4480,-0.5395,0.4717,0.0303,-0.0147,-0.0240,-0.0152,0.0096,0.0018,9.8081,-0.2241,0.2757,0.0004,-0.0002,-0.0003,1.0000,0.2452,-0.0057,0.0069
200328,Left,0,0.3484,0.0584,-0.9335,0.0610,0.0007,-0.0015,0.0054,-0.0333,0.0284,-0.0203,-6.4168,-0.6846,7.3653,0.0000,-0.0000,0.0001,1.0000,-0.1604,-0.0171,0.1841
200328,Right,0,0.2833,-0.1054,-0.9448,-0.1262,0.0118,-0.0009,0.0048,-0.0125,0.0909,-0.0805,-5.4431,1.1587,7.9847,0.0001,-0.0000,0.0001,1.0000,-0.1361,0.0289,0.1996
200328,Pelvis,0,-0.5342,-0.4483,-0.5394,0.4718,0.0290,-0.0153,-0.0210,0.0071,0.0010,-0.0081,9.7989,-0.1965,0.2706,0.0004,-0.0002,-0.0003,1.0000,0.2450,-0.0050,0.0068
200329,Left,0,0.3484,0.0584,-0.9335,0.0612,0.0012,-0.0000,0.0043,-0.0327,0.0372,-0.0203,-6.4187,-0.6929,7.3630,0.0000,-0.0000,0.0001,1.0000,-0.1605,-0.0173,0.1841
200329,Right,0,0.2832,-0.1054,-0.9449,-0.1261,0.0104,-0.0001,0.0011,0.0003,0.0743,-0.0918,-5.4481,1.1709,7.9654,0.0001,-0.0000,0.0000,1.0000,-0.1362,0.0292,0.1991
200329,Pelvis,0,-0.5342,-0.4487,-0.5391,0.4720,0.0270,-0.0180,-0.0152,-0.0072,-0.0106,-0.0024,9.8048,-0.2078,0.2529,0.0003,-0.0002,-0.0002,1.0000,0.2451,-0.0052,0.0064
200330,Left,0,0.3484,0.0583,-0.9335,0.0610,0.0005,0.0015,0.0065,-0.0515,0.0312,-0.0138,-6.4078,-0.6888,7.3815,0.0000,0.0000,0.0001,1.0000,-0.1602,-0.0172,0.1845
200330,Right,0,0.2831,-0.1054,-0.9449,-0.1260,0.0108,0.0032,0.0013,-0.0067,0.0805,-0.0871,-5.4413,1.1692,7.9761,0.0001,0.0000,0.0000,1.0000,-0.1360,0.0292,0.1994
200330,Pelvis,0,-0.5341,-0.4489,-0.5389,0.4720,0.0252,-0.0201,-0.0133,-0.0181,-0.0159,-0.0003,9.8070,-0.2167,0.2430,0.0003,-0.0003,-0.0002,1.0000,0.2452,-0.0055,0.0061
200331,Left,0,0.3483,0.0582,-0.9336,0.0609,0.0012,0.0039,0.0065,-0.0155,0.0453,-0.0451,-6.4138,-0.6947,7.3341,0.0000,0.0000,0.0001,1.0000,-0.1603,-0.0174,0.1834
200331,Right,0,0.2830,-0.1054,-0.9450,-0.1258,0.0103,0.0048,0.0003,0.0198,0.1038,-0.0967,-5.4521,1.1390,7.9617,0.0001,0.0001,0.0000,1.0000,-0.1363,0.0284,0.1991
200331,Pelvis,0,-0.5339,-0.4492,-0.5387,0.4722,0.0268,-0.0092,-0.0124,-0.0178,-0.0071,0.0484,9.8555,-0.2179,0.2508,0.0003,-0.0001,-0.0002,1.0000,0.2464,-0.0055,0.0063
200332,Left,0,0.3482,0.0582,-0.9336,0.0609,0.0002,0.0040,0.0070,-0.0381,0.0389,-0.0262,-6.4074,-0.6930,7.3650,0.0000,0.0001,0.0001,1.0000,-0.1602,-0.0173,0.1841
200332,Right,0,0.2832,-0.1054,-0.9450,-0.1256,0.0109,0.0056,0.0016,0.0123,0.1027,-0.0697,-5.4635,1.1457,7.9858,0.0001,0.0001,0.0000,1.0000,-0.1366,0.0286,0.1997
200332,Pelvis,0,-0.5337,-0.4493,-0.5386,0.4724,0.0220,0.0042,-0.0133,0.0062,-0.0175,0.0294,9.8372,-0.1925,0.2447,0.0003,0.0001,-0.0002,1.0000,0.2459,-0.0049,0.0061
200333,Left,0,0.3482,0.0583,-0.9336,0.0611,-0.0010,0.0033,0.0062,-0.0248,0.0361,-0.0202,-6.4212,-0.6885,7.3613,-0.0000,0.0000,0.0001,1.0000,-0.1605,-0.0172,0.1840
200333,Right,0,0.2832,-0.1053,-0.9450,-0.1252,0.0113,0.0048,0.0028,-0.0084,0.0956,-0.0669,-5.4498,1.1594,7.9965,0.0001,0.0001,0.0000,1.0000,-0.1362,0.0290,0.1999
200333,Pelvis,0,-0.5335,-0.4494,-0.5385,0.4726,0.0192,0.0085,-0.0108,0.0140,-0.0061,0.0350,9.8425,-0.1861,0.2587,0.0002,0.0001,-0.0001,1.0000,0.2461,-0.0047,0.0064
200334,Left,0,0.3483,0.0582,-0.9336,0.0609,0.0003,0.0046,0.0055,-0.0280,0.0369,-0.0294,-6.4136,-0.6881,7.3557,0.0000,0.0001,0.0001,1.0000,-0.1603,-0.0172,0.1839
200334,Right,0,0.2833,-0.1053,-0.9450,-0.1250,0.0117,0.0044,0.0009,-0.0159,0.0943,-0.0825,-5.4365,1.1613,7.9864,0.0001,0.0001,0.0000,1.0000,-0.1359,0.0290,0.1997
200334,Pelvis,0,-0.5333,-0.4495,-0.5384,0.4728,0.0180,0.0130,-0.0074,0.0039,0.0155,0.0380,9.8447,-0.1988,0.2799,0.0002,0.0002,-0.0001,1.0000,0.2461,-0.0050,0.0070
200335,Left,0,0.3482,0.0582,-0.9336,0.0611,0.0020,0.0022,0.0064,-0.0183,0.0345,-0.0110,-6.4312,-0.6859,7.3651,0.0000,0.0000,0.0001,1.0000,-0.1608,-0.0172,0.1841
200335,Right,0,0.2833,-0.1053,-0.9450,-0.1247,0.0109,0.0078,0.0027,0.0133,0.0969,-0.0696,-5.4665,1.1532,7.9827,0.0001,0.0001,0.0000,1.0000,-0.1366,0.0288,0.1996
200335,Pelvis,0,-0.5332,-0.4496,-0.5384,0.4730,0.0139,0.0134,-0.0027,0.0338,0.0162,-0.0060,9.8011,-0.1681,0.2865,0.0002,0.0002,-0.0000,1.0000,0.2450,-0.0042,0.0071
200336,Left,0,0.3483,0.0582,-0.9336,0.0611,0.0004,0.0051,0.0061,-0.0288,0.0363,-0.0386,-6.4067,-0.6862,7.3497,0.0000,0.0001,0.0001,1.0000,-0.1602,-0.0172,0.1838
200336,Right,0,0.2833,-0.1054,-0.9450,-0.1248,0.0110,0.0053,-0.0017,0.0151,0.0957,-0.0696,-5.4678,1.1555,7.9815,0.0001,0.0001,-0.0000,1.0000,-0.1367,0.0289,0.1996
200336,Pelvis,0,-0.5331,-0.4495,-0.5385,0.4731,0.0056,0.0059,-0.0043,0.0280,0.0091,-0.0559,9.7512,-0.1719,0.2806,0.0001,0.0001,-0.0001,1.0000,0.2438,-0.0043,0.0070
200337,Left,0,0.3483,0.0581,-0.9336,0.0610,0.0004,0.0070,0.0073,-0.0373,0.0476,-0.0136,-6.4176,-0.6995,7.3723,0.0000,0.0001,0.0001,1.0000,-0.1604,-0.0175,0.1843
200337,Right,0,0.2833,-0.1055,-0.9450,-0.1248,0.0118,0.0059,0.0018,-0.0060,0.0898,-0.0669,-5.4543,1.1689,7.9921,0.0001,0.0001,0.0000,1.0000,-0.1363,0.0292,0.1998
200337,Pelvis,0,-0.5331,-0.4495,-0.5384,0.4732,-0.0023,0.0007,-0.0038,0.0411,0.0180,-0.0185,9.7885,-0.1625,0.2941,-0.0000,0.0000,-0.0000,1.0000,0.2447,-0.0041,0.0074
200338,Left,0,0.3483,0.0580,-0.9336,0.0610,0.0009,0.0058,0.0085,-0.0180,0.0445,-0.0201,-6.4280,-0.6919,7.3551,0.0000,0.0001,0.0001,1.0000,-0.1607,-0.0173,0.1839
200338,Right,0,0.2834,-0.1055,-0.9450,-0.1248,0.0117,0.0076,0.0005,0.0070,0.1076,-0.0717,-5.4599,1.1485,7.9855,0.0001,0.0001,0.0000,1.0000,-0.1365,0.0287,0.1997
200338,Pelvis,0,-0.5331,-0.4492,-0.5384,0.4733,-0.0065,0.0032,-0.0013,0.0330,0.0027,0.0190,9.8262,-0.1728,0.2813,-0.0001,0.0000,-0.0000,1.0000,0.2457,-0.0043,0.0070
200339,Left,0,0.3484,0.0579,-0.9336,0.0610,0.0009,0.0078,0.0097,-0.0227,0.0451,-0.0076,-6.4333,-0.6929,7.3671,0.0000,0.0001,0.0001,1.0000,-0.1608,-0.0173,0.1842
200339,Right,0,0.2835,-0.1055,-0.9450,-0.1246,0.0114,0.0058,0.0012,0.0161,0.1049,-0.0697,-5.4702,1.1493,7.9808,0.0001,0.0001,0.0000,1.0000,-0.1367,0.0287,0.1995
200339,Pelvis,0,-0.5332,-0.4491,-0.5385,0.4734,-0.0072,-0.0014,0.0007,0.0006,0.0186,0.0139,9.8199,-0.2093,0.2938,-0.0001,-0.0000,0.0000,1.0000,0.2455,-0.0052,0.0073
200340,Left,0,0.3484,0.0579,-0.9336,0.0609,0.0011,0.0088,0.0088,-0.0233,0.0455,-0.0168,-6.4266,-0.6917,7.3608,0.0000,0.0001,0.0001,1.0000,-0.1606,-0.0173,0.1840
200340,Right,0,0.2834,-0.1056,-0.9450,-0.1245,0.0114,0.0067,0.0006,-0.0064,0.0853,-0.0533,-5.4634,1.1785,8.0009,0.0001,0.0001,0.0000,1.0000,-0.1366,0.0294,0.2000
200340,Pelvis,0,-0.5333,-0.4490,-0.5384,0.4734,-0.0049,-0.0047,0.0043,0.0248,0.0340,-0.0043,9.8017,-0.1903,0.3111,-0.0001,-0.0001,0.0001,1.0000,0.2450,-0.0047,0.0078
200341,Left,0,0.3486,0.0578,-0.9335,0.0610,0.0004,0.0069,0.0093,-0.0356,0.0374,-0.0137,-6.4217,-0.6840,7.3701,0.0000,0.0001,0.0001,1.0000,-0.1605,-0.0171,0.1843
200341,Right,0,0.2834,-0.1056,-0.9450,-0.1243,0.0112,0.0074,0.0008,0.0216,0.0880,-0.0831,-5.4690,1.1652,7.9628,0.0001,0.0001,0.0000,1.0000,-0.1367,0.0291,0.1991
200341,Pelvis,0,-0.5334,-0.4489,-0.5383,0.4735,-0.0044,-0.0101,0.0098,0.0085,0.0402,-0.0069,9.7986,-0.2104,0.3154,-0.0001,-0.0001,0.0001,1.0000,0.2450,-0.0052,0.0079
200342,Left,0,0.3487,0.0578,-0.9335,0.0611,0.0019,0.0072,0.0086,-0.0283,0.0456,-0.0260,-6.4212,-0.6890,7.3535,0.0000,0.0001,0.0001,1.0000,-0.1605,-0.0172,0.1839
200342,Right,0,0.2834,-0.1056,-0.9450,-0.1243,0.0099,0.0055,-0.0009,0.0003,0.0959,-0.0669,-5.4595,1.1673,7.9888,0.0001,0.0001,-0.0000,1.0000,-0.1365,0.0292,0.1997
200342,Pelvis,0,-0.5337,-0.4488,-0.5380,0.4736,-0.0005,-0.0125,0.0148,-0.0154,0.0465,-0.0288,9.7761,-0.2404,0.3140,-0.0000,-0.0002,0.0002,1.0000,0.2444,-0.0060,0.0079
200343,Left,0,0.3485,0.0577,-0.9335,0.0611,0.0012,0.0052,0.0092,-0.0322,0.0461,0.0081,-6.4387,-0.6919,7.3835,0.0000,0.0001,0.0001,1.0000,-0.1610,-0.0173,0.1846
200343,Pelvis,0,-0.5339,-0.4488,-0.5378,0.4737,0.0047,-0.0169,0.0129,-0.0049,0.0203,-0.0193,9.7865,-0.2324,0.2875,0.0001,-0.0002,0.0002,1.0000,0.2447,-0.0058,0.0072
200344,Left,0,0.3485,0.0579,-0.9335,0.0614,0.0017,0.0063,0.0075,-0.0185,0.0426,-0.0168,-6.4321,-0.6852,7.3566,0.0000,0.0001,0.0001,1.0000,-0.1608,-0.0171,0.1839
200344,Right,0,0.2834,-0.1057,-0.9450,-0.1241,0.0102,0.0055,0.0001,0.0180,0.1066,-0.0707,-5.4706,1.1532,7.9788,0.0003,0.0001,0.0000,1.0000,-0.2735,0.0576,0.3990
200344,Pelvis,0,-0.5339,-0.4488,-0.5375,0.4739,0.0136,-0.0127,0.0108,-0.0059,0.0257,0.0204,9.8259,-0.2395,0.2913,0.0002,-0.0002,0.0001,1.0000,0.2456,-0.0060,0.0073
200346,Left,0,0.3486,0.0577,-0.9335,0.0613,0.0002,0.0061,0.0071,-0.0295,0.0498,-0.0073,-6.4324,-0.6922,7.3685,0.0000,0.0002,0.0002,1.0000,-0.3216,-0.0347,0.3685
200346,Right,0,0.2835,-0.1059,-0.9450,-0.1242,0.0113,0.0045,0.0015,0.0119,0.1145,-0.0828,-5.4587,1.1476,7.9730,0.0003,0.0001,0.0000,1.0000,-0.2729,0.0573,0.3987
200346,Pelvis,0,-0.5336,-0.4489,-0.5374,0.4743,0.0206,0.0037,-0.0021,0.0073,0.0442,0.0429,9.8480,-0.2310,0.3136,0.0005,0.0001,-0.0001,1.0000,0.4924,-0.0116,0.0156
200347,Left,0,0.3486,0.0578,-0.9335,0.0614,0.0007,0.0064,0.0079,-0.0165,0.0322,-0.0169,-6.4339,-0.6721,7.3561,0.0000,0.0001,0.0001,1.0000,-0.1608,-0.0168,0.1839
200347,Right,0,0.2835,-0.1058,-0.9450,-0.1239,0.0115,0.0042,0.0017,0.0014,0.0878,-0.0668,-5.4644,1.1785,7.9838,0.0001,0.0001,0.0000,1.0000,-0.1366,0.0294,0.1996
200347,Pelvis,0,-0.5334,-0.4490,-0.5374,0.4745,0.0226,0.0080,-0.0094,0.0636,0.0415,0.0184,9.8245,-0.1755,0.3233,0.0003,0.0001,-0.0001,1.0000,0.2456,-0.0044,0.0081
200348,Left,0,0.3486,0.0577,-0.9335,0.0613,-0.0004,0.0042,0.0066,-0.0301,0.0546,-0.0102,-6.4299,-0.6956,7.3665,-0.0000,0.0001,0.0001,1.0000,-0.1607,-0.0174,0.1842
200348,Right,0,0.2834,-0.1058,-0.9451,-0.1238,0.0097,0.0020,0.0012,0.0071,0.1067,-0.0736,-5.4603,1.1596,7.9813,0.0001,0.0000,0.0000,1.0000,-0.1365,0.0290,0.1995
200348,Pelvis,0,-0.5333,-0.4490,-0.5373,0.4747,0.0156,0.0016,-0.0046,0.0945,0.0403,-0.0257,9.7810,-0.1442,0.3278,0.0002,0.0000,-0.0001,1.0000,0.2445,-0.0036,0.0082
200349,Left,0,0.3487,0.0577,-0.9334,0.0615,0.0028,0.0045,0.0085,-0.0240,0.0625,-0.0225,-6.4290,-0.7008,7.3504,0.0000,0.0001,0.0001,1.0000,-0.1607,-0.0175,0.1838
200349,Right,0,0.2835,-0.1060,-0.9450,-0.1243,0.0105,0.0064,0.0004,0.0051,0.1200,-0.0602,-5.4650,1.1505,7.9960,0.0001,0.0001,0.0000,1.0000,-0.1366,0.0287,0.1999
200349,Pelvis,0,-0.5332,-0.4491,-0.5373,0.4747,0.0098,0.0014,-0.0039,0.0558,0.0327,-0.0100,9.7961,-0.1810,0.3162,0.0001,0.0000,-0.0000,1.0000,0.2449,-0.0045,0.0079
200350,Left,0,0.3487,0.0577,-0.9334,0.0615,-0.0017,0.0049,0.0064,-0.0271,0.0432,-0.0227,-6.4260,-0.6811,7.3545,-0.0000,0.0001,0.0001,1.0000,-0.1606,-0.0170,0.1839
200350,Right,0,0.2837,-0.1060,-0.9449,-0.1242,0.0116,0.0053,0.0002,0.0034,0.1115,-0.0669,-5.4642,1.1584,7.9871,0.0001,0.0001,0.0000,1.0000,-0.1366,0.0289,0.1997
200350,Pelvis,0,-0.5331,-0.4489,-0.5374,0.4749,0.0034,0.0076,-0.0026,0.0051,0.0001,0.0161,9.8221,-0.2285,0.2803,0.0000,0.0001,-0.0000,1.0000,0.2456,-0.0057,0.0070
200351,Left,0,0.3486,0.0576,-0.9335,0.0613,0.0008,0.0034,0.0068,-0.0224,0.0430,-0.0227,-6.4269,-0.6801,7.3538,0.0000,0.0000,0.0001,1.0000,-0.1607,-0.0170,0.1839
200351,Right,0,0.2835,-0.1060,-0.9450,-0.1240,0.0099,0.0055,-0.0009,0.0190,0.1154,-0.0716,-5.4710,1.1509,7.9778,0.0001,0.0001,-0.0000,1.0000,-0.1368,0.0288,0.1995
200351,Pelvis,0,-0.5330,-0.4488,-0.5374,0.4751,0.0038,0.0113,-0.0063,-0.0027,0.0386,0.0110,9.8154,-0.2446,0.3210,0.0000,0.0001,-0.0001,1.0000,0.2454,-0.0061,0.0080
200352,Left,0,0.3487,0.0575,-0.9335,0.0613,-0.0000,0.0066,0.0075,-0.0178,0.0518,-0.0134,-6.4383,-0.6876,7.3555,-0.0000,0.0001,0.0001,1.0000,-0.1609,-0.0172,0.1839
200352,Right,0,0.2835,-0.1061,-0.9450,-0.1241,0.0100,0.0070,0.0000,0.0124,0.1011,-0.0871,-5.4594,1.1657,7.9646,0.0001,0.0001,0.0000,1.0000,-0.1365,0.0291,0.1991
200352,Pelvis,0,-0.5329,-0.4487,-0.5374,0.4753,0.0064,0.0077,-0.0013,0.0002,0.0375,0.0110,9.8154,-0.2436,0.3234,0.0001,0.0001,-0.0000,1.0000,0.2454,-0.0061,0.0081
200353,Left,0,0.3488,0.0575,-0.9334,0.0614,0.0005,0.0054,0.0088,-0.0434,0.0557,-0.0253,-6.4137,-0.6935,7.3609,0.0000,0.0001,0.0001,1.0000,-0.1603,-0.0174,0.1840
200353,Right,0,0.2835,-0.1062,-0.9449,-0.1242,0.0102,0.0063,-0.0002,0.0099,0.1281,-0.0601,-5.4685,1.1454,7.9945,0.0001,0.0001,-0.0000,1.0000,-0.1367,0.0286,0.1999
200353,Pelvis,0,-0.5329,-0.4486,-0.5373,0.4755,0.0049,0.0025,0.0044,0.0555,0.0653,-0.0151,9.7893,-0.1956,0.3617,0.0001,0.0000,0.0001,1.0000,0.2447,-0.0049,0.0090
200354,Left,2,0.3489,0.0574,-0.9334,0.0615,0.0010,0.0058,0.0085,-0.0395,0.0645,-0.0160,-6.4253,-0.7007,7.3625,0.0000,0.0001,0.0001,1.0000,-0.1606,-0.0175,0.1841
200354,Right,2,0.2836,-0.1063,-0.9449,-0.1241,0.0118,0.0078,-0.0004,0.0020,0.1137,-0.0756,-5.4570,1.1604,7.9811,0.0001,0.0001,-0.0000,1.0000,-0.1364,0.0290,0.1995
200354,Pelvis,2,-0.5330,-0.4484,-0.5373,0.4756,0.0023,-0.0062,0.0086,0.0350,0.0676,-0.0051,9.7987,-0.2190,0.3630,0.0000,-0.0001,0.0001,1.0000,0.2450,-0.0055,0.0091
200355,Left,2,0.3489,0.0574,-0.9334,0.0615,0.0008,0.0075,0.0070,-0.0377,0.0543,-0.0160,-6.4246,-0.6900,7.3639,0.0000,0.0001,0.0001,1.0000,-0.1606,-0.0173,0.1841
200355,Right,2,0.2836,-0.1063,-0.9449,-0.1241,0.0118,0.0069,0.0003,0.0112,0.1183,-0.0668,-5.4694,1.1555,7.9841,0.0001,0.0001,0.0000,1.0000,-0.1367,0.0289,0.1996
200355,Pelvis,2,-0.5331,-0.4484,-0.5370,0.4757,0.0023,-0.0068,0.0087,0.0452,0.0227,0.0125,9.8179,-0.2076,0.3186,0.0000,-0.0001,0.0001,1.0000,0.2454,-0.0052,0.0080
200356,Left,2,0.3488,0.0574,-0.9334,0.0614,0.0000,0.0064,0.0096,-0.0140,0.0605,-0.0225,-6.4371,-0.6916,7.3442,0.0000,0.0001,0.0001,1.0000,-0.1609,-0.0173,0.1836
200356,Right,2,0.2837,-0.1063,-0.9449,-0.1240,0.0117,0.0044,0.0008,0.0109,0.1098,-0.0736,-5.4686,1.1635,7.9752,0.0001,0.0001,0.0000,1.0000,-0.1367,0.0291,0.1994
200356,Pelvis,2,-0.5331,-0.4482,-0.5371,0.4758,0.0025,0.0004,0.0062,0.0371,0.0202,0.0022,9.8074,-0.2183,0.3170,0.0000,0.0000,0.0001,1.0000,0.2452,-0.0054,0.0079
200357,Left,2,0.3487,0.0574,-0.9334,0.0615,0.0023,0.0057,0.0073,-0.0195,0.0509,-0.0101,-6.4403,-0.6834,7.3586,0.0000,0.0001,0.0001,1.0000,-0.1610,-0.0171,0.1840
200357,Right,2,0.2840,-0.1063,-0.9449,-0.1238,0.0112,0.0074,0.0008,0.0087,0.1287,-0.0668,-5.4703,1.1469,7.9849,0.0001,0.0001,0.0000,1.0000,-0.1367,0.0286,0.1996
200357,Pelvis,2,-0.5331,-0.4481,-0.5371,0.4759,-0.0018,-0.0022,0.0051,0.0326,0.0260,-0.0115,9.7933,-0.2252,0.3243,-0.0000,-0.0000,0.0001,1.0000,0.2448,-0.0056,0.0081
200358,Left,2,0.3487,0.0574,-0.9335,0.0617,-0.0003,0.0046,0.0072,-0.0256,0.0713,-0.0158,-6.4324,-0.7042,7.3561,-0.0000,0.0001,0.0001,1.0000,-0.1608,-0.0176,0.1839
200358,Right,2,0.2839,-0.1063,-0.9449,-0.1238,0.0097,0.0061,0.0001,0.0140,0.1269,-0.0803,-5.4664,1.1467,7.9711,0.0001,0.0001,0.0000,1.0000,-0.1366,0.0286,0.1993
200358,Pelvis,2,-0.5332,-0.4480,-0.5370,0.4760,-0.0021,-0.0053,0.0088,0.0483,0.0361,0.0043,9.8091,-0.2147,0.3366,-0.0000,-0.0001,0.0001,1.0000,0.2452,-0.0053,0.0084
200359,Left,2,0.3485,0.0574,-0.9335,0.0616,-0.0003,0.0027,0.0060,-0.0267,0.0617,0.0058,-6.4435,-0.6960,7.3759,-0.0000,0.0000,0.0001,1.0000,-0.1611,-0.0174,0.1844
200359,Right,2,0.2837,-0.1064,-0.9449,-0.1237,0.0124,0.0045,0.0019,-0.0051,0.1207,-0.0641,-5.4580,1.1626,7.9943,0.0002,0.0001,0.0000,1.0000,-0.1364,0.0290,0.1999
200359,Pelvis,2,-0.5333,-0.4479,-0.5369,0.4760,-0.0003,-0.0099,0.0081,0.0372,0.0718,-0.0098,9.7935,-0.2338,0.3691,-0.0000,-0.0001,0.0001,1.0000,0.2448,-0.0058,0.0093
200360,Left,2,0.3484,0.0575,-0.9336,0.0618,0.0020,0.0037,0.0069,-0.0196,0.0600,-0.0159,-6.4319,-0.6928,7.3575,0.0000,0.0000,0.0001,1.0000,-0.1608,-0.0173,0.1839
200360,Right,2,0.2836,-0.1065,-0.9450,-0.1236,0.0102,0.0037,0.0018,0.0206,0.1309,-0.0736,-5.4701,1.1460,7.9770,0.0001,0.0000,0.0000,1.0000,-0.1367,0.0286,0.1994
200360,Pelvis,2,-0.5335,-0.4480,-0.5369,0.4759,-0.0033,-0.0172,0.0056,0.0444,0.0625,-0.0176,9.7862,-0.2261,0.3588,-0.0000,-0.0002,0.0001,1.0000,0.2447,-0.0056,0.0090
200361,Left,2,0.3484,0.0574,-0.9336,0.0618,0.0014,0.0043,0.0072,-0.0179,0.0596,-0.0159,-6.4328,-0.6913,7.3568,0.0000,0.0001,0.0001,1.0000,-0.1608,-0.0173,0.1839
200361,Right,2,0.2837,-0.1065,-0.9449,-0.1235,0.0115,0.0060,0.0004,-0.0007,0.1176,-0.0775,-5.4545,1.1651,7.9799,0.0001,0.0001,0.0000,1.0000,-0.1363,0.0291,0.1995
200361,Pelvis,2,-0.5336,-0.4479,-0.5369,0.4757,-0.0088,-0.0224,0.0067,0.0338,0.0688,-0.0097,9.7937,-0.2370,0.3609,-0.0001,-0.0003,0.0001,1.0000,0.2448,-0.0059,0.0091
200362,Left,2,0.3483,0.0574,-0.9336,0.0618,0.0015,0.0033,0.0072,-0.0029,0.0667,-0.0099,-6.4485,-0.6955,7.3506,0.0000,0.0000,0.0001,1.0000,-0.1612,-0.0174,0.1838
200362,Right,2,0.2837,-0.1065,-0.9450,-0.1233,0.0109,0.0047,0.0022,0.0026,0.1504,-0.0708,-5.4548,1.1352,7.9927,0.0001,0.0001,0.0000,1.0000,-0.1364,0.0283,0.1998
200362,Pelvis,2,-0.5340,-0.4479,-0.5367,0.4756,-0.0139,-0.0282,0.0085,0.0296,0.0563,-0.0153,9.7886,-0.2422,0.3423,-0.0002,-0.0004,0.0001,1.0000,0.2447,-0.0060,0.0086
200363,Left,2,0.3484,0.0574,-0.9335,0.0619,0.0024,0.0042,0.0067,-0.0270,0.0502,-0.0127,-6.4279,-0.6823,7.3662,0.0000,0.0001,0.0001,1.0000,-0.1607,-0.0171,0.1842
200363,Right,2,0.2835,-0.1066,-0.9450,-0.1234,0.0111,0.0059,-0.0002,0.0046,0.1214,-0.0708,-5.4585,1.1643,7.9856,0.0001,0.0001,-0.0000,1.0000,-0.1364,0.0291,0.1997
200363,Pelvis,2,-0.5343,-0.4478,-0.5366,0.4755,-0.0153,-0.0240,0.0100,0.0007,0.0263,0.0188,9.8231,-0.2715,0.3048,-0.0002,-0.0003,0.0001,1.0000,0.2456,-0.0068,0.0077
200364,Left,2,0.3484,0.0573,-0.9335,0.0619,0.0009,0.0034,0.0068,-0.0062,0.0567,-0.0192,-6.4397,-0.6839,7.3470,0.0000,0.0000,0.0001,1.0000,-0.1610,-0.0171,0.1837
200364,Right,2,0.2835,-0.1067,-0.9450,-0.1235,0.0112,0.0041,0.0012,0.0055,0.1341,-0.0708,-5.4581,1.1532,7.9876,0.0001,0.0001,0.0000,1.0000,-0.1364,0.0288,0.1997
200364,Pelvis,2,-0.5345,-0.4477,-0.5365,0.4754,-0.0159,-0.0194,0.0110,0.0151,0.0329,0.0257,9.8301,-0.2618,0.3086,-0.0002,-0.0002,0.0001,1.0000,0.2458,-0.0065,0.0078
200365,Left,2,0.3484,0.0572,-0.9336,0.0617,0.0014,0.0009,0.0055,-0.0239,0.0600,-0.0126,-6.4312,-0.6889,7.3629,0.0000,0.0000,0.0001,1.0000,-0.1608,-0.0172,0.1841
200365,Right,2,0.2836,-0.1068,-0.9449,-0.1236,0.0122,0.0052,0.0021,0.0158,0.1456,-0.0688,-5.4666,1.1407,7.9863,0.0002,0.0001,0.0000,1.0000,-0.1367,0.0285,0.1997
200365,Pelvis,2,-0.5348,-0.4475,-0.5365,0.4754,-0.0185,-0.0131,0.0068,0.0169,0.0303,0.0257,9.8302,-0.2641,0.3045,-0.0002,-0.0002,0.0001,1.0000,0.2458,-0.0066,0.0077
200366,Left,2,0.3484,0.0572,-0.9336,0.0617,0.0016,0.0012,0.0081,-0.0202,0.0590,-0.0034,-6.4399,-0.6870,7.3676,0.0000,0.0000,0.0001,1.0000,-0.1610,-0.0172,0.1842
200366,Right,2,0.2835,-0.1069,-0.9449,-0.1236,0.0107,0.0039,0.0015,0.0066,0.1314,-0.0707,-5.4599,1.1583,7.9857,0.0001,0.0000,0.0000,1.0000,-0.1365,0.0289,0.1997
200366,Pelvis,2,-0.5351,-0.4473,-0.5365,0.4752,-0.0264,-0.0171,0.0071,0.0418,0.0415,-0.0231,9.7817,-0.2422,0.3155,-0.0003,-0.0002,0.0001,1.0000,0.2445,-0.0060,0.0079
200367,Right,2,0.2836,-0.1068,-0.9450,-0.1232,0.0124,0.0027,0.0032,0.0154,0.1490,-0.0620,-5.4701,1.1403,7.9923,0.0002,0.0000,0.0000,1.0000,-0.1367,0.0285,0.1998
200367,Pelvis,2,-0.5354,-0.4472,-0.5365,0.4749,-0.0300,-0.0223,0.0016,0.0373,0.0532,-0.0278,9.7766,-0.2491,0.3220,-0.0004,-0.0003,0.0000,1.0000,0.2444,-0.0062,0.0081
200368,Left,2,0.3483,0.0571,-0.9336,0.0618,0.0009,0.0016,0.0070,-0.0143,0.0678,-0.0250,-6.4302,-0.6922,7.3470,0.0000,0.0000,0.0002,1.0000,-0.3215,-0.0347,0.3674
200368,Right,2,0.2835,-0.1069,-0.9450,-0.1231,0.0117,0.0017,0.0028,0.0084,0.1413,-0.0707,-5.4595,1.1504,7.9873,0.0001,0.0000,0.0000,1.0000,-0.1365,0.0287,0.1997
200368,Pelvis,2,-0.5356,-0.4472,-0.5366,0.4745,-0.0227,-0.0216,0.0005,-0.0208,0.0389,0.0026,9.8063,-0.3038,0.2945,-0.0003,-0.0003,0.0000,1.0000,0.2452,-0.0076,0.0074
200369,Left,2,0.3484,0.0570,-0.9336,0.0617,0.0023,0.0016,0.0070,-0.0281,0.0596,-0.0000,-6.4367,-0.6860,7.3750,0.0000,0.0000,0.0001,1.0000,-0.1609,-0.0172,0.1844
200369,Right,2,0.2834,-0.1071,-0.9450,-0.1235,0.0127,0.0004,0.0035,0.0166,0.1257,-0.0687,-5.4699,1.1649,7.9803,0.0002,0.0000,0.0000,1.0000,-0.1367,0.0291,0.1995
200369,Pelvis,2,-0.5358,-0.4471,-0.5367,0.4743,-0.0209,-0.0168,-0.0038,0.0011,0.0193,0.0188,9.8237,-0.2798,0.2760,-0.0003,-0.0002,-0.0000,1.0000,0.2456,-0.0070,0.0070
200370,Left,2,0.3485,0.0568,-0.9335,0.0615,0.0011,0.0009,0.0063,-0.0162,0.0681,-0.0250,-6.4312,-0.6887,7.3464,0.0000,0.0000,0.0001,1.0000,-0.1608,-0.0172,0.1837
200370,Right,2,0.2834,-0.1072,-0.9450,-0.1234,0.0121,0.0001,0.0047,0.0079,0.1390,-0.0707,-5.4595,1.1563,7.9864,0.0002,0.0000,0.0001,1.0000,-0.1365,0.0289,0.1997
200370,Pelvis,2,-0.5359,-0.4471,-0.5367,0.4741,-0.0187,-0.0118,-0.0074,-0.0072,0.0398,0.0004,9.8046,-0.2898,0.2914,-0.0002,-0.0001,-0.0001,1.0000,0.2451,-0.0073,0.0073
200371,Left,2,0.3484,0.0568,-0.9336,0.0615,0.0007,0.0025,0.0056,-0.0118,0.0573,-0.0159,-6.4380,-0.6778,7.3535,0.0000,0.0000,0.0001,1.0000,-0.1609,-0.0170,0.1838
200371,Right,2,0.2836,-0.1072,-0.9449,-0.1232,0.0111,0.0013,0.0040,0.0073,0.1372,-0.0841,-5.4543,1.1568,7.9735,0.0001,0.0000,0.0000,1.0000,-0.1364,0.0289,0.1993
200371,Pelvis,2,-0.5361,-0.4470,-0.5368,0.4739,-0.0163,-0.0144,-0.0071,-0.0211,0.0065,-0.0073,9.7976,-0.2979,0.2550,-0.0002,-0.0002,-0.0001,1.0000,0.2449,-0.0075,0.0064
200372,Left,2,0.3482,0.0568,-0.9337,0.0614,0.0002,0.0015,0.0073,-0.0176,0.0684,-0.0216,-6.4276,-0.6896,7.3539,0.0000,0.0000,0.0001,1.0000,-0.1607,-0.0173,0.1839
200372,Right,2,0.2837,-0.1072,-0.9449,-0.1232,0.0111,0.0017,0.0009,0.0157,0.1349,-0.0821,-5.4635,1.1577,7.9695,0.0001,0.0000,0.0000,1.0000,-0.1366,0.0289,0.1992
200372,Pelvis,2,-0.5362,-0.4470,-0.5368,0.4738,-0.0116,-0.0124,-0.0052,-0.0051,0.0404,0.0095,9.8138,-0.2869,0.2885,-0.0001,-0.0002,-0.0001,1.0000,0.2453,-0.0072,0.0073
200373,Left,2,0.3482,0.0567,-0.9337,0.0614,0.0027,0.0036,0.0073,-0.0262,0.0698,0.0034,-6.4361,-0.6932,7.3795,0.0000,0.0000,0.0001,1.0000,-0.1609,-0.0174,0.1845
200373,Right,2,0.2836,-0.1074,-0.9449,-0.1234,0.0123,0.0043,0.0028,-0.0059,0.1499,-0.0591,-5.4553,1.1550,8.0038,0.0002,0.0001,0.0000,1.0000,-0.1364,0.0288,0.2001
200373,Pelvis,2,-0.5362,-0.4471,-0.5369,0.4737,-0.0063,-0.0049,-0.0042,0.0039,0.0230,0.0370,9.8421,-0.2748,0.2712,-0.0001,-0.0001,-0.0001,1.0000,0.2461,-0.0069,0.0068
200374,Left,2,0.3480,0.0566,-0.9338,0.0612,0.0008,0.0015,0.0057,-0.0111,0.0679,-0.0216,-6.4288,-0.6868,7.3532,0.0000,0.0000,0.0001,1.0000,-0.1607,-0.0172,0.1838
200374,Right,2,0.2837,-0.1074,-0.9449,-0.1232,0.0122,0.0042,0.0036,0.0141,0.1465,-0.0686,-5.4687,1.1521,7.9834,0.0002,0.0001,0.0000,1.0000,-0.1367,0.0288,0.1996
200374,Pelvis,2,-0.5362,-0.4470,-0.5369,0.4737,-0.0036,-0.0007,-0.0012,-0.0121,-0.0131,0.0201,9.8260,-0.2838,0.2335,-0.0000,-0.0000,-0.0000,1.0000,0.2456,-0.0071,0.0058
200375,Left,2,0.3480,0.0565,-0.9338,0.0612,0.0005,0.0036,0.0056,-0.0203,0.0596,-0.0184,-6.4228,-0.6796,7.3633,0.0000,0.0000,0.0001,1.0000,-0.1606,-0.0170,0.1841
200375,Right,2,0.2836,-0.1075,-0.9449,-0.1234,0.0121,0.0059,0.0023,0.0138,0.1593,-0.0976,-5.4488,1.1385,7.9639,0.0002,0.0001,0.0000,1.0000,-0.1362,0.0284,0.1991
200375,Pelvis,2,-0.5362,-0.4469,-0.5370,0.4738,-0.0019,0.0027,0.0004,-0.0033,-0.0303,-0.0058,9.8007,-0.2739,0.2191,-0.0000,0.0000,0.0000,1.0000,0.2450,-0.0068,0.0055
200376,Left,2,0.3481,0.0564,-0.9338,0.0610,-0.0003,0.0027,0.0061,-0.0139,0.0787,-0.0090,-6.4360,-0.6966,7.3628,-0.0000,0.0000,0.0001,1.0000,-0.1609,-0.0174,0.1841
200376,Right,2,0.2838,-0.1076,-0.9448,-0.1233,0.0112,0.0041,0.0011,-0.0044,0.1455,-0.0725,-5.4527,1.1609,7.9883,0.0001,0.0001,0.0000,1.0000,-0.1363,0.0290,0.1997
200376,Pelvis,2,-0.5362,-0.4469,-0.5369,0.4738,0.0039,-0.0057,0.0012,-0.0082,-0.0267,-0.0286,9.7776,-0.2793,0.2224,0.0000,-0.0001,0.0000,1.0000,0.2444,-0.0070,0.0056
200377,Left,2,0.3480,0.0564,-0.9338,0.0610,0.0009,0.0034,0.0068,-0.0276,0.0612,-0.0151,-6.4197,-0.6807,7.3704,0.0000,0.0000,0.0001,1.0000,-0.1605,-0.0170,0.1843
200377,Right,2,0.2838,-0.1076,-0.9448,-0.1233,0.0107,0.0080,0.0004,-0.0022,0.1508,-0.0793,-5.4505,1.1553,7.9824,0.0001,0.0001,0.0000,1.0000,-0.1362,0.0289,0.1996
200377,Pelvis,2,-0.5362,-0.4470,-0.5368,0.4738,0.0152,-0.0175,0.0018,-0.0211,0.0324,-0.0416,9.7626,-0.2993,0.2779,0.0002,-0.0002,0.0000,1.0000,0.2441,-0.0075,0.0070
200378,Left,2,0.3480,0.0563,-0.9338,0.0609,0.0007,0.0045,0.0068,-0.0252,0.1004,-0.0022,-6.4326,-0.7190,7.3730,0.0000,0.0001,0.0001,1.0000,-0.1608,-0.0180,0.1843
200378,Right,2,0.2839,-0.1076,-0.9448,-0.1231,0.0100,0.0070,-0.0000,0.0003,0.1561,-0.0860,-5.4487,1.1495,7.9764,0.0001,0.0001,-0.0000,1.0000,-0.1362,0.0287,0.1994
200378,Pelvis,2,-0.5362,-0.4473,-0.5365,0.4739,0.0239,-0.0291,0.0031,-0.0150,0.0249,-0.0189,9.7858,-0.2945,0.2686,0.0003,-0.0004,0.0000,1.0000,0.2446,-0.0074,0.0068
200379,Left,2,0.3479,0.0563,-0.9338,0.0610,0.0010,0.0039,0.0074,-0.0212,0.0697,-0.0149,-6.4235,-0.6874,7.3667,0.0000,0.0000,0.0001,1.0000,-0.1606,-0.0172,0.1842
200379,Right,2,0.2839,-0.1077,-0.9448,-0.1233,0.0083,0.0064,-0.0005,0.0083,0.1539,-0.0705,-5.4643,1.1520,7.9843,0.0001,0.0001,-0.0000,1.0000,-0.1366,0.0288,0.1996
200379,Pelvis,2,-0.5362,-0.4475,-0.5362,0.4740,0.0268,-0.0290,0.0012,-0.0062,-0.0032,-0.0095,9.7962,-0.2835,0.2387,0.0003,-0.0004,0.0000,1.0000,0.2449,-0.0071,0.0061
200380,Left,2,0.3478,0.0563,-0.9339,0.0609,0.0010,0.0045,0.0059,0.0013,0.0664,-0.0216,-6.4333,-0.6799,7.3498,0.0000,0.0001,0.0001,1.0000,-0.1608,-0.0170,0.1838
200380,Right,2,0.2839,-0.1077,-0.9448,-0.1232,0.0106,0.0056,0.0001,0.0184,0.1445,-0.0752,-5.4725,1.1576,7.9719,0.0001,0.0001,0.0000,1.0000,-0.1368,0.0289,0.1993
200380,Pelvis,2,-0.5362,-0.4477,-0.5360,0.4741,0.0277,-0.0212,-0.0013,0.0330,-0.0149,-0.0081,9.7990,-0.2433,0.2289,0.0003,-0.0003,-0.0000,1.0000,0.2450,-0.0061,0.0058
200381,Left,2,0.3477,0.0563,-0.9339,0.0610,-0.0007,0.0042,0.0074,-0.0008,0.0760,-0.0090,-6.4402,-0.6906,7.3597,-0.0000,0.0001,0.0001,1.0000,-0.1610,-0.0173,0.1840
200381,Right,2,0.2839,-0.1077,-0.9448,-0.1231,0.0089,0.0031,0.0019,0.0114,0.1576,-0.0772,-5.4631,1.1480,7.9776,0.0001,0.0000,0.0000,1.0000,-0.1366,0.0287,0.1994
200381,Pelvis,2,-0.5362,-0.4479,-0.5357,0.4742,0.0182,-0.0228,0.0047,0.0676,-0.0006,-0.0375,9.7701,-0.2111,0.2434,0.0002,-0.0003,0.0001,1.0000,0.2443,-0.0053,0.0062
200382,Left,2,0.3478,0.0563,-0.9339,0.0611,0.0021,0.0042,0.0076,-0.0094,0.0768,-0.0056,-6.4366,-0.6924,7.3671,0.0000,0.0001,0.0001,1.0000,-0.1609,-0.0173,0.1842
200382,Right,2,0.2840,-0.1077,-0.9448,-0.1230,0.0138,0.0029,-0.0002,-0.0043,0.1641,-0.0589,-5.4620,1.1490,8.0007,0.0002,0.0000,-0.0000,1.0000,-0.1365,0.0287,0.2000
200382,Pelvis,2,-0.5364,-0.4479,-0.5355,0.4743,0.0065,-0.0255,0.0148,0.0996,0.0460,0.0043,9.8114,-0.1918,0.2913,0.0001,-0.0003,0.0002,1.0000,0.2453,-0.0048,0.0074
200383,Left,2,0.3477,0.0562,-0.9339,0.0609,0.0021,0.0022,0.0064,-0.0096,0.0770,-0.0148,-6.4289,-0.6915,7.3617,0.0000,0.0000,0.0001,1.0000,-0.1607,-0.0173,0.1840
200383,Right,2,0.2840,-0.1078,-0.9448,-0.1229,0.0107,0.0030,0.0021,0.0003,0.1621,-0.0724,-5.4572,1.1492,7.9874,0.0001,0.0000,0.0000,1.0000,-0.1364,0.0287,0.1997
200383,Pelvis,2,-0.5366,-0.4478,-0.5353,0.4742,-0.0079,-0.0268,0.0108,0.0216,0.0967,0.0512,9.8549,-0.2820,0.3273,-0.0001,-0.0003,0.0001,1.0000,0.2464,-0.0070,0.0083
200384,Left,2,0.3477,0.0562,-0.9339,0.0610,0.0014,0.0022,0.0081,-0.0195,0.0683,-0.0116,-6.4229,-0.6839,7.3719,0.0000,0.0000,0.0001,1.0000,-0.1606,-0.0171,0.1843
200384,Right,2,0.2841,-0.1078,-0.9448,-0.1228,0.0117,0.0035,0.0015,0.0060,0.1530,-0.0636,-5.4701,1.1579,7.9879,0.0001,0.0000,0.0000,1.0000,-0.1367,0.0289,0.1997
200384,Pelvis,2,-0.5369,-0.4478,-0.5353,0.4741,-0.0093,-0.0277,0.0018,-0.0653,0.1520,0.0129,9.8130,-0.3767,0.3637,-0.0001,-0.0003,0.0000,1.0000,0.2453,-0.0094,0.0092
200385,Left,2,0.3476,0.0562,-0.9340,0.0611,0.0014,0.0030,0.0046,0.0052,0.0932,-0.0180,-6.4386,-0.7041,7.3481,0.0000,0.0000,0.0001,1.0000,-0.1610,-0.0176,0.1837
200385,Right,2,0.2841,-0.1078,-0.9448,-0.1227,0.0113,0.0039,0.0034,-0.0035,0.1589,-0.0588,-5.4638,1.1567,7.9983,0.0001,0.0000,0.0000,1.0000,-0.1366,0.0289,0.2000
200385,Pelvis,2,-0.5371,-0.4480,-0.5351,0.4739,-0.0016,-0.0315,0.0003,-0.0361,0.1384,-0.0050,9.7964,-0.3457,0.3479,-0.0000,-0.0004,0.0000,1.0000,0.2449,-0.0086,0.0088
200386,Pelvis,2,-0.5372,-0.4481,-0.5349,0.4738,0.0066,-0.0267,0.0049,0.0108,0.0691,0.0400,9.8446,-0.2909,0.2815,0.0001,-0.0003,0.0001,1.0000,0.2461,-0.0073,0.0071
200387,Left,2,0.3477,0.0561,-0.9339,0.0611,0.0024,0.0022,0.0066,-0.0080,0.0751,-0.0148,-6.4309,-0.6867,7.3605,0.0001,0.0001,0.0002,1.0000,-0.3215,-0.0344,0.3680
200387,Right,2,0.2841,-0.1080,-0.9448,-0.1227,0.0114,0.0020,0.0031,0.0068,0.1668,-0.0814,-5.4586,1.1457,7.9760,0.0003,0.0000,0.0001,1.0000,-0.2729,0.0571,0.3988
200387,Pelvis,2,-0.5372,-0.4481,-0.5348,0.4739,0.0102,-0.0094,0.0069,0.0279,0.0079,0.0938,9.9004,-0.2680,0.2226,0.0001,-0.0001,0.0001,1.0000,0.2475,-0.0067,0.0056
200388,Left,2,0.3477,0.0561,-0.9339,0.0612,0.0007,0.0026,0.0056,-0.0152,0.0753,-0.0114,-6.4272,-0.6878,7.3681,0.0000,0.0000,0.0001,1.0000,-0.1607,-0.0172,0.1842
200388,Right,2,0.2839,-0.1080,-0.9448,-0.1226,0.0117,0.0058,0.0017,0.0268,0.1585,-0.0885,-5.4693,1.1486,7.9595,0.0001,0.0001,0.0000,1.0000,-0.1367,0.0287,0.1990
200388,Pelvis,2,-0.5371,-0.4480,-0.5348,0.4742,0.0117,0.0103,0.0075,0.0388,-0.0576,0.0976,9.9061,-0.2500,0.1606,0.0001,0.0001,0.0001,1.0000,0.2477,-0.0062,0.0040
200389,Left,2,0.3476,0.0562,-0.9339,0.0613,-0.0009,0.0014,0.0051,0.0028,0.0812,-0.0272,-6.4302,-0.6906,7.3442,-0.0000,0.0000,0.0001,1.0000,-0.1608,-0.0173,0.1836
200389,Right,2,0.2839,-0.1081,-0.9448,-0.1226,0.0139,0.0049,0.0032,0.0063,0.1587,-0.0789,-5.4577,1.1574,7.9778,0.0002,0.0001,0.0000,1.0000,-0.1364,0.0289,0.1995
200389,Pelvis,2,-0.5369,-0.4479,-0.5349,0.4744,0.0090,0.0193,0.0040,0.0550,-0.0264,0.0305,9.8385,-0.2387,0.1988,0.0001,0.0002,0.0001,1.0000,0.2460,-0.0060,0.0049
200390,Left,2,0.3476,0.0563,-0.9339,0.0613,-0.0021,0.0032,0.0040,-0.0371,0.0779,-0.0231,-6.4023,-0.6940,7.3738,-0.0000,0.0000,0.0001,1.0000,-0.1600,-0.0174,0.1844
200391,Left,2,0.3476,0.0563,-0.9340,0.0613,0.0014,0.0023,0.0081,-0.0302,0.0859,-0.0138,-6.4134,-0.7017,7.3758,0.0000,0.0000,0.0001,1.0000,-0.1603,-0.0176,0.1844
200391,Right,2,0.2840,-0.1082,-0.9448,-0.1223,0.0112,0.0045,0.0008,-0.0039,0.1577,-0.0809,-5.4500,1.1630,7.9798,0.0003,0.0001,0.0000,1.0000,-0.2725,0.0580,0.3990
200391,Pelvis,2,-0.5367,-0.4475,-0.5352,0.4746,-0.0052,0.0164,-0.0015,0.0844,0.0164,-0.0519,9.7556,-0.2143,0.2512,-0.0001,0.0004,-0.0000,1.0000,0.4878,-0.0107,0.0124
200392,Left,2,0.3475,0.0563,-0.9340,0.0614,-0.0010,0.0048,0.0068,-0.0118,0.0724,-0.0206,-6.4211,-0.6850,7.3615,-0.0000,0.0001,0.0001,1.0000,-0.1605,-0.0171,0.1840
200393,Left,2,0.3475,0.0562,-0.9340,0.0613,0.0014,0.0043,0.0072,-0.0167,0.0833,-0.0171,-6.4196,-0.6962,7.3664,0.0000,0.0001,0.0001,1.0000,-0.1605,-0.0174,0.1842
200393,Right,2,0.2840,-0.1082,-0.9449,-0.1220,0.0110,0.0061,0.0003,0.0078,0.1741,-0.0720,-5.4618,1.1470,7.9853,0.0003,0.0002,0.0000,1.0000,-0.2730,0.0572,0.3993
200393,Pelvis,2,-0.5369,-0.4473,-0.5355,0.4743,-0.0222,0.0007,-0.0059,0.0787,0.0059,-0.0002,9.8073,-0.2195,0.2457,-0.0006,0.0000,-0.0001,1.0000,0.4904,-0.0110,0.0123
200394,Left,2,0.3475,0.0561,-0.9340,0.0613,0.0015,0.0048,0.0078,-0.0227,0.0743,-0.0047,-6.4225,-0.6880,7.3811,0.0000,0.0001,0.0001,1.0000,-0.1605,-0.0172,0.1845
200394,Right,2,0.2840,-0.1082,-0.9448,-0.1221,0.0110,0.0048,0.0013,0.0080,0.1777,-0.0652,-5.4654,1.1450,7.9915,0.0001,0.0001,0.0000,1.0000,-0.1366,0.0286,0.1998
200394,Pelvis,2,-0.5370,-0.4470,-0.5359,0.4741,-0.0338,-0.0011,-0.0085,0.0520,-0.0076,-0.0003,9.8068,-0.2423,0.2329,-0.0004,-0.0000,-0.0001,1.0000,0.2452,-0.0061,0.0058
200395,Left,2,0.3475,0.0561,-0.9340,0.0613,0.0022,0.0046,0.0082,-0.0104,0.0819,-0.0080,-6.4300,-0.6925,7.3698,0.0000,0.0001,0.0001,1.0000,-0.1607,-0.0173,0.1843
200395,Right,2,0.2841,-0.1082,-0.9448,-0.1220,0.0111,0.0039,0.0020,0.0070,0.1687,-0.0719,-5.4642,1.1529,7.9827,0.0001,0.0000,0.0000,1.0000,-0.1366,0.0288,0.1996
200395,Pelvis,2,-0.5371,-0.4468,-0.5362,0.4738,-0.0356,0.0030,-0.0109,0.0232,-0.0095,0.0438,9.8502,-0.2696,0.2291,-0.0004,0.0000,-0.0001,1.0000,0.2463,-0.0068,0.0057
200396,Left,2,0.3473,0.0562,-0.9340,0.0614,-0.0002,0.0051,0.0078,-0.0123,0.0812,0.0046,-6.4350,-0.6936,7.3821,-0.0000,0.0001,0.0001,1.0000,-0.1609,-0.0174,0.1846
200396,Right,2,0.2840,-0.1082,-0.9449,-0.1219,0.0125,0.0037,0.0017,-0.0031,0.1678,-0.0604,-5.4613,1.1597,7.9978,0.0002,0.0000,0.0000,1.0000,-0.1365,0.0290,0.2000
200396,Pelvis,2,-0.5371,-0.4465,-0.5366,0.4735,-0.0312,0.0127,-0.0118,-0.0178,-0.0240,0.0414,9.8472,-0.3045,0.2108,-0.0004,0.0002,-0.0001,1.0000,0.2462,-0.0076,0.0052
200397,Left,2,0.3475,0.0561,-0.9340,0.0615,0.0011,0.0049,0.0065,-0.0032,0.0890,0.0013,-6.4426,-0.6985,7.3707,0.0000,0.0001,0.0001,1.0000,-0.1611,-0.0175,0.1843
200397,Right,2,0.2842,-0.1082,-0.9448,-0.1218,0.0117,0.0053,-0.0007,-0.0027,0.1660,-0.0739,-5.4569,1.1597,7.9843,0.0001,0.0001,-0.0000,1.0000,-0.1364,0.0290,0.1996
200397,Pelvis,2,-0.5371,-0.4463,-0.5369,0.4734,-0.0290,0.0150,-0.0092,-0.0191,-0.0020,-0.0200,9.7851,-0.3055,0.2346,-0.0004,0.0002,-0.0001,1.0000,0.2446,-0.0077,0.0058
200398,Left,2,0.3475,0.0561,-0.9340,0.0615,0.0007,0.0045,0.0068,-0.0159,0.0809,-0.0046,-6.4286,-0.6917,7.3756,0.0000,0.0001,0.0001,1.0000,-0.1607,-0.0173,0.1844
200398,Right,2,0.2842,-0.1083,-0.9448,-0.1218,0.0102,0.0059,0.0029,-0.0010,0.1781,-0.0738,-5.4567,1.1487,7.9864,0.0001,0.0001,0.0000,1.0000,-0.1364,0.0287,0.1997
200398,Pelvis,2,-0.5372,-0.4461,-0.5372,0.4732,-0.0271,0.0055,-0.0084,-0.0008,0.0329,-0.0246,9.7800,-0.2902,0.2745,-0.0003,0.0001,-0.0001,1.0000,0.2445,-0.0073,0.0068
200399,Left,2,0.3474,0.0561,-0.9340,0.0615,0.0009,0.0035,0.0068,-0.0081,0.0790,-0.0171,-6.4255,-0.6879,7.3620,0.0000,0.0000,0.0001,1.0000,-0.1606,-0.0172,0.1841
200399,Right,2,0.2842,-0.1084,-0.9448,-0.1220,0.0114,0.0049,0.0019,-0.0057,0.1699,-0.0535,-5.4663,1.1615,8.0026,0.0001,0.0001,0.0000,1.0000,-0.1366,0.0290,0.2001
200399,Pelvis,2,-0.5373,-0.4460,-0.5374,0.4730,-0.0211,-0.0012,-0.0022,-0.0185,0.0408,-0.0270,9.7769,-0.3073,0.2810,-0.0003,-0.0000,-0.0000,1.0000,0.2444,-0.0077,0.0070
200400,Left,2,0.3473,0.0561,-0.9340,0.0616,0.0017,0.0037,0.0078,-0.0018,0.0773,-0.0079,-6.4347,-0.6859,7.3664,0.0000,0.0000,0.0001,1.0000,-0.1609,-0.0172,0.1842
200400,Right,2,0.2844,-0.1084,-0.9447,-0.1219,0.0122,0.0052,0.0021,0.0081,0.1808,-0.0785,-5.4643,1.1441,7.9763,0.0002,0.0001,0.0000,1.0000,-0.1366,0.0286,0.1994
200400,Pelvis,2,-0.5374,-0.4459,-0.5375,0.4728,-0.0183,-0.0151,-0.0010,-0.0108,0.0545,-0.0339,9.7699,-0.3003,0.2957,-0.0002,-0.0002,-0.0000,1.0000,0.2442,-0.0075,0.0074
200401,Left,2,0.3473,0.0562,-0.9340,0.0617,0.0012,0.0029,0.0074,-0.0221,0.0801,-0.0103,-6.4181,-0.6913,7.3772,0.0000,0.0000,0.0001,1.0000,-0.1604,-0.0173,0.1844
200401,Right,2,0.2845,-0.1084,-0.9447,-0.1219,0.0126,0.0030,0.0015,0.0169,0.1782,-0.0764,-5.4740,1.1451,7.9719,0.0002,0.0000,0.0000,1.0000,-0.1368,0.0286,0.1993
200401,Pelvis,2,-0.5375,-0.4459,-0.5375,0.4726,-0.0136,-0.0216,-0.0008,-0.0346,0.0162,-0.0077,9.7966,-0.3174,0.2527,-0.0002,-0.0003,-0.0000,1.0000,0.2449,-0.0079,0.0064
200402,Left,2,0.3474,0.0562,-0.9340,0.0617,0.0013,0.0039,0.0066,-0.0067,0.0771,-0.0262,-6.4194,-0.6843,7.3556,0.0000,0.0000,0.0001,1.0000,-0.1605,-0.0171,0.1839
200402,Right,2,0.2845,-0.1085,-0.9447,-0.1220,0.0106,0.0037,0.0023,0.0055,0.1706,-0.0717,-5.4689,1.1573,7.9792,0.0001,0.0000,0.0000,1.0000,-0.1367,0.0289,0.1995
200402,Pelvis,2,-0.5377,-0.4460,-0.5374,0.4723,-0.0069,-0.0296,-0.0012,-0.0186,0.0025,-0.0144,9.7909,-0.2987,0.2364,-0.0001,-0.0004,-0.0000,1.0000,0.2448,-0.0075,0.0060
200403,Left,2,0.3473,0.0561,-0.9340,0.0618,0.0023,0.0016,0.0071,-0.0028,0.0856,0.0047,-6.4429,-0.6934,7.3755,0.0000,0.0000,0.0001,1.0000,-0.1611,-0.0174,0.1844
200403,Right,2,0.2844,-0.1085,-0.9447,-0.1219,0.0106,0.0037,0.0023,0.0092,0.1684,-0.0852,-5.4643,1.1573,7.9659,0.0001,0.0000,0.0000,1.0000,-0.1366,0.0289,0.1992
200403,Pelvis,2,-0.5380,-0.4461,-0.5373,0.4721,-0.0034,-0.0355,-0.0014,0.0067,0.0088,-0.0188,9.7872,-0.2733,0.2393,-0.0000,-0.0004,-0.0000,1.0000,0.2447,-0.0068,0.0061
200404,Left,2,0.3473,0.0560,-0.9340,0.0617,0.0031,0.0027,0.0045,-0.0072,0.0763,-0.0045,-6.4329,-0.6834,7.3727,0.0000,0.0000,0.0001,1.0000,-0.1608,-0.0171,0.1843
200404,Right,2,0.2844,-0.1086,-0.9447,-0.1219,0.0112,0.0001,0.0014,0.0093,0.1665,-0.0851,-5.4646,1.1597,7.9653,0.0001,0.0000,0.0000,1.0000,-0.1366,0.0290,0.1991
200404,Pelvis,2,-0.5382,-0.4463,-0.5371,0.4718,-0.0024,-0.0405,-0.0009,-0.0020,0.0350,-0.0189,9.7863,-0.2848,0.2568,-0.0000,-0.0005,-0.0000,1.0000,0.2447,-0.0071,0.0065
200405,Left,2,0.3472,0.0560,-0.9341,0.0617,-0.0006,0.0012,0.0063,-0.0148,0.0874,-0.0102,-6.4225,-0.6952,7.3732,-0.0000,0.0000,0.0001,1.0000,-0.1606,-0.0174,0.1843
200405,Right,2,0.2844,-0.1086,-0.9447,-0.1218,0.0118,0.0010,0.0026,0.0055,0.1786,-0.0580,-5.4740,1.1539,7.9931,0.0001,0.0000,0.0000,1.0000,-0.1368,0.0288,0.1998
200405,Pelvis,2,-0.5385,-0.4466,-0.5369,0.4715,-0.0007,-0.0431,-0.0007,-0.0017,0.0257,0.0163,9.8221,-0.2829,0.2380,-0.0000,-0.0005,-0.0000,1.0000,0.2455,-0.0071,0.0061
200406,Left,2,0.3472,0.0560,-0.9341,0.0616,0.0025,0.0021,0.0076,-0.0092,0.0764,-0.0228,-6.4169,-0.6822,7.3624,0.0000,0.0000,0.0001,1.0000,-0.1604,-0.0171,0.1841
200406,Right,2,0.2842,-0.1087,-0.9448,-0.1219,0.0120,-0.0015,0.0038,0.0075,0.1769,-0.0580,-5.4739,1.1567,7.9928,0.0002,-0.0000,0.0000,1.0000,-0.1369,0.0289,0.1998
200406,Pelvis,2,-0.5387,-0.4468,-0.5368,0.4713,-0.0006,-0.0386,-0.0003,-0.0087,0.0129,0.0106,9.8168,-0.2860,0.2157,-0.0000,-0.0005,-0.0000,1.0000,0.2454,-0.0072,0.0055
200407,Left,2,0.3471,0.0560,-0.9341,0.0617,0.0024,0.0001,0.0065,-0.0013,0.0943,-0.0135,-6.4298,-0.6984,7.3623,0.0000,0.0000,0.0001,1.0000,-0.1607,-0.0175,0.1841
200407,Right,2,0.2843,-0.1087,-0.9447,-0.1218,0.0110,0.0015,0.0017,-0.0375,0.1721,-0.0882,-5.4216,1.1709,7.9895,0.0001,0.0000,0.0000,1.0000,-0.1355,0.0292,0.1997
200407,Pelvis,2,-0.5389,-0.4470,-0.5365,0.4711,-0.0006,-0.0452,-0.0016,-0.0204,0.0278,0.0048,9.8105,-0.3007,0.2200,-0.0000,-0.0006,-0.0000,1.0000,0.2453,-0.0075,0.0056
200408,Left,2,0.3471,0.0560,-0.9341,0.0618,0.0018,0.0023,0.0073,-0.0231,0.0874,-0.0160,-6.4107,-0.6946,7.3759,0.0000,0.0000,0.0001,1.0000,-0.1603,-0.0174,0.1844
200408,Right,2,0.2844,-0.1087,-0.9447,-0.1217,0.0111,0.0049,0.0005,0.0100,0.1795,-0.0781,-5.4658,1.1513,7.9746,0.0001,0.0001,0.0000,1.0000,-0.1366,0.0288,0.1994
200408,Pelvis,2,-0.5392,-0.4472,-0.5362,0.4710,0.0025,-0.0414,0.0027,-0.0282,0.0307,0.0036,9.8092,-0.3100,0.2124,0.0000,-0.0005,0.0000,1.0000,0.2452,-0.0077,0.0054
200409,Left,2,0.3472,0.0560,-0.9341,0.0620,0.0007,0.0020,0.0071,-0.0055,0.0832,-0.0227,-6.4202,-0.6870,7.3594,0.0000,0.0000,0.0001,1.0000,-0.1605,-0.0172,0.1840
200409,Right,2,0.2843,-0.1087,-0.9447,-0.1216,0.0120,0.0052,0.0007,-0.0009,0.1785,-0.0666,-5.4631,1.1579,7.9895,0.0001,0.0001,0.0000,1.0000,-0.1366,0.0289,0.1998
200409,Pelvis,2,-0.5394,-0.4473,-0.5360,0.4708,-0.0024,-0.0354,0.0064,-0.0118,0.0238,0.0151,9.8214,-0.2930,0.2007,-0.0000,-0.0004,0.0001,1.0000,0.2455,-0.0073,0.0051
200410,Left,2,0.3472,0.0560,-0.9341,0.0619,0.0015,0.0029,0.0066,-0.0180,0.0949,-0.0067,-6.4223,-0.7006,7.3776,0.0000,0.0000,0.0001,1.0000,-0.1606,-0.0175,0.1844
200410,Right,2,0.2845,-0.1086,-0.9448,-0.1212,0.0107,0.0052,0.0032,0.0181,0.1674,-0.0693,-5.4800,1.1624,7.9737,0.0001,0.0001,0.0000,1.0000,-0.1370,0.0290,0.1994
200410,Pelvis,2,-0.5396,-0.4473,-0.5359,0.4706,-0.0040,-0.0270,0.0071,-0.0030,0.0254,0.0345,9.8411,-0.2860,0.1975,-0.0000,-0.0003,0.0001,1.0000,0.2460,-0.0071,0.0050
200411,Left,2,0.3471,0.0560,-0.9341,0.0620,0.0009,0.0035,0.0068,-0.0205,0.0850,-0.0160,-6.4125,-0.6906,7.3747,0.0000,0.0000,0.0001,1.0000,-0.1603,-0.0173,0.1844
200411,Right,2,0.2844,-0.1086,-0.9448,-0.1211,0.0107,0.0038,0.0014,0.0117,0.1731,-0.0780,-5.4686,1.1587,7.9716,0.0001,0.0000,0.0000,1.0000,-0.1367,0.0289,0.1993
200411,Pelvis,2,-0.5398,-0.4474,-0.5358,0.4705,-0.0058,-0.0203,0.0050,0.0069,0.0471,0.0458,9.8522,-0.2812,0.2161,-0.0001,-0.0003,0.0001,1.0000,0.2463,-0.0070,0.0055
200412,Left,2,0.3471,0.0560,-0.9341,0.0622,0.0012,0.0048,0.0086,-0.0073,0.0818,-0.0102,-6.4263,-0.6855,7.3708,0.0000,0.0001,0.0001,1.0000,-0.1606,-0.0172,0.1843
200412,Pelvis,2,-0.5399,-0.4474,-0.5357,0.4705,-0.0036,-0.0174,0.0043,-0.0017,0.0667,0.0276,9.8334,-0.2937,0.2307,-0.0000,-0.0002,0.0001,1.0000,0.2458,-0.0073,0.0058
200413,Left,2,0.3472,0.0560,-0.9341,0.0621,0.0003,0.0041,0.0070,-0.0285,0.0851,-0.0126,-6.4099,-0.6910,7.3815,0.0000,0.0001,0.0001,1.0000,-0.1602,-0.0173,0.1845
200413,Right,2,0.2845,-0.1087,-0.9448,-0.1210,0.0127,0.0046,0.0013,0.0009,0.1787,-0.0732,-5.4629,1.1588,7.9815,0.0003,0.0001,0.0000,1.0000,-0.2731,0.0578,0.3991
200413,Pelvis,2,-0.5400,-0.4474,-0.5356,0.4705,0.0011,-0.0185,0.0028,-0.0075,0.0494,0.0128,9.8189,-0.2975,0.2103,0.0000,-0.0002,0.0000,1.0000,0.2455,-0.0074,0.0053
200414,Left,2,0.3472,0.0559,-0.9341,0.0620,0.0015,0.0054,0.0063,-0.0189,0.0835,-0.0159,-6.4153,-0.6866,7.3726,0.0000,0.0001,0.0001,1.0000,-0.1604,-0.0172,0.1843
200414,Right,2,0.2846,-0.1087,-0.9448,-0.1209,0.0111,0.0072,0.0015,0.0005,0.1750,-0.0731,-5.4645,1.1627,7.9799,0.0001,0.0001,0.0000,1.0000,-0.1366,0.0290,0.1995
200414,Pelvis,2,-0.5401,-0.4474,-0.5355,0.4705,0.0008,-0.0125,0.0119,0.0226,0.0453,0.0221,9.8290,-0.2687,0.2096,0.0000,-0.0002,0.0001,1.0000,0.2457,-0.0067,0.0053
200415,Left,2,0.3474,0.0558,-0.9340,0.0619,0.0012,0.0094,0.0074,-0.0246,0.0745,-0.0561,-6.3854,-0.6754,7.3463,0.0000,0.0001,0.0001,1.0000,-0.1596,-0.0169,0.1837
200415,Right,2,0.2846,-0.1088,-0.9447,-0.1211,0.0128,0.0086,0.0013,0.0036,0.1868,-0.0730,-5.4647,1.1520,7.9817,0.0002,0.0001,0.0000,1.0000,-0.1366,0.0288,0.1996
200415,Pelvis,2,-0.5402,-0.4469,-0.5355,0.4708,-0.0114,0.0098,0.0377,0.0309,0.0248,0.0495,9.8568,-0.2638,0.1937,-0.0001,0.0001,0.0005,1.0000,0.2464,-0.0065,0.0048
200416,Left,2,0.3476,0.0559,-0.9339,0.0619,-0.0015,0.0225,0.0016,-0.0234,0.1032,-0.0123,-6.4196,-0.7061,7.3721,-0.0000,0.0003,0.0000,1.0000,-0.1604,-0.0177,0.1843
200416,Right,2,0.2847,-0.1089,-0.9447,-0.1210,0.0153,0.0144,0.0002,-0.0250,0.1872,-0.0789,-5.4401,1.1600,7.9901,0.0002,0.0002,0.0000,1.0000,-0.1360,0.0290,0.1998
200416,Pelvis,2,-0.5405,-0.4459,-0.5356,0.4713,-0.0370,0.0366,0.0716,-0.0003,0.0246,0.1242,9.9301,-0.3111,0.1976,-0.0005,0.0005,0.0009,1.0000,0.2483,-0.0076,0.0048
200417,Left,2,0.3478,0.0559,-0.9339,0.0618,-0.0024,0.0225,0.0041,-0.0175,0.1318,-0.0429,-6.4091,-0.7325,7.3385,-0.0000,0.0003,0.0001,1.0000,-0.1602,-0.0183,0.1835
200417,Pelvis,2,-0.5412,-0.4449,-0.5356,0.4714,-0.0611,0.0104,0.0847,-0.1334,0.2013,0.0526,9.8499,-0.4855,0.3562,-0.0008,0.0001,0.0011,1.0000,0.2463,-0.0119,0.0089
200418,Left,2,0.3479,0.0560,-0.9338,0.0617,-0.0025,0.0199,-0.0032,0.0016,0.0579,0.0080,-6.4535,-0.6614,7.3731,-0.0000,0.0002,-0.0000,1.0000,-0.1613,-0.0165,0.1844
200418,Right,2,0.2852,-0.1094,-0.9444,-0.1212,0.0200,0.0299,0.0011,-0.0251,0.1958,-0.0686,-5.4505,1.1576,7.9961,0.0005,0.0007,0.0000,1.0000,-0.2722,0.0577,0.4000
200418,Pelvis,2,-0.5423,-0.4439,-0.5353,0.4715,-0.0665,-0.0318,0.0980,-0.4409,0.2735,-0.0201,9.7648,-0.8199,0.3755,-0.0008,-0.0004,0.0012,1.0000,0.2441,-0.0202,0.0095
200419,Left,2,0.3481,0.0562,-0.9338,0.0615,-0.0059,0.0192,-0.0134,0.0131,0.0948,0.0176,-6.4738,-0.6997,7.3650,-0.0001,0.0002,-0.0002,1.0000,-0.1618,-0.0175,0.1842
200419,Right,2,0.2856,-0.1094,-0.9443,-0.1212,0.0155,0.0436,-0.0051,-0.0091,0.1801,-0.0903,-5.4614,1.1668,7.9604,0.0002,0.0005,-0.0001,1.0000,-0.1364,0.0291,0.1991
200419,Pelvis,2,-0.5435,-0.4431,-0.5346,0.4717,-0.0339,-0.0530,0.1164,-0.5039,0.2804,0.0544,9.8351,-0.9116,0.3628,-0.0004,-0.0007,0.0015,1.0000,0.2459,-0.0224,0.0092
200420,Left,2,0.3480,0.0563,-0.9338,0.0614,-0.0021,0.0126,-0.0081,-0.0030,0.1069,0.0153,-6.4613,-0.7183,7.3713,-0.0000,0.0002,-0.0001,1.0000,-0.1615,-0.0179,0.1843
200420,Right,2,0.2860,-0.1095,-0.9442,-0.1214,0.0122,0.0416,-0.0053,-0.0028,0.1775,-0.0612,-5.4898,1.1722,7.9756,0.0002,0.0005,-0.0001,1.0000,-0.1371,0.0293,0.1995
200420,Pelvis,2,-0.5445,-0.4426,-0.5335,0.4722,0.0069,-0.0423,0.1212,-0.5715,0.1860,0.1062,9.8841,-0.9945,0.2468,0.0001,-0.0005,0.0015,1.0000,0.2471,-0.0245,0.0063
200421,Left,2,0.3480,0.0563,-0.9338,0.0614,-0.0005,0.0024,0.0034,-0.0112,0.0781,0.0058,-6.4480,-0.6919,7.3726,-0.0000,0.0000,0.0000,1.0000,-0.1612,-0.0173,0.1843
200421,Right,2,0.2863,-0.1097,-0.9440,-0.1215,0.0145,0.0381,-0.0018,0.0288,0.2076,-0.0482,-5.5241,1.1371,7.9737,0.0002,0.0005,-0.0000,1.0000,-0.1380,0.0284,0.1994
200421,Pelvis,2,-0.5450,-0.4422,-0.5325,0.4732,0.0413,-0.0257,0.1149,-0.5894,0.1328,0.0438,9.8193,-1.0306,0.1837,0.0005,-0.0003,0.0014,1.0000,0.2455,-0.0254,0.0047
200422,Left,2,0.3480,0.0565,-0.9338,0.0615,-0.0035,-0.0004,0.0010,0.0158,0.0719,0.0482,-6.4949,-0.6857,7.3885,-0.0000,-0.0000,0.0000,1.0000,-0.1624,-0.0171,0.1847
200422,Right,2,0.2865,-0.1098,-0.9440,-0.1217,0.0159,0.0211,-0.0010,0.0390,0.1772,-0.0599,-5.5362,1.1623,7.9466,0.0002,0.0003,-0.0000,1.0000,-0.1384,0.0290,0.1987
200422,Pelvis,2,-0.5453,-0.4421,-0.5314,0.4741,0.0676,-0.0299,0.0923,-0.6495,0.1486,-0.0226,9.7476,-1.1138,0.1856,0.0008,-0.0004,0.0012,1.0000,0.2437,-0.0276,0.0047
200423,Left,2,0.3478,0.0567,-0.9338,0.0615,-0.0154,-0.0070,-0.0054,0.0048,0.0937,0.0027,-6.4560,-0.7093,7.3598,-0.0002,-0.0001,-0.0001,1.0000,-0.1614,-0.0177,0.1840
200423,Right,2,0.2866,-0.1098,-0.9440,-0.1215,0.0108,0.0086,0.0019,0.0204,0.1972,-0.0569,-5.5220,1.1498,7.9624,0.0001,0.0001,0.0000,1.0000,-0.1380,0.0287,0.1991
200423,Pelvis,2,-0.5453,-0.4425,-0.5303,0.4751,0.0935,-0.0411,0.0697,-0.6470,0.1398,-0.0622,9.7060,-1.1280,0.1729,0.0012,-0.0005,0.0009,1.0000,0.2427,-0.0280,0.0044
200424,Left,2,0.3475,0.0569,-0.9339,0.0613,-0.0135,-0.0104,-0.0045,-0.0123,0.0864,0.0094,-6.4434,-0.7099,7.3796,-0.0002,-0.0001,-0.0001,1.0000,-0.1611,-0.0177,0.1845
200424,Right,2,0.2866,-0.1098,-0.9439,-0.1215,0.0119,0.0025,0.0035,-0.0048,0.1905,-0.0832,-5.4887,1.1604,7.9516,0.0001,0.0000,0.0000,1.0000,-0.1372,0.0290,0.1988
200424,Pelvis,2,-0.5453,-0.4433,-0.5290,0.4758,0.1187,-0.0636,0.0470,-0.5707,0.0916,-0.1536,9.6179,-1.0540,0.1271,0.0015,-0.0008,0.0006,1.0000,0.2405,-0.0262,0.0033
200425,Left,2,0.3473,0.0571,-0.9340,0.0614,-0.0119,-0.0124,-0.0022,-0.0025,0.0940,-0.0031,-6.4393,-0.7194,7.3658,-0.0001,-0.0002,-0.0000,1.0000,-0.1610,-0.0180,0.1841
200425,Right,2,0.2865,-0.1099,-0.9440,-0.1213,0.0127,0.0036,0.0031,0.0044,0.2081,-0.0607,-5.5044,1.1454,7.9709,0.0002,0.0000,0.0000,1.0000,-0.1376,0.0286,0.1993
200425,Pelvis,2,-0.5452,-0.4444,-0.5276,0.4764,0.1289,-0.0854,0.0238,-0.4121,-0.0062,-0.2205,9.5599,-0.8874,0.0406,0.0016,-0.0011,0.0003,1.0000,0.2390,-0.0221,0.0012
200426,Left,2,0.3471,0.0572,-0.9341,0.0613,-0.0158,-0.0126,-0.0025,0.0145,0.1003,0.0120,-6.4604,-0.7272,7.3667,-0.0002,-0.0002,-0.0000,1.0000,-0.1615,-0.0181,0.1841
200426,Right,2,0.2863,-0.1099,-0.9441,-0.1212,0.0128,-0.0044,0.0045,0.0288,0.1832,-0.0771,-5.5159,1.1612,7.9399,0.0002,-0.0001,0.0001,1.0000,-0.1379,0.0290,0.1985
200426,Pelvis,2,-0.5451,-0.4458,-0.5263,0.4767,0.1257,-0.0988,-0.0060,-0.3544,-0.0857,-0.1303,9.6539,-0.8257,-0.0473,0.0016,-0.0012,-0.0001,1.0000,0.2413,-0.0207,-0.0009
200427,Right,2,0.2861,-0.1098,-0.9442,-0.1211,0.0074,-0.0134,0.0033,0.0386,0.1869,-0.0683,-5.5250,1.1566,7.9452,0.0001,-0.0002,0.0000,1.0000,-0.1382,0.0289,0.1986
200427,Pelvis,2,-0.5448,-0.4473,-0.5253,0.4767,0.1099,-0.0941,-0.0478,-0.2525,-0.1346,0.0078,9.7977,-0.7203,-0.0994,0.0014,-0.0012,-0.0006,1.0000,0.2449,-0.0182,-0.0022
200428,Left,2,0.3466,0.0574,-0.9342,0.0614,-0.0091,-0.0157,0.0056,-0.0009,0.1080,-0.0229,-6.4215,-0.7383,7.3533,-0.0002,-0.0004,0.0001,1.0000,-0.3212,-0.0369,0.3675
200428,Right,2,0.2858,-0.1098,-0.9443,-0.1210,0.0086,-0.0148,0.0054,0.0313,0.1992,-0.0701,-5.5118,1.1472,7.9538,0.0001,-0.0002,0.0001,1.0000,-0.1378,0.0286,0.1988
200428,Pelvis,2,-0.5446,-0.4489,-0.5247,0.4760,0.0685,-0.0977,-0.0903,-0.1310,-0.0631,0.0564,9.8519,-0.5983,-0.0329,0.0009,-0.0012,-0.0011,1.0000,0.2463,-0.0152,-0.0005
200429,Left,2,0.3465,0.0574,-0.9343,0.0616,0.0038,-0.0154,0.0159,-0.0250,0.1155,-0.0235,-6.3989,-0.7506,7.3711,0.0000,-0.0002,0.0002,1.0000,-0.1600,-0.0188,0.1842
200429,Pelvis,2,-0.5444,-0.4504,-0.5247,0.4749,0.0205,-0.1001,-0.1280,-0.1318,0.1261,-0.0073,9.7880,-0.5984,0.1319,0.0003,-0.0013,-0.0016,1.0000,0.2447,-0.0154,0.0036
200430,Left,2,0.3464,0.0572,-0.9343,0.0618,0.0094,-0.0114,0.0240,-0.0031,0.1503,-0.0081,-6.4265,-0.7786,7.3652,0.0001,-0.0001,0.0003,1.0000,-0.1607,-0.0195,0.1841
200430,Right,2,0.2853,-0.1098,-0.9444,-0.1209,0.0066,-0.0158,0.0107,0.0261,0.2428,-0.0962,-5.4798,1.1059,7.9510,0.0002,-0.0004,0.0003,1.0000,-0.2742,0.0552,0.3974
200430,Pelvis,2,-0.5440,-0.4519,-0.5252,0.4733,-0.0135,-0.0747,-0.1681,-0.0146,0.2636,-0.0053,9.7962,-0.4673,0.2637,-0.0002,-0.0009,-0.0021,1.0000,0.2449,-0.0122,0.0068
200432,Left,2,0.3467,0.0564,-0.9342,0.0622,0.0199,0.0182,0.0343,0.0324,0.1778,0.0501,-6.4941,-0.7932,7.3827,0.0005,0.0005,0.0009,1.0000,-0.3245,-0.0401,0.3693
200432,Right,2,0.2846,-0.1101,-0.9447,-0.1203,0.0164,-0.0259,0.0328,0.0402,0.2507,-0.0650,-5.4977,1.1048,7.9773,0.0004,-0.0006,0.0008,1.0000,-0.2752,0.0549,0.3987
200432,Pelvis,2,-0.5393,-0.4557,-0.5293,0.4706,0.0377,0.0654,-0.3080,0.0577,0.9991,0.6172,10.4203,-0.4270,1.0102,0.0009,0.0016,-0.0077,1.0000,0.5209,-0.0254,0.0496
200433,Left,2,0.3489,0.0561,-0.9334,0.0624,0.0244,0.1819,0.0457,-0.5966,0.7214,-0.0377,-6.0265,-1.4084,7.6240,0.0003,0.0023,0.0006,1.0000,-0.1502,-0.0354,0.1909
200433,Right,2,0.2838,-0.1104,-0.9449,-0.1202,0.0292,-0.0432,0.0345,-0.0009,0.1010,-0.0835,-5.4649,1.2653,7.9499,0.0004,-0.0005,0.0004,1.0000,-0.1367,0.0315,0.1987
200433,Pelvis,2,-0.5325,-0.4599,-0.5318,0.4714,0.3683,0.2582,-0.5034,-0.5600,2.3245,1.1805,10.9598,-1.0845,2.2971,0.0046,0.0032,-0.0063,1.0000,0.2740,-0.0291,0.0564
200434,Left,2,0.3593,0.0554,-0.9293,0.0646,0.0410,0.8811,0.2512,-2.8758,1.2522,-0.5523,-4.1414,-2.2343,8.5705,0.0005,0.0110,0.0031,0.9999,-0.1010,-0.0563,0.2154
200434,Right,2,0.2831,-0.1108,-0.9450,-0.1201,0.0391,-0.0576,0.0397,-0.0040,0.1893,-0.0913,-5.4340,1.1909,7.9747,0.0005,-0.0007,0.0005,1.0000,-0.1360,0.0296,0.1993
200434,Pelvis,2,-0.5241,-0.4653,-0.5323,0.4748,0.6752,0.3014,-0.4262,-1.0830,2.4207,-0.2709,9.4992,-1.4500,2.3967,0.0084,0.0038,-0.0053,0.9999,0.2375,-0.0380,0.0587
200435,Left,2,0.3869,0.0451,-0.9180,0.0747,0.5683,2.2886,1.2326,-5.8269,2.1535,6.0015,-7.0638,-3.7376,14.9973,0.0071,0.0286,0.0154,0.9994,-0.1643,-0.0987,0.3791
200435,Right,2,0.2826,-0.1114,-0.9452,-0.1196,0.0600,-0.0416,0.0494,-0.0448,0.1266,0.0211,-5.4645,1.2911,8.0742,0.0007,-0.0005,0.0006,1.0000,-0.1367,0.0320,0.2018
200435,Pelvis,2,-0.5175,-0.4688,-0.5298,0.4814,0.7630,0.2884,-0.0380,-1.1816,0.3073,-2.2875,7.5171,-1.2242,0.3389,0.0095,0.0036,-0.0005,0.9999,0.1879,-0.0308,0.0075
200436,Left,2,0.4025,0.0457,-0.9110,0.0779,-0.0675,1.3536,0.3140,-3.3121,2.5162,19.9957,-19.7486,-3.7408,22.4039,-0.0008,0.0169,0.0039,0.9998,-0.4838,-0.0950,0.5684
200436,Right,2,0.2823,-0.1121,-0.9452,-0.1195,0.0578,-0.0121,0.0277,-0.0322,0.1785,0.0372,-5.4672,1.2559,8.0985,0.0007,-0.0002,0.0003,1.0000,-0.1367,0.0312,0.2025
200436,Pelvis,2,-0.5110,-0.4674,-0.5278,0.4918,0.6829,0.6326,0.2973,-0.6698,-1.1316,-0.8272,9.0161,-0.6201,-0.8921,0.0085,0.0079,0.0037,0.9999,0.2253,-0.0145,-0.0242
200437,Left,2,0.4089,0.0483,-0.9082,0.0750,-0.0625,0.5911,-0.2393,-2.3574,-0.5134,2.7103,-7.7267,-0.2083,10.1441,-0.0008,0.0074,-0.0030,1.0000,-0.1913,-0.0044,0.2550
200437,Right,2,0.2823,-0.1128,-0.9452,-0.1193,0.0670,0.0101,0.0158,0.0878,0.1930,0.0903,-5.5912,1.2282,8.0836,0.0008,0.0001,0.0002,1.0000,-0.1398,0.0305,0.2021
200437,Pelvis,2,-0.5057,-0.4686,-0.5254,0.4987,0.6141,0.3381,0.0988,0.9277,-0.9570,1.9590,11.8100,0.8629,-0.3582,0.0077,0.0042,0.0012,1.0000,0.2952,0.0220,-0.0100
200438,Left,2,0.4191,0.0509,-0.9028,0.0819,-0.3713,0.9196,0.4983,-0.6852,-5.5171,2.7640,-8.5292,4.9823,9.5663,-0.0046,0.0115,0.0062,0.9999,-0.2112,0.1244,0.2410
200438,Right,2,0.2821,-0.1139,-0.9451,-0.1192,0.1048,-0.0024,0.0310,0.0998,0.3082,0.0290,-5.5482,1.1250,8.0570,0.0013,-0.0000,0.0004,1.0000,-0.1387,0.0278,0.2015
200438,Pelvis,2,-0.4994,-0.4712,-0.5261,0.5019,0.4618,0.3085,-0.2557,2.6264,-0.8201,2.2632,12.1176,2.5618,-0.0217,0.0058,0.0039,-0.0032,1.0000,0.3031,0.0631,-0.0013
200439,Left,2,0.4245,0.0523,-0.8986,0.0978,-0.6099,0.4779,1.1606,0.7142,-2.3294,0.0433,-7.7537,2.2573,6.1532,-0.0076,0.0060,0.0145,0.9998,-0.1937,0.0548,0.1546
200439,Right,2,0.2818,-0.1153,-0.9451,-0.1189,0.1211,-0.0155,0.0500,-0.0855,0.2263,-0.1779,-5.2925,1.2507,7.9570,0.0015,-0.0002,0.0006,1.0000,-0.1324,0.0309,0.1989
200439,Pelvis,2,-0.4938,-0.4731,-0.5287,0.5028,0.2435,0.2944,-0.3581,2.4449,-0.6377,-0.1999,9.6285,2.4651,0.0712,0.0030,0.0037,-0.0045,1.0000,0.2410,0.0605,0.0011
200440,Left,2,0.4283,0.0495,-0.8953,0.1119,-0.2643,0.3146,1.1536,2.2922,0.2129,-2.7730,-6.8994,0.3110,2.6762,-0.0033,0.0039,0.0144,0.9999,-0.1723,0.0055,0.0676
200440,Right,2,0.2815,-0.1161,-0.9451,-0.1187,0.0758,-0.0032,0.0266,-0.1946,0.0818,-0.2846,-5.1629,1.4253,7.8831,0.0009,-0.0000,0.0003,1.0000,-0.1291,0.0354,0.1971
200440,Pelvis,2,-0.4890,-0.4730,-0.5323,0.5038,0.0938,0.3786,-0.2800,1.3023,-0.8550,-0.2808,9.5542,1.4093,-0.1308,0.0012,0.0047,-0.0035,1.0000,0.2390,0.0344,-0.0044
200441,Left,2,0.4307,0.0465,-0.8936,0.1174,0.0437,0.1936,0.5261,3.2039,2.0092,-4.6856,-6.2629,-1.0927,0.4150,0.0005,0.0024,0.0066,1.0000,-0.1564,-0.0284,0.0107
200441,Right,2,0.2817,-0.1162,-0.9450,-0.1188,0.0188,0.0108,-0.0068,-0.0906,0.1183,-0.1994,-5.2908,1.3816,7.9080,0.0002,0.0001,-0.0001,1.0000,-0.1322,0.0345,0.1977
200441,Pelvis,2,-0.4850,-0.4725,-0.5354,0.5048,0.0660,0.3463,-0.2224,0.3848,-0.9895,-0.3982,9.4551,0.5563,-0.2285,0.0008,0.0043,-0.0028,1.0000,0.2364,0.0133,-0.0067
200442,Left,2,0.4331,0.0433,-0.8931,0.1137,0.3758,0.1799,-0.1384,4.0493,1.6668,-6.7943,-5.0704,-0.5631,-1.5031,0.0047,0.0022,-0.0017,1.0000,-0.1269,-0.0137,-0.0374
200442,Right,2,0.2819,-0.1160,-0.9449,-0.1191,-0.0063,0.0137,-0.0214,-0.0275,0.1857,-0.0947,-5.3934,1.3125,7.9789,-0.0001,0.0002,-0.0003,1.0000,-0.1348,0.0329,0.1995
200442,Pelvis,2,-0.4815,-0.4735,-0.5374,0.5052,0.1242,0.1938,-0.2354,-0.2366,-1.2211,-0.4559,9.4295,-0.0028,-0.4257,0.0016,0.0024,-0.0029,1.0000,0.2357,-0.0007,-0.0112
200443,Left,2,0.4359,0.0408,-0.8930,0.1046,0.5200,0.2165,-0.5484,4.4426,0.4691,-7.8877,-4.2451,0.6101,-2.2956,0.0065,0.0027,-0.0069,1.0000,-0.1062,0.0164,-0.0570
200443,Right,2,0.2821,-0.1156,-0.9449,-0.1192,-0.0147,0.0137,-0.0209,-0.0220,0.1898,-0.1148,-5.3883,1.2967,7.9605,-0.0002,0.0002,-0.0003,1.0000,-0.1347,0.0325,0.1990
200443,Pelvis,2,-0.4783,-0.4756,-0.5380,0.5056,0.2099,0.0889,-0.2075,-0.1298,-1.3860,-0.8090,9.0907,0.1512,-0.5830,0.0026,0.0011,-0.0026,1.0000,0.2273,0.0032,-0.0148
200444,Left,2,0.4387,0.0394,-0.8928,0.0945,0.4773,0.2317,-0.6501,4.5899,-0.7026,-8.3576,-3.7911,1.6858,-2.5425,0.0060,0.0029,-0.0081,0.9999,-0.0946,0.0433,-0.0630
200444,Right,2,0.2823,-0.1151,-0.9449,-0.1193,-0.0217,0.0138,-0.0229,-0.0200,0.1805,-0.1216,-5.3897,1.2954,7.9513,-0.0003,0.0002,-0.0003,1.0000,-0.1347,0.0325,0.1988
200444,Pelvis,2,-0.4765,-0.4778,-0.5369,0.5064,0.2368,-0.0258,-0.0811,0.3313,-1.5993,-0.7686,9.1350,0.6492,-0.7704,0.0030,-0.0003,-0.0010,1.0000,0.2284,0.0161,-0.0191
200445,Left,2,0.4405,0.0379,-0.8927,0.0875,0.3716,0.1484,-0.4341,4.3520,-1.1615,-7.9942,-3.8884,2.0138,-2.1026,0.0046,0.0019,-0.0054,1.0000,-0.0970,0.0511,-0.0521
200445,Right,2,0.2825,-0.1146,-0.9448,-0.1197,-0.0324,0.0112,-0.0281,-0.0314,0.1652,-0.1237,-5.3852,1.3016,7.9504,-0.0004,0.0001,-0.0004,1.0000,-0.1346,0.0327,0.1988
200445,Pelvis,2,-0.4762,-0.4793,-0.5349,0.5073,0.1948,-0.0982,0.0504,0.5308,-1.5918,-0.6490,9.2456,0.8506,-0.7642,0.0024,-0.0012,0.0006,1.0000,0.2311,0.0215,-0.0188
200446,Left,2,0.4403,0.0368,-0.8931,0.0844,0.1809,-0.0305,-0.1800,3.5947,-0.6491,-7.2698,-4.0849,1.3308,-1.1629,0.0023,-0.0004,-0.0023,1.0000,-0.1020,0.0336,-0.0290
200446,Right,2,0.2828,-0.1139,-0.9448,-0.1199,-0.0366,0.0098,-0.0291,-0.0153,0.1957,-0.0990,-5.4111,1.2583,7.9706,-0.0005,0.0001,-0.0004,1.0000,-0.1352,0.0316,0.1993
200446,Pelvis,2,-0.4773,-0.4805,-0.5324,0.5077,0.1140,-0.1780,0.1081,0.6771,-1.3959,-0.8086,9.0648,0.9656,-0.6139,0.0014,-0.0022,0.0014,1.0000,0.2266,0.0245,-0.0148
200447,Left,2,0.4366,0.0374,-0.8950,0.0829,-0.0027,-0.3232,-0.1487,2.4680,0.3865,-6.5874,-4.0785,0.0921,0.0020,-0.0000,-0.0040,-0.0019,1.0000,-0.1020,0.0025,-0.0004
200447,Right,2,0.2829,-0.1134,-0.9448,-0.1200,-0.0287,0.0030,-0.0207,0.0518,0.2772,-0.0500,-5.4814,1.1568,8.0004,-0.0004,0.0000,-0.0003,1.0000,-0.1370,0.0290,0.2000
200448,Left,2,0.4293,0.0384,-0.8987,0.0817,-0.0709,-0.6449,-0.1590,0.8967,0.4430,-6.8208,-2.9415,-0.2639,1.1088,-0.0009,-0.0081,-0.0020,1.0000,-0.0738,-0.0064,0.0271
200448,Right,2,0.2827,-0.1131,-0.9449,-0.1203,-0.0137,-0.0055,-0.0097,0.0580,0.2740,-0.0209,-5.5012,1.1543,8.0226,-0.0002,-0.0001,-0.0001,1.0000,-0.1375,0.0289,0.2005
200448,Pelvis,2,-0.4837,-0.4813,-0.5271,0.5064,-0.0365,-0.2799,0.1869,0.8016,-1.2579,-0.8656,8.9945,1.0302,-0.5615,-0.0009,-0.0070,0.0047,1.0000,0.4497,0.0536,-0.0250
200449,Left,2,0.4176,0.0408,-0.9041,0.0807,-0.1990,-1.0051,-0.2222,-1.8156,0.4109,-7.3422,-0.8081,-0.7374,2.8935,-0.0025,-0.0126,-0.0028,0.9999,-0.0212,-0.0182,0.0721
200449,Right,2,0.2826,-0.1129,-0.9450,-0.1201,-0.0034,-0.0107,-0.0003,0.0156,0.2547,-0.0648,-5.4434,1.1736,8.0049,-0.0000,-0.0001,-0.0000,1.0000,-0.1361,0.0293,0.2001
200449,Pelvis,2,-0.4894,-0.4807,-0.5241,0.5047,-0.2051,-0.3975,0.2936,1.0444,-1.2305,-0.8249,9.0307,1.1989,-0.6290,-0.0026,-0.0050,0.0037,1.0000,0.2257,0.0308,-0.0147
200450,Left,2,0.4001,0.0452,-0.9121,0.0778,-0.3110,-1.5001,-0.4581,-6.0872,0.1261,-6.6142,1.5638,-1.2576,6.5787,-0.0039,-0.0187,-0.0057,0.9998,0.0358,-0.0310,0.1653
200450,Right,2,0.2825,-0.1127,-0.9450,-0.1200,-0.0014,-0.0070,0.0010,-0.0101,0.2269,-0.0982,-5.4065,1.1994,7.9847,-0.0000,-0.0001,0.0000,1.0000,-0.1352,0.0300,0.1996
200450,Pelvis,2,-0.4969,-0.4796,-0.5210,0.5017,-0.3435,-0.5119,0.3234,1.3929,-1.5434,-0.7487,9.1220,1.4925,-1.0205,-0.0043,-0.0064,0.0040,1.0000,0.2281,0.0381,-0.0242
200451,Left,2,0.3750,0.0567,-0.9225,0.0719,-0.7610,-2.0669,-0.9490,-9.8161,-0.5920,-1.0297,0.5002,-1.4664,13.0956,-0.0095,-0.0258,-0.0119,0.9996,0.0036,-0.0336,0.3279
200451,Right,2,0.2826,-0.1124,-0.9451,-0.1198,-0.0046,0.0002,-0.0029,-0.0528,0.1724,-0.1068,-5.3749,1.2588,7.9851,-0.0001,0.0000,-0.0000,1.0000,-0.1344,0.0315,0.1996
200451,Pelvis,2,-0.5057,-0.4788,-0.5178,0.4969,-0.4618,-0.6450,0.2979,1.6751,-1.6146,-0.5621,9.3073,1.7166,-1.1896,-0.0058,-0.0081,0.0037,0.9999,0.2328,0.0436,-0.0281
200452,Left,524544,0.3519,0.0605,-0.9321,0.0616,-0.0646,-1.9236,-1.0322,3.2988,2.3298,46.6122,-41.0753,-5.1418,38.5644,-0.0008,-0.0240,-0.0129,0.9996,-1.0512,-0.1143,0.9391
200452,Right,2,0.2825,-0.1121,-0.9451,-0.1199,-0.0129,-0.0053,-0.0150,-0.0190,0.0350,-0.0787,-5.4392,1.3778,7.9542,-0.0002,-0.0001,-0.0002,1.0000,-0.1360,0.0345,0.1988
200452,Pelvis,2,-0.5148,-0.4772,-0.5147,0.4922,-0.4963,-0.6172,0.3453,1.4685,-0.8647,-0.4920,9.3521,1.4092,-0.5770,-0.0062,-0.0077,0.0043,0.9999,0.2338,0.0362,-0.0128
200453,Left,0,0.3275,0.0569,-0.9408,0.0664,0.0571,-2.1038,0.3062,-8.5695,-5.7320,-9.8123,6.9800,4.2763,6.2697,0.0007,-0.0263,0.0038,0.9996,0.1699,0.1075,0.1613
200453,Right,2,0.2831,-0.1120,-0.9449,-0.1198,0.0057,0.0580,-0.0052,-0.1354,0.0258,0.0521,-5.4238,1.4349,8.1152,0.0001,0.0007,-0.0001,1.0000,-0.1354,0.0359,0.2030
200453,Pelvis,2,-0.5250,-0.4709,-0.5143,0.4880,-0.8150,-0.3500,0.4911,0.1650,4.2949,0.0662,9.8310,-0.3516,4.3930,-0.0102,-0.0044,0.0061,0.9999,0.2453,-0.0062,0.1110
200454,Left,0,0.3398,0.0581,-0.9365,0.0649,-0.0021,1.0603,-0.0626,0.7431,3.5443,0.1921,-7.2144,-4.0120,6.7136,-0.0000,0.0133,-0.0008,0.9999,-0.1782,-0.1002,0.1702
200454,Right,2,0.2844,-0.1112,-0.9446,-0.1205,-0.0509,0.1013,-0.0799,-0.2839,0.3106,-0.2680,-5.0926,1.1505,8.0013,-0.0006,0.0013,-0.0010,1.0000,-0.1270,0.0290,0.2002
200454,Pelvis,2,-0.5253,-0.4821,-0.5163,0.4744,-0.2000,-0.8784,-1.1000,-10.3890,2.4597,11.6509,21.3208,-10.8623,1.4694,-0.0025,-0.0110,-0.0137,0.9998,0.5288,-0.2787,0.0432
200455,Left,0,0.3440,0.0570,-0.9350,0.0652,0.0877,0.3558,0.0852,1.1022,0.9671,0.2819,-7.4496,-1.4135,6.8233,0.0011,0.0044,0.0011,1.0000,-0.1854,-0.0357,0.1714
200455,Right,2,0.2860,-0.1104,-0.9442,-0.1209,-0.0471,0.1256,-0.0752,0.0618,0.3252,-0.0348,-5.5240,1.0472,8.0065,-0.0006,0.0016,-0.0009,1.0000,-0.1378,0.0264,0.2004
200455,Pelvis,2,-0.5159,-0.4928,-0.5126,0.4777,1.0806,-0.0491,-0.5405,2.3486,2.3481,0.8802,10.7219,2.2386,2.3242,0.0135,-0.0006,-0.0068,0.9999,0.2684,0.0534,0.0590
200456,Left,0,0.3451,0.0555,-0.9346,0.0658,0.1044,0.0829,0.1011,-0.1699,0.1174,0.0238,-6.2906,-0.7337,7.5292,0.0013,0.0010,0.0013,1.0000,-0.1570,-0.0188,0.1884
200456,Right,2,0.2874,-0.1101,-0.9437,-0.1212,-0.0222,0.1235,-0.0406,0.1232,0.2412,-0.0155,-5.6227,1.0945,7.9527,-0.0003,0.0015,-0.0005,1.0000,-0.1402,0.0275,0.1990
200456,Pelvis,2,-0.5178,-0.4938,-0.5083,0.4793,0.2024,-0.2357,0.2662,4.7543,0.5275,-3.2384,6.5466,4.7769,0.6526,0.0025,-0.0029,0.0033,1.0000,0.1632,0.1199,0.0171
200457,Left,0,0.3466,0.0553,-0.9341,0.0653,0.0318,0.1329,-0.0140,0.2137,-0.5796,0.1508,-6.6235,0.0257,7.4686,0.0004,0.0017,-0.0002,1.0000,-0.1653,0.0006,0.1870
200457,Right,2,0.2882,-0.1098,-0.9435,-0.1212,-0.0151,0.0716,-0.0203,0.1626,0.2354,-0.0076,-5.6786,1.0794,7.9253,-0.0002,0.0009,-0.0003,1.0000,-0.1418,0.0271,0.1983
200457,Pelvis,2,-0.5251,-0.4901,-0.5071,0.4763,-0.5102,-0.3269,0.3624,2.9449,-1.3924,-4.8909,4.8821,3.0285,-1.3519,-0.0064,-0.0041,0.0045,1.0000,0.1218,0.0761,-0.0338
200458,Left,0,0.3470,0.0554,-0.9340,0.0650,0.0050,0.0396,-0.0150,0.3511,0.2379,0.1877,-6.8343,-0.7602,7.2734,0.0001,0.0005,-0.0002,1.0000,-0.1708,-0.0190,0.1819
200458,Pelvis,2,-0.5308,-0.4851,-0.5094,0.4727,-0.6592,-0.0876,0.1934,0.8739,-0.4439,-3.6896,6.1119,0.8722,-0.5803,-0.0082,-0.0011,0.0024,1.0000,0.1528,0.0221,-0.0145
200459,Left,0,0.3464,0.0552,-0.9342,0.0652,0.0103,-0.0451,0.0247,0.1441,0.0867,0.1269,-6.6251,-0.6399,7.3839,0.0001,-0.0006,0.0003,1.0000,-0.1657,-0.0161,0.1845
200459,Right,2,0.2881,-0.1092,-0.9436,-0.1215,-0.0119,0.0001,-0.0187,0.1073,0.2236,-0.0196,-5.6342,1.0954,7.9387,-0.0003,0.0000,-0.0005,1.0000,-0.2817,0.0550,0.3969
200459,Pelvis,2,-0.5351,-0.4817,-0.5123,0.4681,-0.6127,-0.1054,0.0212,-0.9761,-0.3849,0.3790,10.1613,-1.0130,-0.8328,-0.0077,-0.0013,0.0003,1.0000,0.2541,-0.0254,-0.0203
200460,Left,0,0.3457,0.0551,-0.9344,0.0652,0.0045,-0.0537,0.0004,-0.0581,-0.0059,0.0795,-6.4244,-0.5760,7.5003,0.0001,-0.0007,0.0000,1.0000,-0.1607,-0.0144,0.1874
200460,Right,2,0.2877,-0.1089,-0.9437,-0.1216,0.0021,-0.0358,0.0030,0.0407,0.2442,-0.0260,-5.5695,1.0846,7.9777,0.0000,-0.0004,0.0000,1.0000,-0.1393,0.0271,0.1994
200460,Pelvis,2,-0.5382,-0.4789,-0.5154,0.4641,-0.5163,-0.0478,-0.0447,-3.2411,0.4388,2.9740,12.7595,-3.3537,-0.3792,-0.0065,-0.0006,-0.0006,1.0000,0.3189,-0.0841,-0.0087
200461,Left,0,0.3456,0.0553,-0.9345,0.0650,-0.0060,-0.0087,-0.0137,-0.0798,0.1169,0.0459,-6.3895,-0.7009,7.4762,-0.0001,-0.0001,-0.0002,1.0000,-0.1598,-0.0175,0.1869
200461,Right,2,0.2872,-0.1091,-0.9439,-0.1214,0.0220,-0.0239,0.0248,0.0385,0.2617,0.0082,-5.5749,1.0757,8.0177,0.0003,-0.0003,0.0003,1.0000,-0.1394,0.0268,0.2004
200461,Pelvis,2,-0.5387,-0.4783,-0.5159,0.4636,-0.0896,-0.0015,0.0071,-1.2589,0.4660,3.1845,12.9922,-1.3796,-0.1718,-0.0011,-0.0000,0.0001,1.0000,0.3248,-0.0345,-0.0043
200462,Left,0,0.3455,0.0556,-0.9345,0.0648,-0.0155,0.0050,-0.0179,-0.0150,0.1846,-0.0136,-6.4036,-0.7596,7.3806,-0.0002,0.0001,-0.0002,1.0000,-0.1601,-0.0189,0.1845
200462,Right,2,0.2867,-0.1095,-0.9440,-0.1210,0.0372,-0.0292,0.0377,0.0520,0.1893,-0.0316,-5.5677,1.1427,7.9626,0.0005,-0.0004,0.0005,1.0000,-0.1393,0.0284,0.1990
200462,Pelvis,2,-0.5394,-0.4771,-0.5158,0.4642,-0.0453,0.0355,0.1007,0.7365,0.2558,-0.7311,9.0927,0.6371,-0.0038,-0.0006,0.0004,0.0013,1.0000,0.2273,0.0162,-0.0002
200463,Left,0,0.3455,0.0557,-0.9345,0.0647,-0.0039,-0.0010,-0.0044,-0.0279,0.1763,-0.0194,-6.3887,-0.7579,7.3858,-0.0000,-0.0000,-0.0001,1.0000,-0.1597,-0.0189,0.1846
200463,Right,2,0.2860,-0.1097,-0.9442,-0.1210,0.0241,-0.0390,0.0254,-0.0607,0.0936,-0.1468,-5.4179,1.2584,7.9059,0.0003,-0.0005,0.0003,1.0000,-0.1356,0.0314,0.1976
200463,Pelvis,2,-0.5408,-0.4751,-0.5169,0.4632,-0.2161,0.0175,0.0606,0.4906,0.4848,-1.4847,8.3457,0.3544,0.2315,-0.0027,0.0002,0.0008,1.0000,0.2086,0.0090,0.0057
200464,Left,0,0.3453,0.0557,-0.9346,0.0646,-0.0027,-0.0111,-0.0017,0.0294,0.1058,-0.0352,-6.4136,-0.6807,7.3494,-0.0000,-0.0001,-0.0000,1.0000,-0.1604,-0.0170,0.1837
200464,Right,2,0.2857,-0.1096,-0.9443,-0.1212,0.0071,-0.0217,-0.0013,-0.0919,0.1561,-0.1602,-5.3674,1.2089,7.9330,0.0001,-0.0003,-0.0000,1.0000,-0.1342,0.0302,0.1983
200464,Pelvis,2,-0.5416,-0.4710,-0.5200,0.4632,-0.3209,0.2551,0.0894,0.2813,0.8658,0.3437,10.1819,0.0623,0.5541,-0.0040,0.0032,0.0011,1.0000,0.2546,0.0019,0.0130
200465,Left,0,0.3450,0.0558,-0.9347,0.0646,-0.0046,-0.0169,-0.0002,0.0056,0.0694,-0.0289,-6.3934,-0.6511,7.3775,-0.0001,-0.0002,-0.0000,1.0000,-0.1599,-0.0163,0.1844
200465,Right,2,0.2857,-0.1095,-0.9443,-0.1213,0.0026,0.0009,-0.0057,-0.0310,0.2028,-0.0913,-5.4447,1.1546,7.9731,0.0000,0.0000,-0.0001,1.0000,-0.1361,0.0289,0.1993
200465,Pelvis,2,-0.5416,-0.4658,-0.5237,0.4642,-0.3124,0.3874,0.1276,0.1469,1.3641,1.9853,11.8276,-0.1910,1.0719,-0.0039,0.0048,0.0016,1.0000,0.2958,-0.0042,0.0254
200466,Left,0,0.3449,0.0559,-0.9348,0.0646,-0.0024,-0.0088,0.0021,-0.1063,0.0597,-0.0714,-6.2773,-0.6586,7.4208,-0.0000,-0.0001,0.0000,1.0000,-0.1570,-0.0165,0.1855
200466,Right,2,0.2859,-0.1094,-0.9442,-0.1213,0.0066,0.0146,-0.0031,0.0011,0.2173,-0.0492,-5.4938,1.1347,7.9940,0.0001,0.0002,-0.0000,1.0000,-0.1373,0.0284,0.1999
200466,Pelvis,2,-0.5396,-0.4619,-0.5271,0.4664,-0.1201,0.4513,0.0612,-1.0175,1.1779,0.7626,10.5698,-1.3343,0.8708,-0.0015,0.0056,0.0008,1.0000,0.2644,-0.0331,0.0203
200467,Left,0,0.3450,0.0558,-0.9347,0.0647,0.0041,0.0136,0.0134,-0.1084,0.1688,-0.1029,-6.2640,-0.7646,7.3823,0.0001,0.0002,0.0002,1.0000,-0.1566,-0.0191,0.1846
200467,Right,2,0.2860,-0.1094,-0.9442,-0.1213,0.0090,0.0167,0.0002,-0.0099,0.2091,-0.0870,-5.4661,1.1395,7.9659,0.0001,0.0002,0.0000,1.0000,-0.1366,0.0285,0.1992
200467,Pelvis,2,-0.5365,-0.4602,-0.5293,0.4692,0.0830,0.3907,-0.0089,-1.1986,0.4228,-0.7486,9.0436,-1.3932,0.2161,0.0010,0.0049,-0.0001,1.0000,0.2261,-0.0349,0.0043
200468,Left,0,0.3453,0.0557,-0.9346,0.0648,0.0042,0.0311,0.0190,-0.0162,0.1300,-0.0142,-6.3916,-0.7149,7.3935,0.0001,0.0004,0.0002,1.0000,-0.1597,-0.0179,0.1849
200468,Right,2,0.2861,-0.1094,-0.9442,-0.1215,0.0055,0.0193,-0.0065,0.0113,0.1979,-0.0899,-5.4856,1.1422,7.9482,0.0001,0.0002,-0.0001,1.0000,-0.1371,0.0286,0.1987
200468,Pelvis,2,-0.5342,-0.4602,-0.5298,0.4713,0.1611,0.1875,-0.0145,-0.6437,-0.0182,-0.8057,8.9959,-0.7804,-0.0760,0.0020,0.0023,-0.0002,1.0000,0.2249,-0.0195,-0.0025
200469,Left,0,0.3457,0.0558,-0.9344,0.0648,-0.0003,0.0353,0.0136,-0.0185,0.1097,-0.0145,-6.3936,-0.6935,7.3931,-0.0000,0.0004,0.0002,1.0000,-0.1598,-0.0174,0.1849
200469,Right,2,0.2863,-0.1093,-0.9441,-0.1216,0.0057,0.0190,-0.0098,0.0199,0.2218,-0.0738,-5.5015,1.1166,7.9613,0.0001,0.0002,-0.0001,1.0000,-0.1375,0.0279,0.1991
200469,Pelvis,2,-0.5328,-0.4603,-0.5295,0.4731,0.1398,0.1082,0.0299,0.0641,-0.3036,-0.0630,9.7519,-0.0562,-0.2241,0.0017,0.0014,0.0004,1.0000,0.2438,-0.0013,-0.0059
200470,Left,0,0.3460,0.0558,-0.9343,0.0649,0.0006,0.0294,0.0153,0.0164,0.1023,-0.0066,-6.4299,-0.6801,7.3732,0.0000,0.0004,0.0002,1.0000,-0.1607,-0.0170,0.1844
200470,Right,2,0.2865,-0.1091,-0.9440,-0.1216,0.0054,0.0132,-0.0087,-0.0001,0.2205,-0.0777,-5.4871,1.1199,7.9660,0.0001,0.0002,-0.0001,1.0000,-0.1371,0.0280,0.1992
200470,Pelvis,2,-0.5318,-0.4595,-0.5299,0.4746,0.0553,0.1380,0.0440,0.4130,-0.4255,0.0120,9.8345,0.2940,-0.2683,0.0007,0.0017,0.0005,1.0000,0.2458,0.0075,-0.0071
200471,Left,0,0.3462,0.0558,-0.9342,0.0650,-0.0004,0.0207,0.0112,-0.0095,0.0859,0.0126,-6.4257,-0.6684,7.4033,-0.0000,0.0003,0.0001,1.0000,-0.1606,-0.0167,0.1851
200471,Right,2,0.2866,-0.1091,-0.9440,-0.1217,0.0079,0.0114,-0.0051,0.0021,0.2039,-0.0914,-5.4855,1.1309,7.9482,0.0001,0.0001,-0.0001,1.0000,-0.1371,0.0283,0.1987
200471,Pelvis,2,-0.5310,-0.4581,-0.5310,0.4757,-0.0219,0.1727,0.0281,0.2524,-0.2936,-0.0911,9.7279,0.1102,-0.1203,-0.0003,0.0022,0.0004,1.0000,0.2432,0.0028,-0.0035
200473,Left,0,0.3466,0.0559,-0.9341,0.0651,-0.0030,0.0196,0.0083,-0.0071,0.0847,0.0018,-6.4252,-0.6659,7.3895,-0.0001,0.0005,0.0002,1.0000,-0.3211,-0.0333,0.3696
200473,Right,2,0.2871,-0.1089,-0.9439,-0.1215,0.0074,0.0198,-0.0074,-0.0058,0.2113,-0.0752,-5.4923,1.1261,7.9643,0.0002,0.0005,-0.0002,1.0000,-0.2744,0.0563,0.3984
200473,Pelvis,2,-0.5291,-0.4554,-0.5337,0.4773,-0.0376,0.1741,0.0038,-0.1169,0.0726,-0.0813,9.7240,-0.3082,0.2598,-0.0009,0.0044,0.0001,1.0000,0.4863,-0.0154,0.0109
200474,Left,0,0.3467,0.0560,-0.9340,0.0651,-0.0029,0.0188,0.0091,0.0072,0.1103,-0.0212,-6.4270,-0.6890,7.3556,-0.0000,0.0002,0.0001,1.0000,-0.1606,-0.0172,0.1839
200474,Right,2,0.2873,-0.1087,-0.9439,-0.1215,0.0079,0.0218,-0.0063,0.0074,0.2075,-0.0619,-5.5159,1.1229,7.9646,0.0001,0.0003,-0.0001,1.0000,-0.1378,0.0281,0.1992
200474,Pelvis,2,-0.5286,-0.4545,-0.5344,0.4780,-0.0203,0.1041,0.0168,-0.2070,0.2448,-0.0058,9.7912,-0.4258,0.4774,-0.0003,0.0013,0.0002,1.0000,0.2448,-0.0106,0.0116
200475,Left,0,0.3469,0.0560,-0.9340,0.0651,-0.0006,0.0199,0.0100,-0.0237,0.1050,-0.0201,-6.4070,-0.6889,7.3744,-0.0000,0.0002,0.0001,1.0000,-0.1601,-0.0172,0.1844
200475,Right,2,0.2875,-0.1087,-0.9438,-0.1216,0.0066,0.0240,-0.0091,0.0006,0.2190,-0.0635,-5.5105,1.1118,7.9683,0.0001,0.0003,-0.0001,1.0000,-0.1377,0.0278,0.1993
200475,Pelvis,2,-0.5282,-0.4539,-0.5347,0.4787,0.0128,0.0741,0.0323,-0.2091,0.2466,-0.0591,9.7364,-0.4337,0.5001,0.0002,0.0009,0.0004,1.0000,0.2434,-0.0107,0.0123
200476,Left,0,0.3472,0.0560,-0.9339,0.0652,-0.0020,0.0256,0.0121,-0.0388,0.1165,-0.0130,-6.4049,-0.7030,7.3846,-0.0000,0.0003,0.0002,1.0000,-0.1601,-0.0176,0.1847
200477,Left,0,0.3475,0.0561,-0.9337,0.0652,-0.0042,0.0271,0.0109,0.0089,0.0771,-0.0125,-6.4420,-0.6566,7.3566,-0.0001,0.0003,0.0001,1.0000,-0.1610,-0.0164,0.1840
200477,Right,2,0.2880,-0.1086,-0.9436,-0.1218,0.0067,0.0278,-0.0115,-0.0027,0.2059,-0.0613,-5.5167,1.1231,7.9648,0.0002,0.0007,-0.0003,1.0000,-0.2755,0.0562,0.3984
200477,Pelvis,2,-0.5275,-0.4532,-0.5344,0.4804,0.0392,0.0517,0.0385,-0.0684,0.0837,-0.0380,9.7636,-0.2870,0.3807,0.0010,0.0013,0.0010,1.0000,0.4882,-0.0139,0.0184
200478,Left,0,0.3477,0.0561,-0.9337,0.0653,-0.0025,0.0233,0.0091,0.0079,0.0959,0.0004,-6.4553,-0.6765,7.3606,-0.0000,0.0003,0.0001,1.0000,-0.1613,-0.0169,0.1841
200478,Right,2,0.2883,-0.1085,-0.9436,-0.1218,0.0075,0.0297,-0.0083,0.0153,0.2019,-0.0683,-5.5345,1.1150,7.9448,0.0001,0.0004,-0.0001,1.0000,-0.1383,0.0279,0.1987
200478,Pelvis,2,-0.5272,-0.4530,-0.5343,0.4810,0.0269,0.0267,0.0258,0.0433,0.0164,-0.0835,9.7215,-0.1800,0.3451,0.0003,0.0003,0.0003,1.0000,0.2430,-0.0044,0.0085
200479,Left,0,0.3478,0.0562,-0.9336,0.0653,-0.0031,0.0164,0.0073,0.0271,0.0915,-0.0065,-6.4678,-0.6692,7.3410,-0.0000,0.0002,0.0001,1.0000,-0.1617,-0.0167,0.1836
200479,Right,2,0.2885,-0.1084,-0.9435,-0.1219,0.0107,0.0261,-0.0079,0.0250,0.2116,-0.0524,-5.5535,1.1033,7.9530,0.0001,0.0003,-0.0001,1.0000,-0.1388,0.0276,0.1989
200479,Pelvis,2,-0.5271,-0.4527,-0.5342,0.4814,0.0141,0.0193,0.0246,0.0327,0.0765,-0.0958,9.7065,-0.2043,0.4096,0.0002,0.0002,0.0003,1.0000,0.2427,-0.0050,0.0102
200480,Left,0,0.3479,0.0563,-0.9336,0.0653,-0.0021,0.0068,0.0037,0.0244,0.1006,0.0063,-6.4764,-0.6804,7.3496,-0.0000,0.0001,0.0000,1.0000,-0.1619,-0.0170,0.1838
200480,Right,2,0.2886,-0.1084,-0.9434,-0.1219,0.0116,0.0217,-0.0012,0.0332,0.2077,-0.0369,-5.5728,1.1058,7.9581,0.0001,0.0003,-0.0000,1.0000,-0.1393,0.0276,0.1990
200480,Pelvis,2,-0.5271,-0.4524,-0.5341,0.4819,0.0125,0.0243,0.0366,-0.0365,0.1410,-0.0638,9.7343,-0.2898,0.4723,0.0002,0.0003,0.0005,1.0000,0.2434,-0.0071,0.0117
200481,Left,0,0.3478,0.0563,-0.9336,0.0652,-0.0034,0.0020,0.0027,0.0041,0.1033,0.0041,-6.4601,-0.6876,7.3603,-0.0000,0.0000,0.0000,1.0000,-0.1615,-0.0172,0.1840
200481,Right,2,0.2886,-0.1085,-0.9434,-0.1220,0.0133,0.0111,0.0012,0.0348,0.1840,-0.0441,-5.5752,1.1269,7.9440,0.0002,0.0001,0.0000,1.0000,-0.1394,0.0281,0.1986
200481,Pelvis,2,-0.5271,-0.4521,-0.5339,0.4824,0.0146,0.0180,0.0408,-0.0218,0.1842,-0.0817,9.7144,-0.2900,0.5226,0.0002,0.0002,0.0005,1.0000,0.2429,-0.0071,0.0130
200482,Left,0,0.3478,0.0564,-0.9336,0.0652,-0.0005,-0.0016,0.0032,-0.0178,0.0964,0.0017,-6.4408,-0.6855,7.3742,-0.0000,-0.0000,0.0000,1.0000,-0.1610,-0.0171,0.1844
200482,Right,2,0.2886,-0.1085,-0.9435,-0.1219,0.0137,0.0023,0.0038,0.0237,0.2168,-0.0674,-5.5471,1.0962,7.9402,0.0002,0.0000,0.0000,1.0000,-0.1387,0.0274,0.1985
200482,Pelvis,2,-0.5271,-0.4518,-0.5338,0.4828,0.0110,0.0134,0.0359,0.0149,0.1925,-0.0668,9.7291,-0.2648,0.5409,0.0001,0.0002,0.0004,1.0000,0.2432,-0.0065,0.0135
200483,Left,0,0.3477,0.0564,-0.9336,0.0652,-0.0006,-0.0042,0.0035,-0.0111,0.0943,-0.0108,-6.4362,-0.6826,7.3617,-0.0000,-0.0001,0.0000,1.0000,-0.1609,-0.0171,0.1840
200483,Right,2,0.2884,-0.1086,-0.9435,-0.1221,0.0119,0.0007,0.0049,0.0031,0.2016,-0.0580,-5.5363,1.1189,7.9556,0.0001,0.0000,0.0001,1.0000,-0.1384,0.0279,0.1989
200483,Pelvis,2,-0.5273,-0.4515,-0.5336,0.4830,-0.0038,0.0044,0.0288,0.1068,0.1244,-0.0160,9.7843,-0.1749,0.4900,-0.0000,0.0001,0.0004,1.0000,0.2446,-0.0043,0.0122
200484,Left,0,0.3476,0.0564,-0.9337,0.0652,0.0007,-0.0034,0.0043,-0.0154,0.1139,-0.0070,-6.4357,-0.7036,7.3655,0.0000,-0.0000,0.0001,1.0000,-0.1609,-0.0176,0.1841
200484,Right,2,0.2883,-0.1086,-0.9435,-0.1221,0.0129,0.0003,0.0050,0.0178,0.2116,-0.0692,-5.5384,1.1042,7.9428,0.0002,0.0000,0.0001,1.0000,-0.1385,0.0276,0.1986
200484,Pelvis,2,-0.5277,-0.4512,-0.5336,0.4830,-0.0280,-0.0097,0.0259,0.0979,0.0699,0.0156,9.8175,-0.1855,0.4365,-0.0003,-0.0001,0.0003,1.0000,0.2454,-0.0046,0.0109
200485,Left,0,0.3475,0.0564,-0.9337,0.0652,0.0008,-0.0010,0.0060,-0.0178,0.0934,-0.0073,-6.4309,-0.6842,7.3708,0.0000,-0.0000,0.0001,1.0000,-0.1608,-0.0171,0.1843
200485,Right,2,0.2882,-0.1087,-0.9435,-0.1223,0.0129,0.0035,0.0045,0.0115,0.1958,-0.0849,-5.5254,1.1198,7.9299,0.0002,0.0000,0.0001,1.0000,-0.1381,0.0280,0.1983
200485,Pelvis,2,-0.5281,-0.4508,-0.5336,0.4829,-0.0375,-0.0151,0.0187,-0.0455,0.0715,0.0245,9.8230,-0.3346,0.4178,-0.0005,-0.0002,0.0002,1.0000,0.2456,-0.0083,0.0105
200486,Left,0,0.3475,0.0565,-0.9337,0.0651,-0.0016,-0.0019,0.0030,-0.0059,0.1001,-0.0106,-6.4373,-0.6895,7.3604,-0.0000,-0.0000,0.0000,1.0000,-0.1609,-0.0172,0.1840
200486,Right,2,0.2881,-0.1087,-0.9435,-0.1223,0.0119,0.0019,0.0011,0.0189,0.1917,-0.0694,-5.5403,1.1236,7.9379,0.0001,0.0000,0.0000,1.0000,-0.1385,0.0281,0.1985
200486,Pelvis,2,-0.5285,-0.4506,-0.5335,0.4827,-0.0309,-0.0242,0.0154,-0.1328,0.0544,-0.0471,9.7500,-0.4219,0.3831,-0.0004,-0.0003,0.0002,1.0000,0.2437,-0.0105,0.0097
200487,Left,0,0.3474,0.0565,-0.9338,0.0651,-0.0005,-0.0063,0.0044,-0.0031,0.0885,-0.0017,-6.4428,-0.6792,7.3683,-0.0000,-0.0001,0.0001,1.0000,-0.1611,-0.0170,0.1842
200487,Right,2,0.2880,-0.1087,-0.9435,-0.1224,0.0107,0.0003,0.0042,0.0199,0.1953,-0.0624,-5.5426,1.1210,7.9454,0.0001,0.0000,0.0001,1.0000,-0.1386,0.0280,0.1986
200487,Pelvis,2,-0.5289,-0.4506,-0.5333,0.4825,-0.0166,-0.0346,0.0178,-0.0835,0.0460,-0.1107,9.6881,-0.3749,0.3729,-0.0002,-0.0004,0.0002,1.0000,0.2422,-0.0093,0.0094
200488,Left,0,0.3472,0.0565,-0.9338,0.0651,0.0018,-0.0087,0.0036,0.0031,0.0960,0.0076,-6.4522,-0.6868,7.3719,0.0000,-0.0001,0.0000,1.0000,-0.1613,-0.0172,0.1843
200488,Right,2,0.2879,-0.1086,-0.9436,-0.1224,0.0105,-0.0030,0.0055,0.0324,0.1915,-0.0739,-5.5456,1.1192,7.9294,0.0001,-0.0000,0.0001,1.0000,-0.1386,0.0279,0.1982
200488,Pelvis,2,-0.5294,-0.4507,-0.5329,0.4823,-0.0108,-0.0582,0.0216,-0.0054,0.0587,-0.1423,9.6581,-0.3035,0.3842,-0.0001,-0.0007,0.0003,1.0000,0.2414,-0.0075,0.0098
200489,Left,0,0.3470,0.0565,-0.9339,0.0651,0.0016,-0.0117,0.0033,-0.0025,0.0963,-0.0106,-6.4335,-0.6875,7.3640,0.0000,-0.0001,0.0000,1.0000,-0.1609,-0.0172,0.1841
200489,Right,2,0.2877,-0.1086,-0.9436,-0.1224,0.0107,-0.0068,0.0049,0.0249,0.1890,-0.0758,-5.5356,1.1238,7.9333,0.0001,-0.0001,0.0001,1.0000,-0.1384,0.0281,0.1983
200489,Pelvis,2,-0.5302,-0.4509,-0.5322,0.4820,-0.0113,-0.0868,0.0244,0.0174,0.0767,-0.1513,9.6496,-0.2892,0.3885,-0.0001,-0.0011,0.0003,1.0000,0.2412,-0.0072,0.0100
200490,Left,0,0.3468,0.0565,-0.9340,0.0650,0.0016,-0.0152,0.0016,-0.0120,0.1069,-0.0161,-6.4205,-0.7000,7.3670,0.0000,-0.0002,0.0000,1.0000,-0.1605,-0.0175,0.1841
200490,Right,2,0.2875,-0.1086,-0.9437,-0.1225,0.0103,-0.0087,0.0066,0.0356,0.1918,-0.0669,-5.5449,1.1196,7.9385,0.0001,-0.0001,0.0001,1.0000,-0.1386,0.0280,0.1985
200490,Pelvis,2,-0.5310,-0.4512,-0.5316,0.4815,-0.0165,-0.0924,0.0270,-0.0055,0.0522,-0.0674,9.7342,-0.3180,0.3431,-0.0002,-0.0012,0.0003,1.0000,0.2433,-0.0079,0.0089
200491,Left,0,0.3466,0.0566,-0.9340,0.0650,0.0012,-0.0121,0.0035,-0.0300,0.1096,-0.0399,-6.3883,-0.7048,7.3629,0.0000,-0.0002,0.0000,1.0000,-0.1597,-0.0176,0.1840
200491,Right,2,0.2873,-0.1086,-0.9438,-0.1224,0.0109,-0.0070,0.0072,0.0279,0.2031,-0.0684,-5.5330,1.1112,7.9464,0.0001,-0.0001,0.0001,1.0000,-0.1383,0.0277,0.1987
200491,Pelvis,2,-0.5320,-0.4514,-0.5309,0.4810,-0.0258,-0.1048,0.0262,-0.0103,0.0559,-0.0061,9.7958,-0.3325,0.3249,-0.0003,-0.0013,0.0003,1.0000,0.2449,-0.0082,0.0084
200492,Left,0,0.3465,0.0566,-0.9341,0.0649,0.0018,-0.0081,0.0021,-0.0223,0.0867,-0.0129,-6.4074,-0.6834,7.3839,0.0000,-0.0001,0.0000,1.0000,-0.1602,-0.0171,0.1846
200492,Pelvis,2,-0.5331,-0.4516,-0.5302,0.4804,-0.0364,-0.1130,0.0301,0.0157,0.0743,0.0474,9.8500,-0.3186,0.3223,-0.0005,-0.0014,0.0004,1.0000,0.2462,-0.0079,0.0084
200493,Left,0,0.3464,0.0566,-0.9341,0.0649,0.0012,-0.0081,0.0038,-0.0154,0.1046,-0.0343,-6.3978,-0.6993,7.3626,0.0000,-0.0001,0.0000,1.0000,-0.1600,-0.0175,0.1840
200493,Right,2,0.2870,-0.1087,-0.9439,-0.1223,0.0116,-0.0084,0.0080,0.0224,0.2002,-0.0625,-5.5286,1.1185,7.9555,0.0003,-0.0002,0.0002,1.0000,-0.2765,0.0558,0.3977
200493,Pelvis,2,-0.5343,-0.4517,-0.5295,0.4797,-0.0457,-0.1147,0.0355,0.0117,0.1695,0.0423,9.8428,-0.3440,0.3888,-0.0006,-0.0014,0.0004,1.0000,0.2461,-0.0085,0.0101
200494,Left,0,0.3463,0.0566,-0.9342,0.0649,0.0019,-0.0048,0.0059,-0.0311,0.1056,0.0036,-6.4090,-0.7056,7.4025,0.0000,-0.0001,0.0001,1.0000,-0.1602,-0.0177,0.1851
200494,Right,2,0.2867,-0.1085,-0.9440,-0.1222,0.0136,-0.0117,0.0086,0.0204,0.1938,-0.0701,-5.5182,1.1234,7.9526,0.0002,-0.0001,0.0001,1.0000,-0.1380,0.0280,0.1988
200494,Pelvis,2,-0.5355,-0.4517,-0.5290,0.4790,-0.0581,-0.0990,0.0282,0.0326,0.1766,0.0901,9.8917,-0.3350,0.3741,-0.0007,-0.0012,0.0004,1.0000,0.2473,-0.0083,0.0097
200495,Left,0,0.3461,0.0566,-0.9342,0.0649,0.0033,-0.0071,0.0056,-0.0209,0.1027,0.0001,-6.4124,-0.7010,7.3954,0.0000,-0.0001,0.0001,1.0000,-0.1603,-0.0175,0.1849
200495,Right,2,0.2865,-0.1086,-0.9440,-0.1222,0.0139,-0.0123,0.0076,0.0332,0.1900,-0.0816,-5.5190,1.1226,7.9379,0.0002,-0.0002,0.0001,1.0000,-0.1380,0.0280,0.1984
200495,Pelvis,2,-0.5365,-0.4515,-0.5288,0.4781,-0.0771,-0.0794,0.0101,0.0699,0.1548,0.1479,9.9517,-0.3028,0.3367,-0.0010,-0.0010,0.0001,1.0000,0.2488,-0.0075,0.0087
200496,Left,0,0.3460,0.0566,-0.9343,0.0649,0.0009,-0.0066,0.0052,-0.0160,0.0910,-0.0127,-6.4049,-0.6881,7.3860,0.0000,-0.0001,0.0001,1.0000,-0.1601,-0.0172,0.1846
200496,Right,2,0.2863,-0.1086,-0.9441,-0.1221,0.0142,-0.0108,0.0099,0.0320,0.2069,-0.0607,-5.5229,1.1109,7.9630,0.0002,-0.0001,0.0001,1.0000,-0.1381,0.0277,0.1991
200496,Pelvis,2,-0.5374,-0.4512,-0.5290,0.4772,-0.0947,-0.0527,-0.0003,0.1200,0.0995,0.1442,9.9513,-0.2479,0.2727,-0.0012,-0.0007,-0.0000,1.0000,0.2488,-0.0062,0.0070
200497,Left,0,0.3459,0.0566,-0.9343,0.0649,0.0012,-0.0066,0.0044,-0.0187,0.1000,0.0001,-6.4101,-0.6988,7.3976,0.0000,-0.0001,0.0001,1.0000,-0.1603,-0.0175,0.1849
200497,Right,2,0.2860,-0.1086,-0.9442,-0.1222,0.0163,-0.0141,0.0111,0.0307,0.1969,-0.0540,-5.5234,1.1234,7.9687,0.0002,-0.0002,0.0001,1.0000,-0.1381,0.0280,0.1992
200497,Pelvis,2,-0.5382,-0.4506,-0.5296,0.4763,-0.1134,-0.0235,-0.0080,0.0619,0.0732,0.1474,9.9534,-0.3015,0.2295,-0.0014,-0.0003,-0.0001,1.0000,0.2488,-0.0076,0.0058
200498,Left,0,0.3457,0.0566,-0.9344,0.0648,0.0020,-0.0092,0.0022,-0.0159,0.0883,0.0091,-6.4149,-0.6880,7.4061,0.0000,-0.0001,0.0000,1.0000,-0.1604,-0.0172,0.1851
200498,Right,2,0.2857,-0.1086,-0.9443,-0.1220,0.0152,-0.0171,0.0124,0.0159,0.1950,-0.0713,-5.4967,1.1289,7.9652,0.0002,-0.0002,0.0002,1.0000,-0.1375,0.0282,0.1991
200498,Pelvis,2,-0.5388,-0.4499,-0.5304,0.4755,-0.1175,0.0016,-0.0134,-0.0206,0.0505,0.0984,9.9023,-0.3762,0.1924,-0.0015,0.0000,-0.0002,1.0000,0.2476,-0.0094,0.0048
200499,Left,0,0.3456,0.0566,-0.9344,0.0647,0.0006,-0.0088,0.0014,-0.0177,0.0981,-0.0307,-6.3861,-0.6966,7.3777,0.0000,-0.0001,0.0000,1.0000,-0.1597,-0.0174,0.1844
200499,Right,2,0.2855,-0.1087,-0.9444,-0.1219,0.0158,-0.0144,0.0114,0.0254,0.1909,-0.0694,-5.5021,1.1319,7.9634,0.0002,-0.0002,0.0001,1.0000,-0.1376,0.0282,0.1991
200499,Pelvis,2,-0.5391,-0.4490,-0.5313,0.4748,-0.1118,0.0267,-0.0169,-0.0847,0.0053,0.0777,9.8804,-0.4296,0.1419,-0.0014,0.0003,-0.0002,1.0000,0.2470,-0.0108,0.0035
200500,Left,0,0.3455,0.0567,-0.9345,0.0647,0.0003,-0.0088,0.0022,-0.0363,0.0903,-0.0239,-6.3735,-0.6934,7.3978,0.0000,-0.0001,0.0000,1.0000,-0.1594,-0.0173,0.1849
200500,Right,2,0.2852,-0.1087,-0.9445,-0.1218,0.0153,-0.0137,0.0111,0.0213,0.1954,-0.0913,-5.4812,1.1274,7.9517,0.0002,-0.0002,0.0001,1.0000,-0.1371,0.0281,0.1988
200500,Pelvis,2,-0.5394,-0.4482,-0.5322,0.4742,-0.1045,0.0326,-0.0141,-0.1182,-0.0072,-0.0518,9.7502,-0.4532,0.1299,-0.0013,0.0004,-0.0002,1.0000,0.2438,-0.0114,0.0032
200501,Left,0,0.3454,0.0567,-0.9345,0.0647,0.0002,-0.0037,0.0024,-0.0176,0.0954,-0.0089,-6.3959,-0.6974,7.3979,0.0000,-0.0000,0.0000,1.0000,-0.1599,-0.0174,0.1849
200501,Right,2,0.2850,-0.1087,-0.9445,-0.1218,0.0146,-0.0084,0.0106,-0.0027,0.1880,-0.1175,-5.4444,1.1396,7.9431,0.0002,-0.0001,0.0001,1.0000,-0.1361,0.0284,0.1986
200501,Pelvis,2,-0.5397,-0.4475,-0.5330,0.4736,-0.0938,0.0223,-0.0127,-0.1361,-0.0199,-0.0462,9.7555,-0.4662,0.1216,-0.0012,0.0003,-0.0002,1.0000,0.2439,-0.0117,0.0030
200502,Left,0,0.3453,0.0568,-0.9346,0.0646,-0.0012,-0.0040,0.0031,-0.0289,0.0964,-0.0145,-6.3824,-0.7011,7.4018,-0.0000,-0.0001,0.0000,1.0000,-0.1596,-0.0175,0.1850
200502,Right,2,0.2849,-0.1088,-0.9445,-0.1218,0.0163,-0.0034,0.0068,0.0295,0.1880,-0.0757,-5.4917,1.1372,7.9619,0.0002,-0.0000,0.0001,1.0000,-0.1373,0.0284,0.1990
200502,Pelvis,2,-0.5400,-0.4468,-0.5337,0.4732,-0.0844,0.0178,-0.0037,-0.1298,-0.0200,-0.0054,9.7966,-0.4596,0.1286,-0.0011,0.0002,-0.0000,1.0000,0.2449,-0.0115,0.0032
200503,Left,0,0.3452,0.0568,-0.9346,0.0646,0.0001,-0.0043,0.0039,-0.0204,0.1038,-0.0269,-6.3798,-0.7074,7.3871,0.0000,-0.0001,0.0000,1.0000,-0.1595,-0.0177,0.1847
200503,Right,2,0.2849,-0.1088,-0.9446,-0.1217,0.0151,-0.0007,0.0064,0.0214,0.1924,-0.0841,-5.4788,1.1350,7.9609,0.0002,-0.0000,0.0001,1.0000,-0.1370,0.0283,0.1990
200503,Pelvis,2,-0.5404,-0.4462,-0.5342,0.4727,-0.0764,0.0076,0.0015,-0.1015,0.0335,-0.0072,9.7944,-0.4396,0.1892,-0.0010,0.0001,0.0000,1.0000,0.2449,-0.0110,0.0047
200504,Left,0,0.3451,0.0568,-0.9346,0.0646,0.0009,-0.0025,0.0055,-0.0211,0.0929,-0.0271,-6.3771,-0.6973,7.3901,0.0000,-0.0000,0.0001,1.0000,-0.1594,-0.0174,0.1847
200504,Right,2,0.2848,-0.1088,-0.9446,-0.1217,0.0154,0.0019,0.0049,0.0193,0.1749,-0.0710,-5.4855,1.1549,7.9692,0.0002,0.0000,0.0001,1.0000,-0.1371,0.0288,0.1992
200504,Pelvis,2,-0.5408,-0.4457,-0.5347,0.4723,-0.0737,0.0028,-0.0002,-0.0740,0.0293,0.0234,9.8259,-0.4134,0.1915,-0.0009,0.0000,-0.0000,1.0000,0.2456,-0.0103,0.0048
200505,Left,0,0.3451,0.0568,-0.9346,0.0646,0.0011,-0.0010,0.0052,-0.0237,0.1019,-0.0143,-6.3832,-0.7079,7.4009,0.0000,-0.0000,0.0001,1.0000,-0.1596,-0.0177,0.1850
200505,Right,2,0.2847,-0.1088,-0.9446,-0.1218,0.0136,0.0021,0.0046,0.0307,0.1847,-0.0686,-5.4935,1.1434,7.9685,0.0002,0.0000,0.0001,1.0000,-0.1373,0.0285,0.1992
200505,Pelvis,2,-0.5412,-0.4452,-0.5351,0.4718,-0.0745,-0.0023,-0.0039,-0.0483,0.0318,0.0098,9.8130,-0.3879,0.1981,-0.0009,-0.0000,-0.0000,1.0000,0.2453,-0.0097,0.0050
200506,Left,0,0.3450,0.0568,-0.9347,0.0646,0.0019,-0.0007,0.0062,-0.0154,0.0893,-0.0180,-6.3852,-0.6943,7.3954,0.0000,-0.0000,0.0001,1.0000,-0.1596,-0.0174,0.1849
200506,Right,2,0.2846,-0.1088,-0.9446,-0.1218,0.0141,0.0023,0.0043,0.0351,0.1748,-0.0890,-5.4862,1.1491,7.9475,0.0002,0.0000,0.0001,1.0000,-0.1371,0.0287,0.1987
200506,Pelvis,2,-0.5416,-0.4448,-0.5355,0.4712,-0.0742,-0.0097,-0.0070,-0.0366,0.0100,0.0063,9.8104,-0.3717,0.1776,-0.0009,-0.0001,-0.0001,1.0000,0.2453,-0.0093,0.0045
200507,Left,0,0.3450,0.0568,-0.9347,0.0646,0.0026,0.0006,0.0071,-0.0215,0.0991,-0.0143,-6.3832,-0.7053,7.4011,0.0000,0.0000,0.0001,1.0000,-0.1596,-0.0177,0.1850
200507,Right,2,0.2846,-0.1088,-0.9446,-0.1217,0.0132,0.0011,0.0048,0.0302,0.2054,-0.0540,-5.4970,1.1264,7.9868,0.0002,0.0000,0.0001,1.0000,-0.1374,0.0281,0.1997
200507,Pelvis,2,-0.5421,-0.4444,-0.5359,0.4706,-0.0700,-0.0156,-0.0108,-0.0714,0.0268,0.0019,9.8047,-0.4066,0.1859,-0.0009,-0.0002,-0.0001,1.0000,0.2451,-0.0102,0.0047
200508,Right,2,0.2845,-0.1088,-0.9447,-0.1217,0.0131,-0.0044,0.0050,0.0337,0.1815,-0.0749,-5.4902,1.1453,7.9627,0.0002,-0.0001,0.0001,1.0000,-0.1373,0.0286,0.1991
200508,Pelvis,2,-0.5425,-0.4442,-0.5363,0.4700,-0.0644,-0.0184,-0.0143,-0.0592,0.0052,-0.0017,9.8021,-0.3885,0.1628,-0.0008,-0.0002,-0.0002,1.0000,0.2451,-0.0098,0.0041
200509,Left,0,0.3449,0.0568,-0.9347,0.0646,0.0018,-0.0012,0.0056,-0.0151,0.0917,-0.0115,-6.3885,-0.6966,7.4009,0.0000,-0.0000,0.0001,1.0000,-0.3194,-0.0349,0.3700
200509,Right,2,0.2844,-0.1088,-0.9447,-0.1217,0.0123,0.0016,0.0047,0.0347,0.1848,-0.0679,-5.4919,1.1433,7.9705,0.0002,0.0000,0.0001,1.0000,-0.1373,0.0285,0.1993
200509,Pelvis,2,-0.5428,-0.4440,-0.5366,0.4694,-0.0557,-0.0192,-0.0169,-0.0655,-0.0310,-0.0088,9.7958,-0.3852,0.1217,-0.0007,-0.0002,-0.0002,1.0000,0.2449,-0.0097,0.0031
200510,Left,0,0.3448,0.0568,-0.9347,0.0645,0.0040,-0.0032,0.0062,-0.0164,0.1044,-0.0140,-6.3851,-0.7103,7.3994,0.0000,-0.0000,0.0001,1.0000,-0.1596,-0.0178,0.1850
200510,Right,2,0.2843,-0.1088,-0.9447,-0.1217,0.0153,-0.0004,0.0047,0.0269,0.1959,-0.0692,-5.4817,1.1352,7.9772,0.0002,-0.0000,0.0001,1.0000,-0.1370,0.0283,0.1994
200510,Pelvis,2,-0.5431,-0.4439,-0.5368,0.4689,-0.0438,-0.0197,-0.0164,-0.1034,-0.0190,-0.0008,9.8027,-0.4216,0.1234,-0.0005,-0.0002,-0.0002,1.0000,0.2451,-0.0106,0.0032
200511,Left,0,0.3447,0.0568,-0.9348,0.0645,0.0006,-0.0025,0.0063,-0.0009,0.0806,-0.0214,-6.3889,-0.6841,7.3885,0.0000,-0.0000,0.0001,1.0000,-0.1597,-0.0171,0.1847
200511,Right,2,0.2843,-0.1088,-0.9448,-0.1217,0.0114,0.0013,0.0045,0.0290,0.1790,-0.0832,-5.4774,1.1489,7.9608,0.0001,0.0000,0.0001,1.0000,-0.1369,0.0287,0.1990
200511,Pelvis,2,-0.5433,-0.4439,-0.5369,0.4685,-0.0295,-0.0236,-0.0130,-0.1196,0.0092,-0.0107,9.7918,-0.4391,0.1437,-0.0004,-0.0003,-0.0002,1.0000,0.2448,-0.0110,0.0037
200512,Left,0,0.3447,0.0568,-0.9348,0.0645,0.0020,-0.0022,0.0056,-0.0323,0.0848,0.0017,-6.3796,-0.6950,7.4263,0.0000,-0.0000,0.0001,1.0000,-0.1595,-0.0174,0.1857
200512,Right,2,0.2842,-0.1088,-0.9448,-0.1217,0.0128,-0.0004,0.0033,0.0193,0.1832,-0.0780,-5.4706,1.1484,7.9719,0.0002,-0.0000,0.0000,1.0000,-0.1368,0.0287,0.1993
200512,Pelvis,2,-0.5434,-0.4439,-0.5370,0.4683,-0.0162,-0.0164,-0.0117,-0.0796,-0.0155,0.0163,9.8207,-0.3939,0.1225,-0.0002,-0.0002,-0.0001,1.0000,0.2455,-0.0099,0.0031
200513,Right,2,0.2841,-0.1089,-0.9448,-0.1219,0.0130,0.0012,0.0034,0.0176,0.1799,-0.0644,-5.4761,1.1544,7.9839,0.0002,0.0000,0.0000,1.0000,-0.1369,0.0288,0.1996
200513,Pelvis,2,-0.5435,-0.4439,-0.5370,0.4682,-0.0078,-0.0118,-0.0083,-0.0872,-0.0087,0.0243,9.8284,-0.4010,0.1256,-0.0001,-0.0001,-0.0001,1.0000,0.2457,-0.0100,0.0032
200514,Left,0,0.3446,0.0568,-0.9348,0.0645,0.0025,0.0002,0.0066,-0.0335,0.1090,-0.0160,-6.3683,-0.7174,7.4107,0.0001,0.0000,0.0002,1.0000,-0.3184,-0.0359,0.3705
200514,Right,2,0.2841,-0.1089,-0.9448,-0.1219,0.0128,0.0053,0.0008,0.0021,0.1923,-0.0812,-5.4521,1.1446,7.9814,0.0002,0.0001,0.0000,1.0000,-0.1363,0.0286,0.1995
200514,Pelvis,2,-0.5435,-0.4439,-0.5370,0.4682,-0.0019,-0.0005,-0.0034,-0.0649,-0.0108,0.0232,9.8280,-0.3779,0.1267,-0.0000,-0.0000,-0.0000,1.0000,0.2457,-0.0095,0.0032
200515,Left,0,0.3446,0.0568,-0.9348,0.0645,0.0010,0.0041,0.0054,-0.0266,0.1006,-0.0287,-6.3636,-0.7083,7.3987,0.0000,0.0001,0.0001,1.0000,-0.1591,-0.0177,0.1850
200515,Right,2,0.2841,-0.1089,-0.9447,-0.1221,0.0124,0.0101,-0.0007,0.0128,0.1678,-0.0867,-5.4616,1.1638,7.9648,0.0002,0.0001,-0.0000,1.0000,-0.1365,0.0291,0.1991
200515,Pelvis,2,-0.5434,-0.4438,-0.5371,0.4683,0.0055,0.0046,-0.0010,-0.0659,0.0143,0.0552,9.8595,-0.3842,0.1533,0.0001,0.0001,-0.0000,1.0000,0.2465,-0.0096,0.0038
200516,Left,0,0.3446,0.0568,-0.9348,0.0645,0.0016,0.0048,0.0078,-0.0329,0.0903,-0.0162,-6.3664,-0.7003,7.4134,0.0000,0.0001,0.0001,1.0000,-0.1591,-0.0175,0.1853
200516,Right,2,0.2843,-0.1088,-0.9447,-0.1219,0.0122,0.0108,-0.0005,0.0309,0.1832,-0.0754,-5.4825,1.1441,7.9676,0.0002,0.0001,-0.0000,1.0000,-0.1370,0.0286,0.1992
200516,Pelvis,2,-0.5433,-0.4439,-0.5370,0.4685,0.0163,0.0065,0.0020,-0.0432,0.0324,0.0463,9.8508,-0.3653,0.1775,0.0002,0.0001,0.0000,1.0000,0.2463,-0.0091,0.0044
200518,Left,0,0.3446,0.0568,-0.9348,0.0645,0.0017,0.0040,0.0086,-0.0291,0.0933,-0.0116,-6.3732,-0.7020,7.4136,0.0000,0.0001,0.0002,1.0000,-0.3186,-0.0352,0.3707
200518,Right,2,0.2845,-0.1088,-0.9447,-0.1219,0.0121,0.0079,0.0000,0.0336,0.1863,-0.0674,-5.4918,1.1417,7.9715,0.0003,0.0002,0.0000,1.0000,-0.2745,0.0570,0.3986
200518,Pelvis,2,-0.5432,-0.4440,-0.5367,0.4687,0.0172,-0.0054,0.0026,0.0080,0.0523,-0.0488,9.7567,-0.3165,0.2048,0.0004,-0.0001,0.0001,1.0000,0.4878,-0.0158,0.0103
200519,Left,0,0.3446,0.0569,-0.9348,0.0645,-0.0002,0.0047,0.0073,-0.0136,0.1028,-0.0102,-6.3865,-0.7099,7.4033,-0.0000,0.0001,0.0001,1.0000,-0.1597,-0.0178,0.1851
200519,Right,2,0.2845,-0.1087,-0.9447,-0.1219,0.0121,0.0049,0.0028,0.0390,0.1790,-0.0663,-5.4982,1.1446,7.9678,0.0002,0.0001,0.0000,1.0000,-0.1374,0.0286,0.1992
200519,Pelvis,2,-0.5432,-0.4442,-0.5365,0.4688,0.0197,-0.0197,0.0008,0.0329,0.0427,-0.0477,9.7587,-0.2925,0.1982,0.0002,-0.0002,0.0000,1.0000,0.2440,-0.0073,0.0050
200520,Left,0,0.3446,0.0569,-0.9348,0.0645,0.0031,0.0030,0.0081,-0.0126,0.0813,-0.0015,-6.3913,-0.6893,7.4124,0.0000,0.0000,0.0001,1.0000,-0.1598,-0.0173,0.1853
200520,Right,2,0.2845,-0.1086,-0.9447,-0.1219,0.0109,0.0023,0.0010,0.0513,0.1752,-0.0779,-5.5023,1.1424,7.9511,0.0001,0.0000,0.0000,1.0000,-0.1376,0.0285,0.1988
200520,Pelvis,2,-0.5432,-0.4445,-0.5362,0.4689,0.0252,-0.0303,-0.0007,0.0197,0.0006,-0.0209,9.7861,-0.2999,0.1501,0.0003,-0.0004,-0.0000,1.0000,0.2447,-0.0075,0.0038
200521,Left,0,0.3446,0.0569,-0.9348,0.0645,0.0024,0.0032,0.0077,-0.0221,0.0919,-0.0068,-6.3815,-0.7007,7.4128,0.0000,0.0000,0.0001,1.0000,-0.1595,-0.0175,0.1853
200521,Right,2,0.2844,-0.1086,-0.9447,-0.1219,0.0111,0.0012,0.0040,0.0382,0.1857,-0.0521,-5.5035,1.1393,7.9824,0.0001,0.0000,0.0000,1.0000,-0.1376,0.0284,0.1996
200521,Pelvis,2,-0.5432,-0.4449,-0.5358,0.4689,0.0274,-0.0339,-0.0028,0.0278,0.0584,-0.0124,9.7938,-0.3019,0.2021,0.0003,-0.0004,-0.0000,1.0000,0.2448,-0.0076,0.0052
200522,Left,0,0.3447,0.0569,-0.9348,0.0645,0.0004,0.0041,0.0071,-0.0210,0.0904,-0.0068,-6.3823,-0.6993,7.4122,0.0000,0.0001,0.0001,1.0000,-0.1595,-0.0175,0.1853
200522,Right,2,0.2843,-0.1086,-0.9447,-0.1219,0.0108,0.0013,0.0026,0.0301,0.1762,-0.0610,-5.4925,1.1489,7.9775,0.0001,0.0000,0.0000,1.0000,-0.1373,0.0287,0.1994
200522,Pelvis,2,-0.5433,-0.4453,-0.5355,0.4689,0.0316,-0.0378,-0.0058,0.0198,0.0447,0.0034,9.8097,-0.3076,0.1801,0.0004,-0.0005,-0.0001,1.0000,0.2452,-0.0077,0.0046
200523,Left,0,0.3446,0.0569,-0.9348,0.0645,0.0010,0.0020,0.0063,-0.0357,0.0922,-0.0215,-6.3617,-0.7029,7.4102,0.0000,0.0000,0.0001,1.0000,-0.1590,-0.0176,0.1853
200523,Right,2,0.2843,-0.1085,-0.9447,-0.1218,0.0112,-0.0004,0.0045,0.0297,0.1728,-0.0609,-5.4925,1.1516,7.9771,0.0001,-0.0000,0.0001,1.0000,-0.1373,0.0288,0.1994
200523,Pelvis,2,-0.5433,-0.4458,-0.5351,0.4689,0.0333,-0.0410,-0.0093,0.0284,0.0356,-0.0046,9.8023,-0.2962,0.1640,0.0004,-0.0005,-0.0001,1.0000,0.2451,-0.0074,0.0042
200524,Left,0,0.3446,0.0569,-0.9348,0.0645,0.0010,0.0029,0.0084,-0.0259,0.0987,-0.0031,-6.3815,-0.7091,7.4171,0.0000,0.0000,0.0001,1.0000,-0.1595,-0.0177,0.1854
200524,Right,2,0.2843,-0.1085,-0.9448,-0.1218,0.0118,-0.0000,0.0033,0.0215,0.1568,-0.0768,-5.4792,1.1666,7.9643,0.0001,-0.0000,0.0000,1.0000,-0.1370,0.0291,0.1991
200524,Pelvis,2,-0.5433,-0.4463,-0.5346,0.4689,0.0349,-0.0420,-0.0076,0.0348,0.0663,-0.0066,9.8002,-0.2934,0.1864,0.0004,-0.0005,-0.0001,1.0000,0.2450,-0.0074,0.0048
200525,Left,0,0.3446,0.0569,-0.9348,0.0645,0.0003,0.0021,0.0059,-0.0176,0.0861,-0.0068,-6.3841,-0.6955,7.4110,0.0000,0.0000,0.0001,1.0000,-0.1596,-0.0174,0.1853
200525,Right,2,0.2842,-0.1085,-0.9448,-0.1219,0.0121,-0.0006,0.0023,0.0215,0.1807,-0.0621,-5.4821,1.1458,7.9837,0.0002,-0.0000,0.0000,1.0000,-0.1371,0.0286,0.1996
200525,Pelvis,2,-0.5433,-0.4468,-0.5342,0.4688,0.0342,-0.0465,-0.0082,0.0017,0.0696,0.0151,9.8210,-0.3260,0.1750,0.0004,-0.0006,-0.0001,1.0000,0.2455,-0.0082,0.0045
200526,Left,0,0.3446,0.0570,-0.9348,0.0645,0.0010,0.0035,0.0069,-0.0237,0.0958,-0.0030,-6.3827,-0.7067,7.4163,0.0000,0.0000,0.0001,1.0000,-0.1596,-0.0177,0.1854
200526,Right,2,0.2842,-0.1084,-0.9448,-0.1218,0.0110,-0.0012,0.0038,0.0324,0.1771,-0.0737,-5.4853,1.1437,7.9676,0.0001,-0.0000,0.0000,1.0000,-0.1371,0.0286,0.1992
200526,Pelvis,2,-0.5433,-0.4473,-0.5337,0.4689,0.0399,-0.0415,-0.0073,0.0201,0.0798,0.0095,9.8161,-0.3081,0.1786,0.0005,-0.0005,-0.0001,1.0000,0.2454,-0.0077,0.0046
200527,Left,0,0.3446,0.0570,-0.9348,0.0645,-0.0006,0.0029,0.0049,-0.0188,0.0840,-0.0158,-6.3770,-0.6942,7.4052,-0.0000,0.0000,0.0001,1.0000,-0.1594,-0.0174,0.1851
200527,Right,2,0.2841,-0.1084,-0.9448,-0.1218,0.0113,-0.0034,0.0041,0.0355,0.1739,-0.0872,-5.4792,1.1435,7.9553,0.0001,-0.0000,0.0001,1.0000,-0.1370,0.0286,0.1989
200527,Pelvis,2,-0.5433,-0.4478,-0.5333,0.4689,0.0437,-0.0390,-0.0102,0.0167,0.0739,0.0220,9.8287,-0.3093,0.1640,0.0005,-0.0005,-0.0001,1.0000,0.2457,-0.0078,0.0042
200528,Left,0,0.3446,0.0570,-0.9348,0.0645,0.0002,0.0026,0.0074,-0.0251,0.0737,-0.0034,-6.3795,-0.6865,7.4202,0.0000,0.0000,0.0001,1.0000,-0.1595,-0.0172,0.1855
200528,Right,2,0.2841,-0.1083,-0.9449,-0.1217,0.0114,-0.0059,0.0053,0.0299,0.1902,-0.0525,-5.4901,1.1339,7.9920,0.0001,-0.0001,0.0001,1.0000,-0.1373,0.0283,0.1998
200528,Pelvis,2,-0.5432,-0.4483,-0.5329,0.4690,0.0418,-0.0323,-0.0117,0.0318,0.0491,0.0717,9.8794,-0.2898,0.1350,0.0005,-0.0004,-0.0001,1.0000,0.2470,-0.0073,0.0035
200529,Left,0,0.3446,0.0571,-0.9348,0.0645,0.0009,0.0015,0.0057,-0.0153,0.0801,0.0150,-6.3991,-0.6929,7.4271,0.0000,0.0000,0.0001,1.0000,-0.1600,-0.0173,0.1857
200529,Right,2,0.2839,-0.1083,-0.9449,-0.1218,0.0115,-0.0076,0.0067,0.0424,0.1727,-0.0646,-5.4932,1.1455,7.9730,0.0001,-0.0001,0.0001,1.0000,-0.1374,0.0286,0.1993
200529,Pelvis,2,-0.5430,-0.4488,-0.5326,0.4691,0.0408,-0.0247,-0.0082,0.0172,0.0342,0.0466,9.8541,-0.2991,0.1121,0.0005,-0.0003,-0.0001,1.0000,0.2464,-0.0075,0.0029
200530,Left,0,0.3446,0.0571,-0.9348,0.0644,0.0002,0.0017,0.0053,-0.0479,0.0851,0.0074,-6.3696,-0.7032,7.4416,0.0000,0.0000,0.0001,1.0000,-0.1592,-0.0176,0.1860
200530,Right,2,0.2837,-0.1083,-0.9450,-0.1217,0.0116,-0.0105,0.0054,0.0344,0.1770,-0.0729,-5.4790,1.1424,7.9732,0.0001,-0.0001,0.0001,1.0000,-0.1370,0.0285,0.1993
200530,Pelvis,2,-0.5429,-0.4492,-0.5323,0.4693,0.0410,-0.0235,-0.0052,0.0257,0.0419,0.0217,9.8295,-0.2902,0.1165,0.0005,-0.0003,-0.0001,1.0000,0.2457,-0.0073,0.0030
200531,Left,0,0.3445,0.0571,-0.9348,0.0644,-0.0004,0.0003,0.0044,-0.0271,0.0901,0.0006,-6.3808,-0.7052,7.4227,-0.0000,0.0000,0.0001,1.0000,-0.1595,-0.0176,0.1856
200531,Right,2,0.2835,-0.1082,-0.9450,-0.1217,0.0119,-0.0145,0.0071,0.0172,0.1667,-0.0412,-5.4817,1.1614,8.0070,0.0001,-0.0002,0.0001,1.0000,-0.1371,0.0290,0.2002
200531,Pelvis,2,-0.5427,-0.4495,-0.5319,0.4695,0.0419,-0.0192,-0.0058,-0.0073,0.0288,-0.0238,9.7832,-0.3187,0.0945,0.0005,-0.0002,-0.0001,1.0000,0.2446,-0.0080,0.0024
