PacketId,Role,StatusWord,Qx,Qy,Qz,Qw,Gx,Gy,Gz,FreeAx,FreeAy,FreeAz,Ax,Ay,Az,DQx,DQy,DQz,DQw,DVx,DVy,DVz
189917,Right,0,0.2260,-0.0121,-0.9464,0.2304,0.0044,0.0037,0.0074,0.0000,0.0000,-0.0258,-4.1324,1.2449,8.7839,0.0001,0.0000,0.0001,1.0000,-0.1033,0.0311,0.2196
189917,Left,0,0.1832,0.0183,-0.9726,-0.1419,0.0189,-0.0103,-0.0049,0.0000,0.0000,-0.1023,-3.4094,-0.8487,9.0525,0.0002,-0.0001,-0.0001,1.0000,-0.0853,-0.0213,0.2263
189917,Pelvis,0,-0.7168,0.0869,-0.6903,0.0463,-0.0315,0.0353,0.0302,-0.0000,-0.0000,-0.0422,9.5898,-1.8243,-0.4126,-0.0004,0.0004,0.0004,1.0000,0.2398,-0.0455,-0.0104
189918,Right,0,0.2261,-0.0122,-0.9464,0.2305,0.0061,0.0028,0.0080,-0.0002,0.0137,-0.0071,-4.1461,1.2352,8.7997,0.0001,0.0000,0.0001,1.0000,-0.1036,0.0309,0.2200
189918,Left,0,0.1831,0.0181,-0.9726,-0.1420,0.0207,-0.0079,-0.0030,0.0017,-0.0169,-0.0416,-3.4373,-0.8379,9.1081,0.0003,-0.0001,-0.0000,1.0000,-0.0860,-0.0210,0.2277
189918,Pelvis,0,-0.7167,0.0875,-0.6904,0.0461,-0.0413,0.0110,0.0287,0.0004,0.0912,0.0143,9.6279,-1.9241,-0.4226,-0.0005,0.0001,0.0004,1.0000,0.2407,-0.0480,-0.0106
189919,Right,0,0.2261,-0.0124,-0.9463,0.2306,0.0097,0.0028,0.0112,-0.0046,0.0095,-0.0195,-4.1359,1.2381,8.7902,0.0001,0.0000,0.0001,1.0000,-0.1034,0.0309,0.2198
189919,Left,0,0.1830,0.0178,-0.9726,-0.1421,0.0243,-0.0046,0.0006,0.0177,0.0069,-0.0642,-3.4353,-0.8581,9.0827,0.0003,-0.0001,0.0000,1.0000,-0.0859,-0.0215,0.2271
189919,Pelvis,0,-0.7166,0.0882,-0.6903,0.0461,-0.0376,0.0003,0.0318,0.0323,0.1843,0.0070,9.6028,-2.0228,-0.3963,-0.0005,0.0000,0.0004,1.0000,0.2401,-0.0505,-0.0099
189920,Right,0,0.2262,-0.0125,-0.9463,0.2307,0.0129,0.0037,0.0108,0.0012,-0.0069,-0.0469,-4.1221,1.2554,8.7638,0.0002,0.0000,0.0001,1.0000,-0.1030,0.0313,0.2191
189920,Left,0,0.1829,0.0175,-0.9727,-0.1421,0.0256,-0.0045,0.0034,0.0389,0.0157,-0.0358,-3.4608,-0.8689,9.1026,0.0003,-0.0001,0.0000,1.0000,-0.0865,-0.0218,0.2276
189920,Pelvis,0,-0.7168,0.0888,-0.6901,0.0462,-0.0263,-0.0176,0.0422,0.0591,0.1921,-0.0235,9.5701,-2.0351,-0.3724,-0.0003,-0.0002,0.0005,1.0000,0.2393,-0.0508,-0.0092
189921,Right,0,0.2263,-0.0127,-0.9462,0.2308,0.0106,0.0063,0.0122,0.0005,-0.0183,-0.0122,-4.1318,1.2736,8.7952,0.0001,0.0001,0.0002,1.0000,-0.1033,0.0318,0.2199
189921,Left,0,0.1828,0.0171,-0.9727,-0.1420,0.0265,-0.0069,0.0095,0.0155,0.0010,-0.0340,-3.4436,-0.8422,9.1135,0.0003,-0.0001,0.0001,1.0000,-0.0861,-0.0211,0.2278
189921,Pelvis,0,-0.7170,0.0894,-0.6898,0.0466,-0.0188,-0.0292,0.0517,0.0524,0.1870,-0.0461,9.5461,-2.0369,-0.3844,-0.0002,-0.0004,0.0006,1.0000,0.2387,-0.0508,-0.0095
189922,Right,0,0.2264,-0.0128,-0.9462,0.2309,0.0090,0.0079,0.0105,0.0133,-0.0228,-0.0382,-4.1301,1.2831,8.7657,0.0001,0.0001,0.0001,1.0000,-0.1032,0.0320,0.2192
189922,Left,0,0.1825,0.0167,-0.9728,-0.1419,0.0367,-0.0203,0.0152,0.1171,0.0201,0.0620,-3.5599,-0.8879,9.1686,0.0005,-0.0003,0.0002,1.0000,-0.0891,-0.0223,0.2292
189922,Pelvis,0,-0.7172,0.0900,-0.6894,0.0471,-0.0051,-0.0399,0.0595,0.0327,0.2138,-0.0123,9.5700,-2.0824,-0.4158,-0.0001,-0.0005,0.0007,1.0000,0.2393,-0.0519,-0.0103
189923,Right,0,0.2265,-0.0129,-0.9461,0.2310,0.0050,0.0057,0.0113,0.0030,-0.0104,-0.0233,-4.1349,1.2723,8.7816,0.0001,0.0001,0.0001,1.0000,-0.1034,0.0318,0.2195
189923,Left,0,0.1820,0.0162,-0.9729,-0.1418,0.0449,-0.0360,0.0177,0.0075,0.0030,-0.1129,-3.3998,-0.8166,9.0477,0.0006,-0.0004,0.0002,1.0000,-0.0851,-0.0206,0.2261
189923,Pelvis,0,-0.7176,0.0905,-0.6889,0.0479,0.0105,-0.0487,0.0673,0.0391,0.2080,-0.0387,9.5414,-2.0887,-0.4181,0.0001,-0.0006,0.0008,1.0000,0.2386,-0.0520,-0.0103
189924,Right,0,0.2266,-0.0130,-0.9461,0.2311,0.0087,0.0048,0.0108,0.0082,0.0109,-0.0244,-4.1487,1.2581,8.7758,0.0001,0.0001,0.0001,1.0000,-0.1037,0.0314,0.2194
189924,Left,0,0.1816,0.0157,-0.9730,-0.1417,0.0387,-0.0307,0.0163,-0.0640,-0.0095,-0.1802,-3.3091,-0.7690,9.0137,0.0005,-0.0004,0.0002,1.0000,-0.0828,-0.0194,0.2253
189924,Pelvis,0,-0.7179,0.0910,-0.6885,0.0490,0.0262,-0.0507,0.0803,-0.0263,0.1879,-0.0161,9.5604,-2.0890,-0.4938,0.0003,-0.0006,0.0010,1.0000,0.2391,-0.0520,-0.0122
189925,Right,0,0.2267,-0.0132,-0.9460,0.2312,0.0117,0.0043,0.0121,0.0021,0.0162,-0.0393,-4.1406,1.2523,8.7639,0.0001,0.0001,0.0002,1.0000,-0.1035,0.0313,0.2191
189925,Left,0,0.1815,0.0154,-0.9730,-0.1416,0.0239,-0.0059,0.0114,-0.0196,0.0151,-0.1439,-3.3508,-0.7995,9.0343,0.0003,-0.0001,0.0001,1.0000,-0.0838,-0.0201,0.2258
189925,Pelvis,0,-0.7181,0.0917,-0.6880,0.0502,0.0297,-0.0473,0.0929,0.0157,0.0817,-0.0028,9.5904,-2.0140,-0.4568,0.0004,-0.0006,0.0012,1.0000,0.2398,-0.0501,-0.0113
189926,Right,0,0.2268,-0.0133,-0.9460,0.2313,0.0130,0.0060,0.0129,0.0011,-0.0009,-0.0258,-4.1388,1.2730,8.7769,0.0002,0.0001,0.0002,1.0000,-0.1035,0.0318,0.2194
189926,Left,0,0.1815,0.0151,-0.9730,-0.1415,0.0221,0.0060,0.0109,-0.0218,0.0055,-0.1427,-3.3522,-0.7838,9.0364,0.0003,0.0001,0.0001,1.0000,-0.0838,-0.0197,0.2259
189926,Pelvis,0,-0.7186,0.0925,-0.6874,0.0513,0.0136,-0.0681,0.0978,0.0286,0.0078,0.0122,9.6144,-1.9716,-0.4532,0.0002,-0.0009,0.0012,1.0000,0.2404,-0.0490,-0.0111
189927,Right,0,0.2269,-0.0136,-0.9459,0.2315,0.0158,0.0041,0.0159,0.0011,-0.0008,-0.0258,-4.1395,1.2776,8.7759,0.0002,0.0001,0.0002,1.0000,-0.1035,0.0319,0.2194
189927,Left,0,0.1817,0.0148,-0.9730,-0.1415,0.0218,0.0165,0.0100,-0.0197,0.0160,-0.1342,-3.3568,-0.7894,9.0433,0.0003,0.0002,0.0001,1.0000,-0.0839,-0.0198,0.2261
189927,Pelvis,0,-0.7190,0.0934,-0.6868,0.0523,0.0028,-0.0624,0.0957,0.0746,0.0015,-0.0259,9.5741,-1.9868,-0.4200,0.0000,-0.0008,0.0012,1.0000,0.2394,-0.0494,-0.0103
189928,Right,0,0.2269,-0.0138,-0.9459,0.2316,0.0167,0.0009,0.0168,-0.0023,0.0235,-0.0096,-4.1545,1.2620,8.7892,0.0002,0.0000,0.0002,1.0000,-0.1039,0.0315,0.2197
189928,Left,0,0.1820,0.0145,-0.9730,-0.1413,0.0182,0.0318,0.0139,-0.0536,0.0408,-0.1569,-3.3173,-0.7969,9.0332,0.0002,0.0004,0.0002,1.0000,-0.0828,-0.0200,0.2259
189928,Pelvis,0,-0.7195,0.0943,-0.6860,0.0533,-0.0045,-0.0755,0.0920,0.0839,-0.0073,-0.0655,9.5317,-1.9954,-0.4241,-0.0001,-0.0009,0.0012,1.0000,0.2384,-0.0496,-0.0104
189929,Right,0,0.2270,-0.0141,-0.9458,0.2318,0.0229,-0.0023,0.0229,0.0063,0.0203,-0.0269,-4.1517,1.2725,8.7696,0.0003,-0.0000,0.0003,1.0000,-0.1038,0.0317,0.2192
189929,Left,0,0.1826,0.0141,-0.9729,-0.1412,0.0233,0.0526,0.0172,-0.0245,0.0376,-0.1271,-3.3639,-0.7984,9.0477,0.0003,0.0007,0.0002,1.0000,-0.0839,-0.0200,0.2262
189929,Pelvis,0,-0.7199,0.0951,-0.6854,0.0542,0.0001,-0.0712,0.0843,0.1408,-0.0656,-0.0200,9.5851,-1.9746,-0.3835,0.0000,-0.0009,0.0011,1.0000,0.2397,-0.0491,-0.0094
189930,Right,0,0.2270,-0.0145,-0.9457,0.2320,0.0265,-0.0023,0.0255,0.0094,0.0015,-0.0220,-4.1470,1.2991,8.7734,0.0003,-0.0000,0.0003,1.0000,-0.1037,0.0324,0.2193
189930,Left,0,0.1832,0.0138,-0.9728,-0.1411,0.0173,0.0556,0.0156,-0.0018,0.0061,-0.0938,-3.4168,-0.7711,9.0658,0.0002,0.0007,0.0002,1.0000,-0.0853,-0.0193,0.2267
189930,Pelvis,0,-0.7205,0.0958,-0.6846,0.0551,0.0040,-0.0824,0.0795,0.1492,-0.1038,0.0606,9.6672,-1.9764,-0.3943,0.0001,-0.0010,0.0010,1.0000,0.2417,-0.0492,-0.0096
189931,Right,0,0.2271,-0.0149,-0.9457,0.2322,0.0232,-0.0002,0.0207,-0.0174,-0.0235,-0.0197,-4.1147,1.3179,8.7883,0.0003,-0.0000,0.0003,1.0000,-0.1029,0.0329,0.2197
189931,Left,0,0.1840,0.0135,-0.9727,-0.1409,0.0114,0.0684,0.0158,-0.0493,0.0186,-0.0756,-3.3914,-0.7675,9.0952,0.0001,0.0009,0.0002,1.0000,-0.0846,-0.0192,0.2274
189931,Pelvis,0,-0.7210,0.0964,-0.6839,0.0559,0.0102,-0.0841,0.0764,0.1778,-0.1230,0.0427,9.6502,-1.9758,-0.3810,0.0001,-0.0011,0.0010,1.0000,0.2413,-0.0492,-0.0093
189932,Right,0,0.2271,-0.0151,-0.9456,0.2324,0.0191,0.0006,0.0169,-0.0042,-0.0167,-0.0035,-4.1342,1.3263,8.7960,0.0002,0.0000,0.0002,1.0000,-0.1034,0.0331,0.2199
189932,Left,0,0.1848,0.0132,-0.9726,-0.1407,0.0120,0.0676,0.0198,0.0491,0.0124,-0.0258,-3.5135,-0.7880,9.1005,0.0002,0.0008,0.0002,1.0000,-0.0876,-0.0198,0.2276
189932,Pelvis,0,-0.7214,0.0969,-0.6833,0.0568,0.0121,-0.0734,0.0765,0.1765,-0.1715,0.0943,9.7064,-1.9587,-0.3982,0.0002,-0.0009,0.0010,1.0000,0.2427,-0.0487,-0.0097
189933,Right,0,0.2272,-0.0154,-0.9456,0.2325,0.0179,0.0002,0.0162,-0.0040,0.0001,-0.0171,-4.1363,1.3154,8.7815,0.0002,0.0000,0.0002,1.0000,-0.1034,0.0328,0.2195
189933,Left,0,0.1855,0.0131,-0.9725,-0.1405,0.0036,0.0591,0.0171,-0.0150,0.0278,-0.0966,-3.4409,-0.7770,9.0532,0.0000,0.0007,0.0002,1.0000,-0.0859,-0.0195,0.2264
189933,Pelvis,0,-0.7216,0.0972,-0.6830,0.0578,0.0280,-0.0479,0.0701,0.2274,-0.1468,0.1116,9.7162,-2.0077,-0.3595,0.0004,-0.0006,0.0009,1.0000,0.2430,-0.0500,-0.0089
189934,Right,0,0.2273,-0.0156,-0.9455,0.2327,0.0186,0.0008,0.0157,-0.0206,0.0006,-0.0035,-4.1283,1.3151,8.8004,0.0002,0.0000,0.0002,1.0000,-0.1032,0.0328,0.2200
189934,Left,0,0.1866,0.0129,-0.9723,-0.1402,-0.0085,0.0986,0.0257,-0.2325,0.0936,-0.3700,-3.1482,-0.7594,8.8736,-0.0001,0.0012,0.0003,1.0000,-0.0784,-0.0190,0.2219
189934,Pelvis,0,-0.7217,0.0974,-0.6828,0.0588,0.0404,-0.0458,0.0695,0.2393,-0.0998,0.0724,9.6646,-2.0621,-0.3529,0.0005,-0.0006,0.0009,1.0000,0.2417,-0.0513,-0.0087
189935,Right,0,0.2273,-0.0159,-0.9455,0.2328,0.0159,0.0038,0.0134,-0.0228,-0.0181,-0.0346,-4.1045,1.3318,8.7744,0.0002,0.0000,0.0002,1.0000,-0.1026,0.0332,0.2194
189935,Left,0,0.1887,0.0125,-0.9720,-0.1396,0.0038,0.1731,0.0523,0.0146,0.1598,-0.0243,-3.5044,-0.9142,9.0952,0.0000,0.0022,0.0007,1.0000,-0.0871,-0.0229,0.2276
189935,Pelvis,0,-0.7219,0.0975,-0.6825,0.0597,0.0401,-0.0492,0.0588,0.1691,-0.1005,0.1211,9.7054,-2.0828,-0.4299,0.0005,-0.0006,0.0007,1.0000,0.2427,-0.0519,-0.0106
189936,Right,0,0.2275,-0.0159,-0.9454,0.2328,0.0085,0.0128,0.0048,-0.0255,-0.0428,-0.0099,-4.1027,1.3595,8.7986,0.0001,0.0002,0.0001,1.0000,-0.1025,0.0340,0.2200
189936,Left,0,0.1904,0.0123,-0.9717,-0.1390,-0.0029,0.1472,0.0545,0.0985,-0.0053,0.0347,-3.6818,-0.7797,9.1004,-0.0000,0.0018,0.0007,1.0000,-0.0916,-0.0195,0.2277
189936,Pelvis,0,-0.7219,0.0973,-0.6825,0.0604,0.0469,-0.0273,0.0315,0.1575,-0.2919,0.2303,9.8516,-1.9296,-0.4415,0.0006,-0.0003,0.0004,1.0000,0.2463,-0.0481,-0.0110
189937,Right,0,0.2276,-0.0160,-0.9454,0.2328,0.0028,0.0172,0.0038,0.0001,0.0239,-0.0096,-4.1547,1.3128,8.7816,0.0000,0.0002,0.0000,1.0000,-0.1038,0.0328,0.2196
189937,Left,0,0.1917,0.0121,-0.9716,-0.1385,-0.0074,0.1096,0.0418,0.1297,-0.0504,0.0596,-3.7595,-0.7440,9.0991,-0.0001,0.0014,0.0005,1.0000,-0.0937,-0.0186,0.2276
189937,Pelvis,0,-0.7216,0.0970,-0.6828,0.0609,0.0428,0.0043,0.0254,0.1072,-0.3353,0.2483,9.8755,-1.8936,-0.4851,0.0005,0.0001,0.0003,1.0000,0.2469,-0.0473,-0.0122
189938,Right,0,0.2277,-0.0160,-0.9454,0.2328,0.0002,0.0158,0.0023,-0.0149,0.0049,-0.0358,-4.1258,1.3210,8.7648,0.0000,0.0002,0.0000,1.0000,-0.1031,0.0330,0.2191
189938,Left,0,0.1924,0.0121,-0.9715,-0.1382,-0.0011,0.0585,0.0286,0.1256,-0.0254,0.0269,-3.7570,-0.7642,9.0628,-0.0000,0.0007,0.0004,1.0000,-0.0938,-0.0191,0.2266
189938,Pelvis,0,-0.7204,0.0969,-0.6840,0.0613,0.0381,0.1014,0.0341,0.1978,-0.2285,0.1702,9.7803,-1.9893,-0.3732,0.0005,0.0013,0.0004,1.0000,0.2445,-0.0496,-0.0097
189939,Right,0,0.2279,-0.0160,-0.9453,0.2329,0.0023,0.0139,0.0059,-0.0045,0.0302,-0.0245,-4.1526,1.3049,8.7672,0.0000,0.0002,0.0001,1.0000,-0.1038,0.0326,0.2192
189939,Left,0,0.1927,0.0121,-0.9714,-0.1379,0.0019,0.0316,0.0187,0.0583,0.0212,-0.0281,-3.6737,-0.7868,9.0347,0.0000,0.0004,0.0002,1.0000,-0.0917,-0.0197,0.2259
189939,Pelvis,0,-0.7196,0.0967,-0.6848,0.0619,0.0504,0.0693,0.0425,0.1997,-0.0469,0.0349,9.6080,-2.1416,-0.3434,0.0006,0.0009,0.0005,1.0000,0.2402,-0.0534,-0.0088
189940,Right,0,0.2280,-0.0160,-0.9453,0.2329,0.0030,0.0135,0.0035,-0.0127,-0.0201,-0.0966,-4.0953,1.3383,8.7086,0.0000,0.0002,0.0000,1.0000,-0.1023,0.0334,0.2177
189940,Left,0,0.1930,0.0121,-0.9714,-0.1377,0.0002,0.0218,0.0157,0.0059,0.0468,-0.0609,-3.6131,-0.7955,9.0228,0.0000,0.0003,0.0002,1.0000,-0.0903,-0.0199,0.2256
189940,Pelvis,0,-0.7190,0.0961,-0.6855,0.0627,0.0796,0.0411,0.0239,0.2651,0.0584,-0.0355,9.5182,-2.2372,-0.2566,0.0010,0.0005,0.0003,1.0000,0.2380,-0.0559,-0.0066
189941,Right,0,0.2283,-0.0159,-0.9452,0.2329,-0.0019,0.0240,-0.0030,-0.0507,-0.0612,-0.1081,-4.0463,1.3568,8.7161,-0.0000,0.0003,-0.0000,1.0000,-0.1011,0.0339,0.2179
189941,Left,0,0.1933,0.0122,-0.9714,-0.1375,-0.0000,0.0255,0.0160,0.0057,0.0437,-0.0609,-3.6188,-0.7941,9.0207,-0.0000,0.0003,0.0002,1.0000,-0.0904,-0.0199,0.2255
189941,Pelvis,0,-0.7188,0.0949,-0.6858,0.0637,0.1101,-0.0080,-0.0036,0.3302,-0.0110,-0.0195,9.5523,-2.1771,-0.1745,0.0014,-0.0001,-0.0000,1.0000,0.2388,-0.0544,-0.0044
189942,Right,0,0.2286,-0.0156,-0.9451,0.2328,-0.0117,0.0347,-0.0078,-0.0086,-0.0400,-0.0148,-4.1346,1.3657,8.7772,-0.0001,0.0004,-0.0001,1.0000,-0.1033,0.0342,0.2195
189942,Pelvis,0,-0.7185,0.0935,-0.6862,0.0646,0.1273,-0.0031,-0.0160,0.4658,-0.2816,-0.0958,9.5451,-1.8987,-0.0131,0.0016,-0.0000,-0.0002,1.0000,0.2386,-0.0475,-0.0004
189943,Right,0,0.2289,-0.0154,-0.9451,0.2328,-0.0098,0.0290,-0.0078,-0.0247,0.0753,0.0451,-4.2059,1.2607,8.8262,-0.0001,0.0004,-0.0001,1.0000,-0.1051,0.0316,0.2207
189943,Left,0,0.1938,0.0119,-0.9713,-0.1370,0.0078,0.0255,0.0181,0.0242,0.0591,-0.0580,-3.6410,-0.8108,9.0135,0.0002,0.0006,0.0005,1.0000,-0.1817,-0.0407,0.4508
189943,Pelvis,0,-0.7185,0.0923,-0.6862,0.0655,0.1053,-0.0411,-0.0089,0.4063,-0.4161,-0.1366,9.5341,-1.7497,-0.0578,0.0013,-0.0005,-0.0001,1.0000,0.2383,-0.0438,-0.0014
189944,Right,0,0.2291,-0.0152,-0.9450,0.2328,-0.0079,0.0190,-0.0032,-0.0181,0.0219,-0.0084,-4.1695,1.3018,8.7775,-0.0001,0.0002,-0.0000,1.0000,-0.1042,0.0326,0.2195
189944,Left,0,0.1942,0.0118,-0.9713,-0.1369,0.0089,0.0294,0.0167,-0.0241,0.0422,-0.1004,-3.5969,-0.7759,8.9884,0.0001,0.0004,0.0002,1.0000,-0.0898,-0.0194,0.2247
189944,Pelvis,0,-0.7185,0.0913,-0.6864,0.0662,0.0907,-0.0358,-0.0081,0.3047,-0.3497,-0.1059,9.5464,-1.8108,-0.1593,0.0011,-0.0004,-0.0001,1.0000,0.2387,-0.0453,-0.0039
189945,Right,0,0.2292,-0.0151,-0.9450,0.2327,-0.0071,0.0141,-0.0043,-0.0169,0.0224,-0.0084,-4.1733,1.2997,8.7760,-0.0001,0.0002,-0.0001,1.0000,-0.1043,0.0325,0.2194
189945,Left,0,0.1947,0.0118,-0.9712,-0.1366,0.0038,0.0399,0.0206,-0.0198,0.0607,-0.0833,-3.6095,-0.7956,9.0002,0.0000,0.0005,0.0003,1.0000,-0.0901,-0.0199,0.2250
189945,Pelvis,0,-0.7183,0.0901,-0.6866,0.0666,0.0832,-0.0253,-0.0189,0.1911,-0.2830,-0.0129,9.6192,-1.8837,-0.2731,0.0010,-0.0003,-0.0002,1.0000,0.2405,-0.0471,-0.0068
189946,Right,0,0.2293,-0.0150,-0.9450,0.2327,-0.0008,0.0096,-0.0027,-0.0026,0.0511,0.0153,-4.2103,1.2816,8.7877,-0.0000,0.0001,-0.0000,1.0000,-0.1052,0.0320,0.2197
189946,Pelvis,0,-0.7183,0.0888,-0.6869,0.0667,0.0753,-0.0211,-0.0447,0.1376,-0.2888,0.1291,9.7593,-1.8947,-0.3270,0.0009,-0.0003,-0.0006,1.0000,0.2440,-0.0475,-0.0082
189947,Right,0,0.2293,-0.0149,-0.9450,0.2327,-0.0010,0.0026,-0.0004,-0.0063,0.0290,0.0164,-4.1986,1.2980,8.7920,-0.0000,0.0000,-0.0000,1.0000,-0.1050,0.0325,0.2198
189947,Left,0,0.1958,0.0117,-0.9711,-0.1360,0.0006,0.0480,0.0221,0.0112,0.0636,-0.0594,-3.6600,-0.8078,9.0046,0.0000,0.0012,0.0006,1.0000,-0.1824,-0.0405,0.4504
189947,Pelvis,0,-0.7181,0.0875,-0.6872,0.0665,0.0514,0.0037,-0.0779,0.1091,-0.2219,0.2283,9.8440,-1.9622,-0.3561,0.0006,0.0000,-0.0010,1.0000,0.2461,-0.0493,-0.0089
189948,Right,0,0.2292,-0.0149,-0.9450,0.2327,0.0023,-0.0006,0.0031,-0.0339,0.0397,0.0002,-4.1736,1.2738,8.7894,0.0000,-0.0000,0.0000,1.0000,-0.1043,0.0318,0.2197
189948,Left,0,0.1964,0.0118,-0.9710,-0.1357,-0.0064,0.0468,0.0220,-0.0216,0.0449,-0.0821,-3.6432,-0.7802,8.9892,-0.0001,0.0006,0.0003,1.0000,-0.0909,-0.0195,0.2248
189948,Pelvis,0,-0.7179,0.0860,-0.6877,0.0659,0.0323,0.0165,-0.0979,0.1560,-0.1775,0.1420,9.7576,-1.9628,-0.2950,0.0004,0.0002,-0.0012,1.0000,0.2439,-0.0494,-0.0074
189949,Right,0,0.2290,-0.0149,-0.9451,0.2328,0.0038,-0.0028,0.0054,-0.0101,0.0190,-0.0084,-4.1771,1.2996,8.7742,0.0000,-0.0000,0.0001,1.0000,-0.1044,0.0325,0.2194
189949,Left,0,0.1970,0.0121,-0.9709,-0.1353,-0.0083,0.0561,0.0252,-0.0346,0.0726,-0.0859,-3.6337,-0.8075,8.9867,-0.0001,0.0007,0.0003,1.0000,-0.0907,-0.0202,0.2247
189949,Pelvis,0,-0.7175,0.0848,-0.6883,0.0651,0.0057,0.0229,-0.0977,0.1545,-0.1298,0.0640,9.6773,-1.9650,-0.2811,0.0001,0.0003,-0.0012,1.0000,0.2419,-0.0494,-0.0071
189950,Right,0,0.2290,-0.0150,-0.9450,0.2329,0.0031,-0.0034,0.0053,-0.0296,0.0291,0.0027,-4.1705,1.2856,8.7919,0.0000,-0.0000,0.0001,1.0000,-0.1043,0.0321,0.2198
189950,Left,0,0.1976,0.0121,-0.9709,-0.1348,-0.0122,0.0586,0.0243,0.0176,0.0221,-0.0703,-3.7094,-0.7738,8.9753,-0.0002,0.0007,0.0003,1.0000,-0.0926,-0.0193,0.2245
189950,Pelvis,0,-0.7171,0.0838,-0.6889,0.0639,-0.0203,0.0343,-0.0987,0.0894,-0.1156,0.0402,9.6550,-1.9425,-0.3308,-0.0003,0.0004,-0.0012,1.0000,0.2413,-0.0489,-0.0084
189951,Right,0,0.2289,-0.0151,-0.9451,0.2329,0.0030,-0.0042,0.0077,-0.0095,0.0209,-0.0084,-4.1752,1.3022,8.7747,0.0000,-0.0001,0.0001,1.0000,-0.1044,0.0325,0.2194
189951,Left,0,0.1981,0.0123,-0.9708,-0.1344,-0.0162,0.0495,0.0170,0.0291,0.0215,-0.0410,-3.7413,-0.7811,8.9933,-0.0002,0.0006,0.0002,1.0000,-0.0934,-0.0195,0.2249
189951,Pelvis,0,-0.7167,0.0830,-0.6896,0.0626,-0.0413,0.0398,-0.1040,0.0510,-0.0365,0.1133,9.7150,-2.0049,-0.3596,-0.0005,0.0005,-0.0013,1.0000,0.2428,-0.0504,-0.0091
189952,Right,0,0.2288,-0.0153,-0.9451,0.2329,0.0060,-0.0045,0.0078,-0.0174,0.0363,-0.0258,-4.1669,1.2854,8.7618,0.0001,-0.0001,0.0001,1.0000,-0.1042,0.0321,0.2190
189952,Left,0,0.1986,0.0127,-0.9708,-0.1342,-0.0165,0.0342,0.0098,0.0707,0.0283,-0.0326,-3.7885,-0.8063,8.9807,-0.0002,0.0004,0.0001,1.0000,-0.0946,-0.0201,0.2246
189952,Pelvis,0,-0.7162,0.0820,-0.6903,0.0613,-0.0387,0.0532,-0.1125,0.0658,0.0972,0.0968,9.6787,-2.1036,-0.3320,-0.0005,0.0007,-0.0014,1.0000,0.2419,-0.0529,-0.0084
189953,Right,0,0.2289,-0.0154,-0.9450,0.2330,0.0067,-0.0035,0.0092,-0.0306,-0.0087,-0.0682,-4.1181,1.3159,8.7330,0.0001,-0.0000,0.0001,1.0000,-0.1030,0.0329,0.2183
189953,Left,0,0.1988,0.0130,-0.9707,-0.1342,-0.0130,0.0183,0.0067,0.0451,0.0504,-0.0355,-3.7652,-0.8267,8.9854,-0.0002,0.0002,0.0001,1.0000,-0.0941,-0.0206,0.2247
189953,Pelvis,0,-0.7157,0.0810,-0.6911,0.0601,-0.0127,0.0561,-0.1154,0.0950,0.1660,-0.0572,9.5223,-2.1103,-0.2816,-0.0002,0.0007,-0.0014,1.0000,0.2380,-0.0531,-0.0072
189954,Right,0,0.2289,-0.0154,-0.9450,0.2331,0.0027,0.0062,0.0088,-0.0343,-0.0238,-0.0459,-4.1167,1.3326,8.7561,0.0000,0.0001,0.0001,1.0000,-0.1029,0.0333,0.2189
189954,Left,0,0.1989,0.0133,-0.9707,-0.1339,-0.0077,0.0092,0.0087,0.0121,0.0716,-0.0580,-3.7231,-0.8419,8.9771,-0.0001,0.0001,0.0001,1.0000,-0.0930,-0.0210,0.2244
189954,Pelvis,0,-0.7154,0.0801,-0.6916,0.0591,-0.0004,0.0286,-0.0985,0.0979,0.1334,-0.0640,9.5287,-2.0489,-0.2646,-0.0000,0.0004,-0.0012,1.0000,0.2382,-0.0515,-0.0067
189955,Right,0,0.2287,-0.0153,-0.9451,0.2330,-0.0037,0.0070,0.0018,-0.0014,0.0349,0.0016,-4.1864,1.2993,8.7810,-0.0000,0.0001,0.0000,1.0000,-0.1046,0.0325,0.2195
189955,Left,0,0.1989,0.0133,-0.9708,-0.1338,0.0001,0.0063,0.0099,-0.0036,0.0836,-0.0596,-3.7058,-0.8506,8.9819,0.0000,0.0001,0.0001,1.0000,-0.0926,-0.0213,0.2246
189955,Pelvis,0,-0.7152,0.0792,-0.6919,0.0584,0.0046,0.0196,-0.0856,0.0968,0.0942,-0.0349,9.5700,-1.9932,-0.2568,0.0001,0.0002,-0.0011,1.0000,0.2392,-0.0501,-0.0065
189956,Right,0,0.2287,-0.0153,-0.9451,0.2331,0.0021,0.0047,0.0055,-0.0330,0.0087,-0.0321,-4.1360,1.3031,8.7667,0.0000,0.0001,0.0001,1.0000,-0.1034,0.0326,0.2192
189956,Left,0,0.1990,0.0134,-0.9707,-0.1337,0.0045,0.0111,0.0138,0.0106,0.0550,-0.0763,-3.7214,-0.8270,8.9592,0.0001,0.0001,0.0002,1.0000,-0.0930,-0.0207,0.2240
189956,Pelvis,0,-0.7149,0.0784,-0.6924,0.0578,0.0033,0.0204,-0.0745,0.0163,0.0510,0.0033,9.6179,-1.9354,-0.3263,0.0000,0.0003,-0.0009,1.0000,0.2404,-0.0486,-0.0082
189957,Right,0,0.2286,-0.0153,-0.9451,0.2331,0.0022,0.0066,0.0058,-0.0127,0.0199,-0.0035,-4.1678,1.3060,8.7832,0.0000,0.0001,0.0001,1.0000,-0.1042,0.0326,0.2196
189957,Left,0,0.1990,0.0136,-0.9708,-0.1334,0.0008,0.0093,0.0103,-0.0090,0.0458,-0.0756,-3.7069,-0.8149,8.9671,0.0000,0.0001,0.0001,1.0000,-0.0926,-0.0204,0.2242
189957,Pelvis,0,-0.7148,0.0776,-0.6927,0.0575,0.0116,0.0151,-0.0647,0.0491,0.0775,-0.0206,9.5938,-1.9417,-0.2859,0.0001,0.0002,-0.0008,1.0000,0.2398,-0.0487,-0.0072
189958,Right,0,0.2286,-0.0153,-0.9451,0.2332,0.0037,0.0026,0.0066,-0.0058,0.0407,-0.0047,-4.1817,1.2906,8.7776,0.0000,0.0000,0.0001,1.0000,-0.1045,0.0322,0.2194
189958,Left,0,0.1992,0.0137,-0.9708,-0.1331,-0.0028,0.0163,0.0116,-0.0241,0.0628,-0.1073,-3.6793,-0.8268,8.9430,-0.0000,0.0002,0.0001,1.0000,-0.0919,-0.0207,0.2236
189958,Pelvis,0,-0.7147,0.0769,-0.6929,0.0571,0.0210,0.0034,-0.0588,0.0641,0.0913,-0.0830,9.5338,-1.9281,-0.2628,0.0003,0.0000,-0.0007,1.0000,0.2383,-0.0484,-0.0066
189959,Right,0,0.2285,-0.0153,-0.9451,0.2332,0.0040,0.0006,0.0077,-0.0174,0.0104,-0.0284,-4.1475,1.3090,8.7646,0.0001,0.0000,0.0001,1.0000,-0.1037,0.0327,0.2191
189959,Left,0,0.1995,0.0138,-0.9708,-0.1329,-0.0030,0.0294,0.0167,-0.0113,0.0689,-0.0888,-3.6996,-0.8399,8.9536,-0.0000,0.0004,0.0002,1.0000,-0.0924,-0.0210,0.2239
189959,Pelvis,0,-0.7148,0.0763,-0.6929,0.0567,0.0239,-0.0143,-0.0516,0.0676,0.0975,-0.1190,9.5003,-1.9133,-0.2577,0.0003,-0.0002,-0.0006,1.0000,0.2375,-0.0480,-0.0064
189960,Right,0,0.2285,-0.0153,-0.9451,0.2332,0.0029,0.0008,0.0070,0.0052,0.0186,-0.0084,-4.1771,1.3144,8.7720,0.0000,0.0000,0.0001,1.0000,-0.1044,0.0328,0.2193
189960,Left,0,0.1999,0.0139,-0.9707,-0.1327,-0.0056,0.0365,0.0173,-0.0035,0.0563,-0.0778,-3.7209,-0.8320,8.9574,-0.0001,0.0005,0.0002,1.0000,-0.0929,-0.0208,0.2240
189960,Pelvis,0,-0.7149,0.0754,-0.6929,0.0566,0.0393,-0.0127,-0.0552,0.0385,0.0746,-0.0139,9.6093,-1.8976,-0.2901,0.0005,-0.0002,-0.0007,1.0000,0.2402,-0.0476,-0.0072
189961,Right,0,0.2285,-0.0154,-0.9451,0.2332,0.0044,0.0038,0.0068,-0.0048,-0.0031,-0.0433,-4.1439,1.3254,8.7472,0.0001,0.0000,0.0001,1.0000,-0.1036,0.0331,0.2187
189961,Left,0,0.2003,0.0140,-0.9706,-0.1325,-0.0059,0.0357,0.0167,0.0071,0.0515,-0.0775,-3.7385,-0.8321,8.9503,-0.0001,0.0004,0.0002,1.0000,-0.0934,-0.0208,0.2238
189961,Pelvis,0,-0.7149,0.0744,-0.6929,0.0569,0.0490,-0.0190,-0.0548,0.0089,0.0876,0.0489,9.6697,-1.9111,-0.3204,0.0006,-0.0002,-0.0007,1.0000,0.2417,-0.0479,-0.0080
189962,Right,0,0.2286,-0.0154,-0.9450,0.2333,-0.0011,0.0090,0.0034,-0.0153,0.0097,-0.0284,-4.1490,1.3129,8.7633,-0.0000,0.0001,0.0000,1.0000,-0.1037,0.0328,0.2191
189962,Left,0,0.2006,0.0141,-0.9706,-0.1322,-0.0053,0.0342,0.0185,0.0104,0.0608,-0.0592,-3.7525,-0.8450,8.9632,-0.0001,0.0004,0.0002,1.0000,-0.0937,-0.0211,0.2241
189962,Pelvis,0,-0.7150,0.0732,-0.6929,0.0574,0.0712,-0.0121,-0.0506,-0.0112,0.0961,0.0853,9.7052,-1.9161,-0.3416,0.0009,-0.0002,-0.0006,1.0000,0.2426,-0.0480,-0.0085
189963,Right,0,0.2286,-0.0153,-0.9450,0.2334,0.0009,0.0107,0.0031,0.0067,0.0281,-0.0109,-4.1825,1.3077,8.7677,0.0000,0.0001,0.0000,1.0000,-0.1045,0.0327,0.2192
189963,Left,0,0.2010,0.0142,-0.9706,-0.1320,-0.0042,0.0329,0.0177,0.0116,0.0554,-0.0786,-3.7535,-0.8406,8.9421,-0.0001,0.0004,0.0002,1.0000,-0.0937,-0.0210,0.2236
189963,Pelvis,0,-0.7151,0.0721,-0.6929,0.0578,0.0823,-0.0244,-0.0460,0.0140,0.0321,0.0745,9.7092,-1.8415,-0.3135,0.0010,-0.0003,-0.0006,1.0000,0.2427,-0.0462,-0.0078
189964,Right,0,0.2287,-0.0153,-0.9450,0.2334,-0.0005,0.0100,0.0048,-0.0151,0.0343,-0.0121,-4.1684,1.2929,8.7753,-0.0000,0.0001,0.0001,1.0000,-0.1042,0.0323,0.2194
189964,Left,0,0.2013,0.0143,-0.9705,-0.1319,-0.0040,0.0292,0.0174,0.0169,0.0332,-0.0665,-3.7754,-0.8230,8.9476,-0.0001,0.0004,0.0002,1.0000,-0.0943,-0.0206,0.2237
189964,Pelvis,0,-0.7153,0.0709,-0.6928,0.0583,0.0944,-0.0178,-0.0450,-0.0030,0.0411,0.0393,9.6743,-1.8334,-0.3307,0.0012,-0.0002,-0.0006,1.0000,0.2418,-0.0460,-0.0083
189965,Right,0,0.2287,-0.0153,-0.9450,0.2335,-0.0012,0.0083,0.0039,-0.0241,0.0461,0.0028,-4.1741,1.2798,8.7912,-0.0000,0.0001,0.0000,1.0000,-0.1043,0.0320,0.2198
189965,Left,0,0.2016,0.0145,-0.9705,-0.1316,-0.0030,0.0264,0.0151,0.0036,0.0575,-0.0992,-3.7502,-0.8446,8.9206,-0.0000,0.0003,0.0002,1.0000,-0.0937,-0.0211,0.2230
189965,Pelvis,0,-0.7153,0.0699,-0.6928,0.0587,0.0843,-0.0271,-0.0333,0.0786,-0.0559,-0.0516,9.6068,-1.7144,-0.2428,0.0011,-0.0003,-0.0004,1.0000,0.2402,-0.0430,-0.0060
189966,Right,0,0.2287,-0.0152,-0.9449,0.2336,-0.0010,0.0056,0.0061,-0.0040,0.0366,-0.0084,-4.1811,1.2954,8.7730,-0.0000,0.0001,0.0001,1.0000,-0.1045,0.0324,0.2193
189966,Left,0,0.2020,0.0146,-0.9704,-0.1316,0.0003,0.0217,0.0126,0.0052,0.0249,-0.0764,-3.7751,-0.8190,8.9372,0.0000,0.0003,0.0002,1.0000,-0.0943,-0.0205,0.2235
189966,Pelvis,0,-0.7154,0.0690,-0.6927,0.0594,0.0741,-0.0260,-0.0237,0.0931,-0.0835,-0.0424,9.6221,-1.6848,-0.2283,0.0009,-0.0003,-0.0003,1.0000,0.2405,-0.0422,-0.0057
189967,Right,0,0.2286,-0.0152,-0.9449,0.2336,0.0019,0.0039,0.0079,-0.0146,0.0293,-0.0246,-4.1618,1.2943,8.7643,0.0000,0.0000,0.0001,1.0000,-0.1040,0.0323,0.2191
189967,Left,0,0.2021,0.0147,-0.9704,-0.1316,0.0025,0.0148,0.0071,0.0383,0.0373,-0.0585,-3.8115,-0.8418,8.9394,0.0000,0.0002,0.0001,1.0000,-0.0952,-0.0211,0.2235
189967,Pelvis,0,-0.7155,0.0683,-0.6927,0.0599,0.0646,-0.0251,-0.0134,0.0479,-0.0752,-0.0118,9.6500,-1.6938,-0.2746,0.0008,-0.0003,-0.0002,1.0000,0.2412,-0.0424,-0.0068
189968,Right,0,0.2286,-0.0152,-0.9449,0.2338,0.0015,0.0064,0.0076,-0.0125,0.0243,-0.0457,-4.1510,1.2975,8.7453,0.0000,0.0001,0.0001,1.0000,-0.1038,0.0324,0.2186
189968,Left,0,0.2021,0.0148,-0.9704,-0.1314,0.0066,0.0072,0.0055,0.0130,0.0462,-0.0796,-3.7788,-0.8449,8.9299,0.0001,0.0001,0.0001,1.0000,-0.0944,-0.0211,0.2233
189968,Pelvis,0,-0.7156,0.0677,-0.6926,0.0603,0.0582,-0.0202,-0.0100,0.0425,-0.0403,0.0536,9.7081,-1.7377,-0.2844,0.0007,-0.0003,-0.0001,1.0000,0.2427,-0.0435,-0.0071
189969,Right,0,0.2286,-0.0152,-0.9449,0.2340,0.0048,0.0085,0.0085,-0.0063,0.0340,-0.0121,-4.1747,1.2970,8.7716,0.0001,0.0001,0.0001,1.0000,-0.1043,0.0324,0.2193
189969,Left,0,0.2021,0.0148,-0.9704,-0.1314,0.0074,0.0058,0.0041,0.0108,0.0776,-0.0635,-3.7752,-0.8749,8.9462,0.0001,0.0001,0.0001,1.0000,-0.0944,-0.0219,0.2237
189969,Pelvis,0,-0.7156,0.0671,-0.6926,0.0608,0.0561,-0.0102,-0.0080,0.0766,-0.0608,0.0232,9.6832,-1.7108,-0.2493,0.0007,-0.0001,-0.0001,1.0000,0.2421,-0.0428,-0.0062
189970,Right,0,0.2287,-0.0152,-0.9448,0.2340,0.0033,0.0113,0.0069,-0.0098,0.0287,-0.0246,-4.1660,1.2987,8.7616,0.0000,0.0001,0.0001,1.0000,-0.1041,0.0325,0.2191
189970,Left,0,0.2020,0.0148,-0.9704,-0.1313,0.0092,0.0073,0.0082,-0.0179,0.0712,-0.0728,-3.7472,-0.8599,8.9493,0.0001,0.0001,0.0001,1.0000,-0.0937,-0.0215,0.2237
189970,Pelvis,0,-0.7158,0.0667,-0.6924,0.0614,0.0450,-0.0245,0.0003,0.0985,-0.0678,0.0518,9.7129,-1.7114,-0.2300,0.0006,-0.0003,0.0000,1.0000,0.2428,-0.0428,-0.0057
189971,Right,0,0.2288,-0.0152,-0.9448,0.2339,0.0006,0.0091,0.0066,-0.0128,0.0351,0.0052,-4.1807,1.2959,8.7884,0.0000,0.0001,0.0001,1.0000,-0.1045,0.0324,0.2197
189971,Left,0,0.2019,0.0147,-0.9705,-0.1310,0.0125,0.0091,0.0090,0.0050,0.0659,-0.0627,-3.7708,-0.8593,8.9504,0.0002,0.0001,0.0001,1.0000,-0.0942,-0.0215,0.2238
189971,Pelvis,0,-0.7159,0.0664,-0.6922,0.0620,0.0389,-0.0207,0.0055,0.0837,-0.0704,-0.0031,9.6582,-1.7021,-0.2469,0.0005,-0.0003,0.0001,1.0000,0.2415,-0.0425,-0.0061
189972,Right,0,0.2289,-0.0152,-0.9448,0.2340,0.0018,0.0085,0.0053,0.0023,0.0378,-0.0319,-4.1800,1.2954,8.7472,0.0000,0.0001,0.0001,1.0000,-0.1045,0.0324,0.2187
189972,Left,0,0.2018,0.0148,-0.9706,-0.1307,0.0121,0.0032,0.0075,0.0050,0.0525,-0.0616,-3.7734,-0.8462,8.9517,0.0002,0.0000,0.0001,1.0000,-0.0943,-0.0212,0.2238
189972,Pelvis,0,-0.7160,0.0662,-0.6921,0.0625,0.0420,-0.0143,0.0141,0.0768,-0.0187,0.0006,9.6517,-1.7564,-0.2571,0.0005,-0.0002,0.0002,1.0000,0.2413,-0.0439,-0.0064
189973,Right,0,0.2289,-0.0152,-0.9447,0.2342,0.0038,0.0048,0.0093,-0.0067,0.0337,-0.0034,-4.1826,1.3001,8.7771,0.0000,0.0001,0.0001,1.0000,-0.1046,0.0325,0.2194
189973,Left,0,0.2017,0.0149,-0.9706,-0.1306,0.0114,0.0039,0.0065,0.0116,0.0268,-0.0592,-3.7855,-0.8241,8.9511,0.0001,0.0000,0.0001,1.0000,-0.0946,-0.0206,0.2238
189973,Pelvis,0,-0.7161,0.0660,-0.6920,0.0632,0.0440,-0.0148,0.0222,0.0479,-0.0208,-0.0214,9.6284,-1.7563,-0.2855,0.0005,-0.0002,0.0003,1.0000,0.2407,-0.0438,-0.0071
189974,Right,0,0.2289,-0.0153,-0.9447,0.2344,0.0066,0.0036,0.0118,-0.0061,0.0344,-0.0034,-4.1832,1.3024,8.7765,0.0001,0.0000,0.0001,1.0000,-0.1046,0.0325,0.2194
189974,Left,0,0.2017,0.0149,-0.9706,-0.1306,0.0109,0.0031,0.0068,0.0021,0.0617,-0.0930,-3.7536,-0.8530,8.9252,0.0001,0.0000,0.0001,1.0000,-0.0938,-0.0214,0.2231
189974,Pelvis,0,-0.7161,0.0658,-0.6920,0.0638,0.0448,-0.0051,0.0261,0.0644,-0.0297,-0.0154,9.6353,-1.7547,-0.2699,0.0006,-0.0001,0.0003,1.0000,0.2409,-0.0438,-0.0068
189975,Right,0,0.2290,-0.0154,-0.9447,0.2344,0.0064,0.0022,0.0135,-0.0015,0.0314,-0.0121,-4.1824,1.3071,8.7665,0.0001,0.0000,0.0002,1.0000,-0.1046,0.0326,0.2192
189975,Left,0,0.2016,0.0150,-0.9706,-0.1304,0.0098,0.0045,0.0054,0.0117,0.0494,-0.0626,-3.7752,-0.8464,8.9498,0.0001,0.0001,0.0001,1.0000,-0.0944,-0.0212,0.2237
189975,Pelvis,0,-0.7160,0.0658,-0.6920,0.0644,0.0360,-0.0072,0.0307,0.0897,-0.1162,-0.0296,9.6369,-1.6739,-0.2422,0.0004,-0.0001,0.0004,1.0000,0.2409,-0.0418,-0.0061
189976,Right,0,0.2289,-0.0155,-0.9446,0.2346,0.0061,-0.0013,0.0125,-0.0060,0.0431,-0.0059,-4.1849,1.2985,8.7736,0.0001,-0.0000,0.0002,1.0000,-0.1046,0.0324,0.2193
189976,Left,0,0.2016,0.0150,-0.9706,-0.1305,0.0130,0.0064,0.0048,-0.0233,0.0710,-0.0848,-3.7312,-0.8573,8.9431,0.0002,0.0001,0.0001,1.0000,-0.0933,-0.0215,0.2236
189976,Pelvis,0,-0.7161,0.0660,-0.6919,0.0648,0.0062,-0.0153,0.0322,0.1071,-0.2077,-0.0240,9.6581,-1.5947,-0.2261,0.0001,-0.0002,0.0004,1.0000,0.2415,-0.0398,-0.0056
189977,Right,0,0.2289,-0.0157,-0.9446,0.2348,0.0076,-0.0032,0.0167,-0.0094,0.0357,0.0052,-4.1832,1.3089,8.7853,0.0001,-0.0000,0.0002,1.0000,-0.1046,0.0327,0.2196
189977,Left,0,0.2017,0.0149,-0.9706,-0.1306,0.0121,0.0077,0.0070,-0.0046,0.0641,-0.0844,-3.7510,-0.8548,8.9355,0.0002,0.0001,0.0001,1.0000,-0.0938,-0.0214,0.2234
189977,Pelvis,0,-0.7161,0.0664,-0.6918,0.0650,-0.0134,-0.0093,0.0313,0.0815,-0.1547,-0.0035,9.6661,-1.6588,-0.2543,-0.0002,-0.0001,0.0004,1.0000,0.2417,-0.0414,-0.0063
189978,Right,0,0.2288,-0.0159,-0.9445,0.2350,0.0112,-0.0051,0.0142,-0.0052,0.0497,0.0152,-4.1942,1.3032,8.7921,0.0001,-0.0001,0.0002,1.0000,-0.1049,0.0325,0.2198
189978,Left,0,0.2018,0.0149,-0.9706,-0.1304,0.0180,0.0155,0.0115,-0.0002,0.0812,-0.0671,-3.7588,-0.8734,8.9494,0.0002,0.0002,0.0001,1.0000,-0.0939,-0.0219,0.2237
189978,Pelvis,0,-0.7161,0.0669,-0.6917,0.0652,-0.0225,-0.0090,0.0277,0.0514,-0.0833,0.0270,9.6803,-1.7426,-0.2876,-0.0003,-0.0001,0.0003,1.0000,0.2420,-0.0435,-0.0072
189979,Right,0,0.2287,-0.0160,-0.9445,0.2352,0.0111,-0.0111,0.0178,0.0007,0.0644,-0.0070,-4.1934,1.2926,8.7692,0.0001,-0.0001,0.0002,1.0000,-0.1049,0.0323,0.2192
189979,Left,0,0.2019,0.0148,-0.9706,-0.1303,0.0205,0.0129,0.0082,-0.0022,0.0165,-0.0703,-3.7739,-0.8092,8.9452,0.0003,0.0002,0.0001,1.0000,-0.0943,-0.0203,0.2236
189979,Pelvis,0,-0.7162,0.0672,-0.6916,0.0653,-0.0151,0.0001,0.0260,0.0723,-0.1034,0.0719,9.7274,-1.7391,-0.2711,-0.0002,0.0000,0.0003,1.0000,0.2432,-0.0434,-0.0068
189980,Right,0,0.2285,-0.0163,-0.9445,0.2354,0.0081,-0.0152,0.0191,-0.0113,0.0323,-0.0072,-4.1654,1.3207,8.7781,0.0001,-0.0002,0.0002,1.0000,-0.1042,0.0330,0.2194
189980,Left,0,0.2019,0.0148,-0.9706,-0.1303,0.0158,0.0068,0.0014,0.0281,0.0169,-0.0708,-3.8023,-0.8155,8.9321,0.0002,0.0001,0.0000,1.0000,-0.0950,-0.0204,0.2233
189980,Pelvis,0,-0.7161,0.0676,-0.6916,0.0655,-0.0089,-0.0020,0.0261,0.0434,-0.0575,0.0566,9.7016,-1.7883,-0.2982,-0.0001,-0.0000,0.0003,1.0000,0.2426,-0.0446,-0.0074
189981,Right,0,0.2282,-0.0163,-0.9445,0.2357,0.0069,-0.0156,0.0184,-0.0179,0.0288,-0.0109,-4.1518,1.3223,8.7801,0.0001,-0.0002,0.0002,1.0000,-0.1038,0.0330,0.2195
189981,Left,0,0.2018,0.0148,-0.9706,-0.1303,0.0119,-0.0031,-0.0015,0.0309,0.0266,-0.0427,-3.8123,-0.8274,8.9575,0.0001,-0.0000,-0.0000,1.0000,-0.0953,-0.0207,0.2239
189981,Pelvis,0,-0.7161,0.0677,-0.6916,0.0656,-0.0014,-0.0020,0.0194,-0.0052,-0.0056,0.0712,9.7038,-1.8462,-0.3469,-0.0000,-0.0000,0.0002,1.0000,0.2426,-0.0461,-0.0087
189982,Right,0,0.2281,-0.0165,-0.9445,0.2359,0.0058,-0.0101,0.0134,-0.0236,-0.0025,-0.0520,-4.1120,1.3459,8.7494,0.0001,-0.0001,0.0002,1.0000,-0.1028,0.0336,0.2187
189982,Left,0,0.2016,0.0148,-0.9707,-0.1303,0.0086,-0.0123,-0.0034,0.0167,0.0466,-0.0645,-3.7833,-0.8401,8.9448,0.0001,-0.0002,-0.0000,1.0000,-0.0946,-0.0210,0.2236
189982,Pelvis,0,-0.7160,0.0677,-0.6917,0.0659,0.0146,0.0116,0.0108,-0.0093,-0.0102,0.0779,9.7104,-1.8463,-0.3509,0.0002,0.0001,0.0001,1.0000,0.2428,-0.0461,-0.0088
189983,Right,0,0.2279,-0.0166,-0.9445,0.2362,0.0061,-0.0064,0.0138,-0.0137,0.0141,-0.0296,-4.1327,1.3393,8.7656,0.0001,-0.0001,0.0002,1.0000,-0.1033,0.0334,0.2191
189983,Left,0,0.2014,0.0148,-0.9707,-0.1303,0.0095,-0.0129,-0.0033,-0.0151,0.0813,-0.0684,-3.7411,-0.8656,8.9562,0.0001,-0.0002,-0.0000,1.0000,-0.0936,-0.0217,0.2239
189983,Pelvis,0,-0.7158,0.0675,-0.6919,0.0660,0.0196,0.0129,0.0016,0.0028,-0.0558,0.0968,9.7381,-1.8053,-0.3342,0.0002,0.0002,0.0000,1.0000,0.2435,-0.0451,-0.0084
189984,Right,0,0.2280,-0.0166,-0.9444,0.2364,0.0044,-0.0004,0.0113,-0.0029,0.0299,-0.0159,-4.1535,1.3345,8.7719,0.0001,-0.0000,0.0001,1.0000,-0.1038,0.0333,0.2193
189984,Left,0,0.2014,0.0148,-0.9707,-0.1304,0.0081,-0.0021,-0.0004,-0.0286,0.0605,-0.0859,-3.7254,-0.8406,8.9459,0.0001,-0.0000,-0.0000,1.0000,-0.0931,-0.0210,0.2236
189984,Pelvis,0,-0.7157,0.0672,-0.6920,0.0663,0.0284,0.0080,-0.0079,0.0455,-0.0664,0.0662,9.7113,-1.7910,-0.2876,0.0004,0.0001,-0.0001,1.0000,0.2428,-0.0448,-0.0072
189985,Right,0,0.2280,-0.0167,-0.9444,0.2365,0.0018,0.0038,0.0091,-0.0133,0.0150,-0.0296,-4.1316,1.3435,8.7655,0.0000,0.0000,0.0001,1.0000,-0.1033,0.0336,0.2191
189985,Left,0,0.2014,0.0148,-0.9707,-0.1304,0.0038,0.0049,-0.0002,0.0030,0.0650,-0.0572,-3.7623,-0.8555,8.9603,0.0000,0.0001,-0.0000,1.0000,-0.0940,-0.0214,0.2240
189985,Pelvis,0,-0.7156,0.0667,-0.6921,0.0665,0.0431,-0.0019,-0.0096,0.0446,-0.0509,0.0207,9.6643,-1.7948,-0.2822,0.0005,-0.0000,-0.0001,1.0000,0.2416,-0.0449,-0.0071
189986,Right,0,0.2280,-0.0167,-0.9443,0.2366,-0.0019,0.0026,0.0064,-0.0128,0.0268,-0.0643,-4.1230,1.3295,8.7331,-0.0000,0.0000,0.0001,1.0000,-0.1031,0.0332,0.2183
189986,Left,0,0.2014,0.0149,-0.9707,-0.1304,0.0041,0.0055,0.0026,0.0154,0.0688,-0.0678,-3.7680,-0.8627,8.9458,0.0001,0.0001,0.0000,1.0000,-0.0942,-0.0216,0.2236
189986,Pelvis,0,-0.7156,0.0662,-0.6921,0.0668,0.0490,-0.0041,-0.0124,-0.0128,-0.0341,-0.0265,9.6137,-1.7986,-0.3355,0.0006,-0.0001,-0.0002,1.0000,0.2403,-0.0450,-0.0084
189987,Right,0,0.2280,-0.0166,-0.9443,0.2368,-0.0043,0.0076,0.0025,-0.0134,0.0251,-0.0320,-4.1348,1.3347,8.7626,-0.0001,0.0001,0.0000,1.0000,-0.1034,0.0334,0.2191
189987,Left,0,0.2013,0.0149,-0.9707,-0.1303,0.0088,0.0051,0.0061,0.0205,0.0850,-0.0698,-3.7672,-0.8800,8.9423,0.0001,0.0001,0.0001,1.0000,-0.0942,-0.0220,0.2236
189987,Pelvis,0,-0.7158,0.0654,-0.6920,0.0672,0.0560,-0.0116,-0.0179,-0.0136,0.0004,-0.0328,9.6019,-1.8268,-0.3373,0.0007,-0.0001,-0.0002,1.0000,0.2400,-0.0457,-0.0084
189988,Right,0,0.2280,-0.0164,-0.9443,0.2368,-0.0080,0.0079,0.0030,-0.0008,0.0456,0.0028,-4.1701,1.3245,8.7865,-0.0001,0.0001,0.0000,1.0000,-0.1042,0.0331,0.2197
189988,Left,0,0.2012,0.0150,-0.9707,-0.1302,0.0092,0.0000,0.0049,0.0175,0.0607,-0.0871,-3.7630,-0.8547,8.9275,0.0001,0.0000,0.0001,1.0000,-0.0941,-0.0214,0.2232
189988,Pelvis,0,-0.7158,0.0647,-0.6920,0.0676,0.0612,-0.0165,-0.0189,0.0117,-0.0302,0.0087,9.6498,-1.8008,-0.3131,0.0008,-0.0002,-0.0002,1.0000,0.2412,-0.0451,-0.0078
189989,Right,0,0.2280,-0.0164,-0.9443,0.2369,-0.0049,0.0030,0.0050,0.0076,0.0433,-0.0146,-4.1690,1.3274,8.7671,-0.0001,0.0000,0.0001,1.0000,-0.1042,0.0332,0.2192
189989,Left,0,0.2012,0.0149,-0.9707,-0.1302,0.0074,-0.0022,0.0008,-0.0144,0.0474,-0.0759,-3.7412,-0.8340,8.9507,0.0001,-0.0000,0.0000,1.0000,-0.0935,-0.0209,0.2238
189989,Pelvis,0,-0.7160,0.0640,-0.6918,0.0680,0.0598,-0.0321,-0.0087,-0.0114,-0.0487,-0.0233,9.6217,-1.7730,-0.3379,0.0007,-0.0004,-0.0001,1.0000,0.2405,-0.0443,-0.0084
189990,Right,0,0.2279,-0.0163,-0.9442,0.2373,-0.0051,0.0011,0.0061,-0.0119,0.0392,-0.0133,-4.1513,1.3209,8.7779,-0.0001,0.0000,0.0001,1.0000,-0.1038,0.0330,0.2194
189990,Left,0,0.2011,0.0150,-0.9708,-0.1302,0.0049,-0.0025,0.0003,0.0057,0.0414,-0.0659,-3.7623,-0.8351,8.9527,0.0001,-0.0000,0.0000,1.0000,-0.0941,-0.0209,0.2238
189990,Pelvis,0,-0.7163,0.0636,-0.6915,0.0687,0.0592,-0.0351,0.0029,-0.0039,-0.0151,-0.0201,9.6183,-1.8085,-0.3360,0.0007,-0.0004,0.0000,1.0000,0.2405,-0.0452,-0.0083
189991,Right,0,0.2279,-0.0162,-0.9442,0.2372,-0.0085,0.0029,0.0042,0.0016,0.0402,-0.0183,-4.1600,1.3239,8.7677,-0.0001,0.0000,0.0001,1.0000,-0.1040,0.0331,0.2192
189991,Left,0,0.2009,0.0151,-0.9708,-0.1302,0.0055,-0.0045,-0.0024,0.0149,0.0783,-0.0602,-3.7609,-0.8742,8.9560,0.0001,-0.0001,-0.0000,1.0000,-0.0940,-0.0219,0.2239
189991,Pelvis,0,-0.7165,0.0630,-0.6912,0.0694,0.0642,-0.0369,0.0038,-0.0406,0.0370,0.0625,9.6878,-1.8776,-0.3802,0.0008,-0.0005,0.0000,1.0000,0.2422,-0.0469,-0.0094
189992,Right,0,0.2278,-0.0161,-0.9442,0.2373,-0.0085,0.0039,0.0062,-0.0013,0.0516,-0.0121,-4.1635,1.3113,8.7750,-0.0001,0.0000,0.0001,1.0000,-0.1041,0.0328,0.2194
189992,Left,0,0.2007,0.0151,-0.9708,-0.1301,0.0076,-0.0044,0.0006,0.0072,0.0781,-0.0603,-3.7509,-0.8725,8.9602,0.0001,-0.0001,0.0000,1.0000,-0.0938,-0.0218,0.2240
189992,Pelvis,0,-0.7166,0.0624,-0.6911,0.0701,0.0747,-0.0273,0.0001,-0.0665,0.0266,0.0794,9.7050,-1.8721,-0.4092,0.0009,-0.0003,0.0000,1.0000,0.2426,-0.0468,-0.0102
189993,Right,0,0.2277,-0.0160,-0.9442,0.2375,-0.0073,0.0032,0.0056,0.0037,0.0560,0.0003,-4.1747,1.3102,8.7837,-0.0001,0.0000,0.0001,1.0000,-0.1044,0.0328,0.2196
189993,Left,0,0.2007,0.0152,-0.9708,-0.1302,0.0072,-0.0008,0.0018,0.0046,0.0661,-0.0593,-3.7513,-0.8611,8.9621,0.0001,-0.0000,0.0000,1.0000,-0.0938,-0.0215,0.2240
189993,Pelvis,0,-0.7167,0.0617,-0.6910,0.0708,0.0774,-0.0198,-0.0014,-0.0352,-0.0158,0.0588,9.6935,-1.8276,-0.3800,0.0010,-0.0002,-0.0000,1.0000,0.2423,-0.0457,-0.0095
189994,Right,0,0.2277,-0.0159,-0.9441,0.2378,-0.0075,0.0035,0.0093,-0.0013,0.0390,-0.0220,-4.1521,1.3186,8.7681,-0.0001,0.0000,0.0001,1.0000,-0.1038,0.0330,0.2192
189994,Left,0,0.2005,0.0151,-0.9709,-0.1301,0.0095,-0.0094,0.0006,0.0270,0.0703,-0.0599,-3.7673,-0.8695,8.9539,0.0001,-0.0001,0.0000,1.0000,-0.0942,-0.0218,0.2238
189994,Pelvis,0,-0.7168,0.0609,-0.6910,0.0715,0.0784,-0.0091,-0.0030,-0.0181,-0.0633,0.0354,9.6802,-1.7749,-0.3636,0.0010,-0.0001,-0.0000,1.0000,0.2420,-0.0444,-0.0091
189995,Right,0,0.2277,-0.0158,-0.9441,0.2379,-0.0085,0.0029,0.0042,-0.0116,0.0459,-0.0282,-4.1449,1.3062,8.7665,-0.0001,0.0000,0.0001,1.0000,-0.1036,0.0327,0.2192
189995,Left,0,0.2004,0.0152,-0.9709,-0.1301,0.0096,-0.0086,-0.0002,-0.0009,0.0747,-0.0507,-3.7416,-0.8679,8.9749,0.0001,-0.0001,-0.0000,1.0000,-0.0936,-0.0217,0.2244
189995,Pelvis,0,-0.7169,0.0602,-0.6908,0.0721,0.0705,-0.0149,-0.0031,-0.0675,-0.0272,0.0370,9.6731,-1.8117,-0.4132,0.0009,-0.0002,-0.0000,1.0000,0.2418,-0.0453,-0.0103
189996,Right,0,0.2277,-0.0156,-0.9440,0.2383,-0.0093,0.0078,0.0048,-0.0165,0.0568,-0.0220,-4.1489,1.2933,8.7736,-0.0001,0.0001,0.0001,1.0000,-0.1037,0.0324,0.2193
189996,Left,0,0.2002,0.0153,-0.9710,-0.1301,0.0054,-0.0113,-0.0004,-0.0029,0.0595,-0.0691,-3.7334,-0.8531,8.9596,0.0001,-0.0001,-0.0000,1.0000,-0.0934,-0.0213,0.2240
189996,Pelvis,0,-0.7169,0.0594,-0.6908,0.0729,0.0848,0.0008,-0.0124,-0.0461,0.1426,0.0209,9.6265,-1.9755,-0.3876,0.0011,0.0000,-0.0002,1.0000,0.2407,-0.0494,-0.0097
189997,Right,0,0.2277,-0.0153,-0.9439,0.2386,-0.0085,0.0076,0.0011,-0.0066,0.0588,-0.0182,-4.1600,1.2937,8.7724,-0.0001,0.0001,0.0000,1.0000,-0.1040,0.0324,0.2193
189997,Left,0,0.1999,0.0154,-0.9710,-0.1300,0.0054,-0.0097,-0.0011,-0.0133,0.0904,-0.0725,-3.7098,-0.8800,8.9634,0.0001,-0.0001,-0.0000,1.0000,-0.0928,-0.0220,0.2241
189997,Pelvis,0,-0.7168,0.0584,-0.6909,0.0737,0.1032,0.0055,-0.0129,-0.0264,0.1235,0.0366,9.6467,-1.9577,-0.3641,0.0013,0.0001,-0.0002,1.0000,0.2412,-0.0490,-0.0092
189998,Right,2,0.2277,-0.0152,-0.9439,0.2389,-0.0044,0.0069,0.0030,-0.0211,0.0823,0.0030,-4.1684,1.2679,8.7961,-0.0001,0.0001,0.0000,1.0000,-0.1042,0.0317,0.2199
189998,Left,2,0.1998,0.0155,-0.9710,-0.1300,0.0053,-0.0039,0.0007,0.0077,0.0901,-0.0925,-3.7184,-0.8856,8.9375,0.0001,-0.0000,0.0000,1.0000,-0.0930,-0.0222,0.2234
189998,Pelvis,2,-0.7167,0.0575,-0.6910,0.0745,0.0959,0.0040,-0.0101,0.0121,-0.0725,0.0509,9.6991,-1.7655,-0.3258,0.0012,0.0001,-0.0001,1.0000,0.2425,-0.0442,-0.0082
189999,Right,2,0.2277,-0.0152,-0.9438,0.2390,-0.0002,0.0068,0.0063,-0.0219,0.0683,-0.0070,-4.1573,1.2771,8.7888,-0.0000,0.0001,0.0001,1.0000,-0.1039,0.0319,0.2197
189999,Left,2,0.1997,0.0157,-0.9711,-0.1299,0.0059,-0.0016,-0.0003,-0.0158,0.0616,-0.0801,-3.7062,-0.8565,8.9586,0.0001,-0.0000,-0.0000,1.0000,-0.0927,-0.0214,0.2240
189999,Pelvis,2,-0.7165,0.0568,-0.6912,0.0751,0.0706,0.0080,-0.0113,0.0553,-0.1620,-0.0094,9.6585,-1.6644,-0.2779,0.0009,0.0001,-0.0001,1.0000,0.2415,-0.0416,-0.0070
190000,Right,2,0.2277,-0.0153,-0.9439,0.2388,0.0061,0.0039,0.0094,-0.0012,0.0875,0.0104,-4.1898,1.2734,8.7935,0.0001,0.0000,0.0001,1.0000,-0.1047,0.0318,0.2198
190000,Left,2,0.1997,0.0158,-0.9711,-0.1300,0.0074,-0.0014,-0.0014,0.0029,0.0563,-0.0603,-3.7310,-0.8595,8.9695,0.0001,-0.0000,-0.0000,1.0000,-0.0933,-0.0215,0.2242
190000,Pelvis,2,-0.7164,0.0565,-0.6913,0.0752,0.0337,0.0075,-0.0127,0.0836,-0.2515,-0.0660,9.6210,-1.5633,-0.2447,0.0004,0.0001,-0.0002,1.0000,0.2405,-0.0391,-0.0062
190001,Right,2,0.2277,-0.0155,-0.9439,0.2389,0.0091,-0.0027,0.0106,0.0050,0.0708,-0.0170,-4.1750,1.2894,8.7675,0.0001,-0.0000,0.0001,1.0000,-0.1044,0.0322,0.2192
190001,Left,2,0.1996,0.0157,-0.9711,-0.1301,0.0101,0.0011,-0.0002,-0.0090,0.0865,-0.0733,-3.7063,-0.8838,8.9636,0.0001,0.0000,-0.0000,1.0000,-0.0927,-0.0221,0.2241
190001,Pelvis,2,-0.7163,0.0565,-0.6915,0.0751,-0.0036,0.0136,-0.0114,0.0606,-0.2396,-0.0165,9.6669,-1.5834,-0.2654,-0.0000,0.0002,-0.0001,1.0000,0.2417,-0.0396,-0.0067
190002,Right,2,0.2276,-0.0157,-0.9438,0.2389,0.0139,-0.0029,0.0133,0.0096,0.0757,-0.0046,-4.1846,1.2932,8.7762,0.0002,-0.0000,0.0002,1.0000,-0.1046,0.0323,0.2194
190002,Left,2,0.1996,0.0156,-0.9711,-0.1302,0.0121,0.0071,0.0025,0.0010,0.0824,-0.0731,-3.7163,-0.8816,8.9598,0.0002,0.0001,0.0000,1.0000,-0.0929,-0.0221,0.2240
190002,Pelvis,2,-0.7159,0.0568,-0.6918,0.0747,-0.0406,0.0457,-0.0114,0.1066,-0.2969,0.0633,9.7580,-1.5391,-0.2185,-0.0005,0.0006,-0.0001,1.0000,0.2439,-0.0385,-0.0056
190003,Right,2,0.2276,-0.0160,-0.9438,0.2390,0.0176,-0.0033,0.0134,-0.0044,0.0620,-0.0095,-4.1626,1.3033,8.7795,0.0002,-0.0000,0.0002,1.0000,-0.1041,0.0325,0.2195
190003,Left,2,0.1996,0.0156,-0.9711,-0.1301,0.0135,0.0094,0.0038,-0.0171,0.0852,-0.0540,-3.7071,-0.8812,8.9845,0.0002,0.0001,0.0000,1.0000,-0.0926,-0.0221,0.2246
190003,Pelvis,2,-0.7157,0.0575,-0.6922,0.0738,-0.0907,0.0477,-0.0110,0.0950,-0.2964,0.0962,9.7906,-1.5419,-0.2232,-0.0011,0.0006,-0.0001,1.0000,0.2448,-0.0386,-0.0057
190004,Right,2,0.2275,-0.0163,-0.9438,0.2392,0.0172,-0.0054,0.0169,0.0131,0.0625,-0.0232,-4.1685,1.3147,8.7597,0.0002,-0.0001,0.0002,1.0000,-0.1042,0.0328,0.2190
190004,Left,2,0.1997,0.0156,-0.9711,-0.1300,0.0155,0.0110,0.0070,0.0183,0.1045,-0.0564,-3.7336,-0.9074,8.9684,0.0002,0.0001,0.0001,1.0000,-0.0933,-0.0227,0.2242
190004,Pelvis,2,-0.7153,0.0584,-0.6926,0.0725,-0.1273,0.0635,-0.0162,0.0310,-0.2515,0.0202,9.7065,-1.5681,-0.2753,-0.0016,0.0008,-0.0002,1.0000,0.2426,-0.0393,-0.0070
190005,Right,2,0.2275,-0.0166,-0.9437,0.2395,0.0153,-0.0058,0.0161,-0.0129,0.0443,0.0003,-4.1472,1.3287,8.7939,0.0002,-0.0001,0.0002,1.0000,-0.1037,0.0332,0.2198
190005,Left,2,0.1998,0.0155,-0.9711,-0.1300,0.0159,0.0095,0.0074,0.0314,0.0673,-0.0726,-3.7502,-0.8718,8.9471,0.0002,0.0001,0.0001,1.0000,-0.0937,-0.0218,0.2237
190005,Pelvis,2,-0.7148,0.0595,-0.6931,0.0709,-0.1489,0.0764,-0.0194,0.0161,-0.1300,0.0245,9.6892,-1.6822,-0.2778,-0.0019,0.0010,-0.0002,1.0000,0.2422,-0.0421,-0.0071
190006,Right,2,0.2274,-0.0168,-0.9437,0.2398,0.0146,-0.0075,0.0159,-0.0154,0.0691,0.0165,-4.1606,1.3131,8.8082,0.0002,-0.0001,0.0002,1.0000,-0.1040,0.0328,0.2202
190006,Left,2,0.1997,0.0154,-0.9711,-0.1299,0.0180,0.0046,0.0065,0.0154,0.0785,-0.0641,-3.7363,-0.8779,8.9616,0.0002,0.0001,0.0001,1.0000,-0.0934,-0.0220,0.2240
190006,Pelvis,2,-0.7142,0.0607,-0.6938,0.0693,-0.1566,0.0897,-0.0195,0.0175,-0.0748,0.0084,9.6648,-1.7271,-0.2615,-0.0020,0.0011,-0.0002,1.0000,0.2416,-0.0433,-0.0067
190007,Right,2,0.2273,-0.0171,-0.9437,0.2399,0.0142,-0.0102,0.0181,0.0036,0.0547,-0.0158,-4.1519,1.3352,8.7727,0.0002,-0.0001,0.0002,1.0000,-0.1038,0.0333,0.2193
190007,Left,2,0.1996,0.0154,-0.9711,-0.1299,0.0182,0.0003,0.0040,-0.0074,0.0591,-0.0722,-3.7174,-0.8516,8.9631,0.0002,0.0000,0.0000,1.0000,-0.0929,-0.0213,0.2241
190007,Pelvis,2,-0.7137,0.0620,-0.6944,0.0677,-0.1623,0.0832,-0.0097,-0.0320,-0.0542,-0.0161,9.6368,-1.7383,-0.2968,-0.0020,0.0010,-0.0001,1.0000,0.2409,-0.0435,-0.0076
190008,Right,2,0.2271,-0.0174,-0.9437,0.2399,0.0127,-0.0126,0.0184,-0.0151,0.0737,-0.0070,-4.1452,1.3153,8.7889,0.0002,-0.0002,0.0002,1.0000,-0.1037,0.0328,0.2197
190008,Left,2,0.1995,0.0153,-0.9711,-0.1298,0.0166,0.0016,0.0029,-0.0107,0.0757,-0.0840,-3.7030,-0.8644,8.9551,0.0002,0.0000,0.0000,1.0000,-0.0926,-0.0217,0.2239
190008,Pelvis,2,-0.7132,0.0633,-0.6949,0.0662,-0.1603,0.0785,-0.0006,-0.0545,0.0088,-0.0476,9.5948,-1.7902,-0.3077,-0.0020,0.0010,-0.0000,1.0000,0.2399,-0.0448,-0.0078
190009,Right,2,0.2268,-0.0176,-0.9437,0.2401,0.0144,-0.0145,0.0176,0.0063,0.0272,-0.0444,-4.1192,1.3652,8.7515,0.0002,-0.0002,0.0002,1.0000,-0.1030,0.0341,0.2188
190009,Left,2,0.1995,0.0152,-0.9712,-0.1298,0.0156,0.0015,0.0036,-0.0004,0.0746,-0.0547,-3.7231,-0.8661,8.9785,0.0002,0.0000,0.0000,1.0000,-0.0931,-0.0217,0.2245
190009,Pelvis,2,-0.7127,0.0647,-0.6955,0.0648,-0.1553,0.0723,0.0028,-0.0608,-0.0034,-0.0182,9.6263,-1.7827,-0.3033,-0.0019,0.0009,0.0000,1.0000,0.2407,-0.0446,-0.0077
190010,Right,2,0.2267,-0.0178,-0.9437,0.2401,0.0088,-0.0095,0.0167,-0.0128,0.0521,-0.0145,-4.1240,1.3431,8.7861,0.0001,-0.0001,0.0002,1.0000,-0.1031,0.0335,0.2196
190010,Left,2,0.1994,0.0151,-0.9712,-0.1297,0.0164,0.0051,0.0076,-0.0073,0.0825,-0.0752,-3.7068,-0.8677,8.9628,0.0002,0.0001,0.0001,1.0000,-0.0927,-0.0217,0.2241
190010,Pelvis,2,-0.7124,0.0660,-0.6958,0.0634,-0.1560,0.0659,0.0023,-0.0288,-0.0415,0.0329,9.6848,-1.7525,-0.2654,-0.0019,0.0008,0.0000,1.0000,0.2421,-0.0438,-0.0067
190011,Right,2,0.2265,-0.0179,-0.9436,0.2407,0.0091,-0.0068,0.0145,-0.0050,0.0409,-0.0208,-4.1187,1.3579,8.7792,0.0001,-0.0001,0.0002,1.0000,-0.1030,0.0339,0.2195
190011,Left,2,0.1994,0.0151,-0.9712,-0.1296,0.0177,0.0066,0.0097,-0.0011,0.0984,-0.0674,-3.7098,-0.8840,8.9687,0.0002,0.0001,0.0001,1.0000,-0.0927,-0.0222,0.2242
190011,Pelvis,2,-0.7120,0.0674,-0.6962,0.0621,-0.1481,0.0598,0.0046,-0.0499,-0.0136,0.0369,9.6835,-1.7803,-0.2782,-0.0019,0.0007,0.0001,1.0000,0.2421,-0.0445,-0.0071
190012,Right,2,0.2264,-0.0181,-0.9437,0.2405,0.0049,-0.0063,0.0138,0.0163,0.0709,-0.0381,-4.1394,1.3409,8.7530,0.0001,-0.0001,0.0002,1.0000,-0.1035,0.0335,0.2188
190012,Pelvis,2,-0.7116,0.0686,-0.6966,0.0609,-0.1394,0.0582,0.0038,-0.0832,0.0694,-0.0008,9.6309,-1.8539,-0.3043,-0.0017,0.0007,0.0000,1.0000,0.2408,-0.0463,-0.0077
190013,Right,2,0.2263,-0.0182,-0.9438,0.2404,0.0039,-0.0048,0.0126,-0.0245,0.0698,-0.0144,-4.1135,1.3292,8.7934,0.0000,-0.0001,0.0002,1.0000,-0.1029,0.0332,0.2198
190013,Left,2,0.1995,0.0149,-0.9712,-0.1294,0.0152,0.0133,0.0113,-0.0147,0.0747,-0.0850,-3.6998,-0.8541,8.9563,0.0004,0.0003,0.0003,1.0000,-0.1848,-0.0429,0.4479
190013,Pelvis,2,-0.7113,0.0695,-0.6969,0.0598,-0.1202,0.0578,0.0052,-0.0723,0.1147,0.0088,9.6330,-1.8980,-0.2884,-0.0015,0.0007,0.0001,1.0000,0.2408,-0.0474,-0.0073
190014,Right,2,0.2262,-0.0184,-0.9438,0.2403,0.0047,-0.0030,0.0116,-0.0067,0.0749,-0.0070,-4.1313,1.3356,8.7924,0.0001,-0.0000,0.0001,1.0000,-0.1033,0.0334,0.2198
190014,Left,2,0.1997,0.0148,-0.9712,-0.1293,0.0156,0.0159,0.0123,-0.0017,0.0824,-0.0372,-3.7307,-0.8659,8.9944,0.0002,0.0002,0.0002,1.0000,-0.0932,-0.0217,0.2249
190014,Pelvis,2,-0.7110,0.0704,-0.6972,0.0590,-0.0968,0.0533,0.0061,-0.0670,0.0749,0.0672,9.6980,-1.8695,-0.2780,-0.0012,0.0007,0.0001,1.0000,0.2424,-0.0467,-0.0071
190015,Right,2,0.2262,-0.0185,-0.9438,0.2403,0.0048,-0.0023,0.0111,-0.0221,0.0777,-0.0256,-4.1121,1.3263,8.7821,0.0001,-0.0000,0.0001,1.0000,-0.1028,0.0331,0.2196
190015,Left,2,0.1997,0.0148,-0.9712,-0.1290,0.0132,0.0121,0.0093,0.0197,0.0725,-0.0563,-3.7451,-0.8591,8.9682,0.0002,0.0002,0.0001,1.0000,-0.0936,-0.0215,0.2242
190015,Pelvis,2,-0.7107,0.0711,-0.6975,0.0582,-0.0881,0.0469,0.0045,-0.0335,-0.0064,0.0464,9.6931,-1.7864,-0.2360,-0.0011,0.0006,0.0001,1.0000,0.2423,-0.0447,-0.0060
190016,Right,2,0.2262,-0.0186,-0.9438,0.2404,0.0061,-0.0014,0.0131,-0.0228,0.0755,0.0067,-4.1221,1.3343,8.8122,0.0001,-0.0000,0.0002,1.0000,-0.1031,0.0333,0.2203
190016,Pelvis,2,-0.7106,0.0718,-0.6976,0.0575,-0.0879,0.0271,0.0031,-0.0250,-0.0256,-0.0353,9.6167,-1.7517,-0.2222,-0.0011,0.0003,0.0000,1.0000,0.2404,-0.0438,-0.0056
190017,Right,2,0.2260,-0.0188,-0.9439,0.2400,0.0081,-0.0002,0.0109,-0.0174,0.0454,-0.0306,-4.0944,1.3593,8.7795,0.0001,-0.0000,0.0001,1.0000,-0.1024,0.0339,0.2195
190017,Left,2,0.1996,0.0147,-0.9712,-0.1289,0.0153,0.0075,0.0084,-0.0068,0.0768,-0.0766,-3.7137,-0.8531,8.9598,0.0004,0.0002,0.0002,1.0000,-0.1856,-0.0429,0.4480
190017,Pelvis,2,-0.7104,0.0724,-0.6977,0.0568,-0.0807,0.0269,0.0018,-0.0069,0.0448,-0.0421,9.5977,-1.8190,-0.2030,-0.0010,0.0003,0.0000,1.0000,0.2399,-0.0455,-0.0051
190018,Right,2,0.2260,-0.0190,-0.9439,0.2399,0.0072,0.0020,0.0086,-0.0202,0.0800,-0.0169,-4.1117,1.3322,8.7911,0.0001,0.0000,0.0001,1.0000,-0.1028,0.0333,0.2198
190018,Left,2,0.1997,0.0148,-0.9712,-0.1289,0.0117,0.0105,0.0080,0.0062,0.0837,-0.0681,-3.7279,-0.8637,8.9622,0.0001,0.0001,0.0001,1.0000,-0.0932,-0.0216,0.2241
190018,Pelvis,2,-0.7104,0.0730,-0.6977,0.0562,-0.0723,0.0185,0.0023,-0.0012,0.0523,0.0230,9.6605,-1.8378,-0.1991,-0.0009,0.0002,0.0000,1.0000,0.2415,-0.0459,-0.0050
190019,Right,2,0.2260,-0.0191,-0.9439,0.2400,0.0080,0.0037,0.0094,-0.0034,0.0569,-0.0381,-4.1049,1.3593,8.7663,0.0001,0.0000,0.0001,1.0000,-0.1026,0.0339,0.2192
190019,Left,2,0.1998,0.0147,-0.9712,-0.1287,0.0128,0.0164,0.0105,0.0024,0.1016,-0.0701,-3.7200,-0.8789,8.9620,0.0002,0.0002,0.0001,1.0000,-0.0930,-0.0220,0.2241
190019,Pelvis,2,-0.7102,0.0736,-0.6979,0.0556,-0.0631,0.0325,-0.0017,-0.0050,0.0873,0.0884,9.7184,-1.8839,-0.2027,-0.0008,0.0004,-0.0000,1.0000,0.2430,-0.0471,-0.0051
190020,Right,2,0.2261,-0.0192,-0.9439,0.2400,0.0067,0.0083,0.0086,-0.0023,0.0620,-0.0170,-4.1176,1.3601,8.7838,0.0001,0.0001,0.0001,1.0000,-0.1029,0.0340,0.2196
190020,Left,2,0.1999,0.0146,-0.9712,-0.1286,0.0128,0.0164,0.0105,0.0019,0.0892,-0.0788,-3.7214,-0.8638,8.9533,0.0002,0.0002,0.0001,1.0000,-0.0930,-0.0216,0.2238
190020,Pelvis,2,-0.7100,0.0739,-0.6981,0.0551,-0.0519,0.0280,-0.0042,-0.0177,0.0645,0.0887,9.7233,-1.8589,-0.2110,-0.0006,0.0004,-0.0001,1.0000,0.2431,-0.0465,-0.0053
190021,Right,2,0.2261,-0.0193,-0.9439,0.2398,0.0063,0.0103,0.0069,0.0065,0.0742,-0.0157,-4.1308,1.3551,8.7799,0.0001,0.0001,0.0001,1.0000,-0.1032,0.0339,0.2195
190021,Left,2,0.2001,0.0145,-0.9712,-0.1285,0.0154,0.0158,0.0131,0.0117,0.0873,-0.0592,-3.7414,-0.8633,8.9663,0.0002,0.0002,0.0002,1.0000,-0.0935,-0.0216,0.2242
190021,Pelvis,2,-0.7098,0.0742,-0.6983,0.0547,-0.0399,0.0287,0.0010,0.0158,0.0377,0.0224,9.6638,-1.8204,-0.1716,-0.0005,0.0004,0.0000,1.0000,0.2416,-0.0455,-0.0044
190022,Right,2,0.2262,-0.0194,-0.9439,0.2399,0.0071,0.0063,0.0090,0.0053,0.0844,-0.0182,-4.1343,1.3480,8.7767,0.0001,0.0001,0.0001,1.0000,-0.1033,0.0337,0.2194
190022,Left,2,0.1999,0.0144,-0.9713,-0.1282,0.0176,0.0087,0.0121,0.0299,0.0503,-0.0659,-3.7620,-0.8287,8.9535,0.0002,0.0001,0.0002,1.0000,-0.0940,-0.0208,0.2238
190022,Pelvis,2,-0.7098,0.0745,-0.6983,0.0545,-0.0372,0.0179,0.0110,0.0253,0.0247,-0.0820,9.5634,-1.7896,-0.1580,-0.0005,0.0002,0.0001,1.0000,0.2391,-0.0447,-0.0040
190023,Right,2,0.2261,-0.0196,-0.9439,0.2397,0.0104,0.0044,0.0121,-0.0023,0.0972,-0.0032,-4.1392,1.3378,8.7927,0.0001,0.0001,0.0002,1.0000,-0.1035,0.0334,0.2198
190023,Left,2,0.1998,0.0143,-0.9713,-0.1281,0.0176,0.0022,0.0089,0.0039,0.0619,-0.0769,-3.7317,-0.8305,8.9540,0.0002,0.0000,0.0001,1.0000,-0.0933,-0.0208,0.2238
190023,Pelvis,2,-0.7096,0.0747,-0.6985,0.0544,-0.0265,0.0257,0.0133,0.0274,0.0096,-0.0789,9.5691,-1.7767,-0.1524,-0.0003,0.0003,0.0002,1.0000,0.2392,-0.0444,-0.0039
190024,Right,2,0.2261,-0.0198,-0.9439,0.2397,0.0097,0.0033,0.0119,0.0192,0.0784,-0.0121,-4.1432,1.3659,8.7765,0.0001,0.0000,0.0001,1.0000,-0.1036,0.0341,0.2194
190024,Pelvis,2,-0.7096,0.0750,-0.6985,0.0544,-0.0239,0.0151,0.0194,0.0715,-0.0760,-0.0674,9.5960,-1.6989,-0.1049,-0.0003,0.0002,0.0002,1.0000,0.2399,-0.0424,-0.0027
190025,Right,2,0.2262,-0.0199,-0.9439,0.2400,0.0112,0.0010,0.0142,-0.0107,0.0727,-0.0144,-4.1157,1.3613,8.7874,0.0001,0.0000,0.0002,1.0000,-0.1029,0.0340,0.2197
190025,Left,2,0.1997,0.0142,-0.9714,-0.1280,0.0164,0.0032,0.0072,-0.0034,0.0684,-0.0877,-3.7193,-0.8313,8.9474,0.0004,0.0001,0.0002,1.0000,-0.1859,-0.0418,0.4474
190025,Pelvis,2,-0.7096,0.0755,-0.6985,0.0543,-0.0358,0.0055,0.0230,0.0747,-0.1473,0.0105,9.6848,-1.6481,-0.1008,-0.0004,0.0001,0.0003,1.0000,0.2421,-0.0411,-0.0025
190026,Right,2,0.2262,-0.0200,-0.9437,0.2404,0.0078,0.0034,0.0131,0.0061,0.0723,-0.0281,-4.1231,1.3707,8.7672,0.0001,0.0000,0.0002,1.0000,-0.1031,0.0342,0.2192
190026,Left,2,0.1997,0.0141,-0.9714,-0.1277,0.0167,0.0139,0.0092,-0.0049,0.0852,-0.0798,-3.7144,-0.8452,8.9568,0.0002,0.0002,0.0001,1.0000,-0.0928,-0.0212,0.2239
190026,Pelvis,2,-0.7096,0.0760,-0.6984,0.0542,-0.0408,0.0046,0.0224,0.0496,-0.1239,0.0504,9.7186,-1.6824,-0.1281,-0.0005,0.0001,0.0003,1.0000,0.2430,-0.0420,-0.0032
190027,Right,2,0.2261,-0.0202,-0.9438,0.2402,0.0081,0.0002,0.0134,-0.0086,0.0726,-0.0144,-4.1157,1.3679,8.7864,0.0001,0.0000,0.0002,1.0000,-0.1029,0.0342,0.2197
190027,Left,2,0.1999,0.0139,-0.9713,-0.1279,0.0165,0.0146,0.0101,0.0137,0.0811,-0.0601,-3.7430,-0.8447,8.9663,0.0002,0.0002,0.0001,1.0000,-0.0935,-0.0212,0.2242
190027,Pelvis,2,-0.7096,0.0765,-0.6984,0.0540,-0.0376,0.0024,0.0147,0.0252,-0.0775,0.0937,9.7515,-1.7395,-0.1564,-0.0005,0.0000,0.0002,1.0000,0.2438,-0.0434,-0.0039
190028,Right,2,0.2261,-0.0203,-0.9438,0.2402,0.0057,-0.0004,0.0095,-0.0022,0.0940,-0.0156,-4.1287,1.3540,8.7813,0.0001,-0.0000,0.0001,1.0000,-0.1032,0.0338,0.2195
190028,Left,2,0.1999,0.0139,-0.9714,-0.1277,0.0144,0.0114,0.0099,0.0078,0.0878,-0.0709,-3.7325,-0.8479,8.9588,0.0002,0.0001,0.0001,1.0000,-0.0933,-0.0212,0.2240
190028,Pelvis,2,-0.7096,0.0767,-0.6984,0.0539,-0.0264,0.0053,0.0075,0.0346,-0.0434,0.0251,9.6776,-1.7629,-0.1479,-0.0003,0.0001,0.0001,1.0000,0.2419,-0.0441,-0.0037
190029,Right,2,0.2260,-0.0204,-0.9438,0.2403,0.0062,-0.0006,0.0113,0.0067,0.0742,-0.0194,-4.1232,1.3770,8.7759,0.0001,-0.0000,0.0001,1.0000,-0.1031,0.0344,0.2194
190029,Left,2,0.2000,0.0139,-0.9713,-0.1278,0.0121,0.0127,0.0078,0.0265,0.0798,-0.0706,-3.7535,-0.8449,8.9506,0.0002,0.0002,0.0001,1.0000,-0.0938,-0.0212,0.2238
190029,Pelvis,2,-0.7096,0.0767,-0.6984,0.0538,-0.0113,0.0043,0.0019,0.0488,-0.0117,0.0019,9.6490,-1.7910,-0.1340,-0.0001,0.0001,0.0000,1.0000,0.2412,-0.0448,-0.0034
190030,Right,2,0.2260,-0.0205,-0.9438,0.2403,0.0032,-0.0002,0.0100,-0.0009,0.0722,-0.0231,-4.1133,1.3770,8.7764,0.0000,-0.0000,0.0001,1.0000,-0.1028,0.0344,0.2194
190030,Left,2,0.1999,0.0139,-0.9714,-0.1277,0.0106,0.0096,0.0073,0.0080,0.0711,-0.0699,-3.7391,-0.8312,8.9585,0.0001,0.0001,0.0001,1.0000,-0.0934,-0.0208,0.2240
190030,Pelvis,2,-0.7096,0.0766,-0.6983,0.0539,0.0031,0.0000,0.0012,0.0718,-0.0691,0.0467,9.7041,-1.7426,-0.1113,0.0000,0.0000,0.0000,1.0000,0.2426,-0.0436,-0.0028
190031,Right,2,0.2259,-0.0206,-0.9438,0.2402,0.0016,0.0008,0.0082,-0.0008,0.0820,-0.0256,-4.1150,1.3691,8.7742,0.0000,0.0000,0.0001,1.0000,-0.1029,0.0342,0.2194
190031,Left,2,0.2000,0.0140,-0.9713,-0.1277,0.0092,0.0066,0.0059,0.0186,0.0733,-0.0901,-3.7419,-0.8351,8.9350,0.0001,0.0001,0.0001,1.0000,-0.0935,-0.0209,0.2234
190031,Pelvis,2,-0.7097,0.0765,-0.6983,0.0540,0.0074,-0.0039,0.0013,0.0629,-0.0711,0.0372,9.6951,-1.7382,-0.1210,0.0001,-0.0000,0.0000,1.0000,0.2424,-0.0435,-0.0030
190032,Right,2,0.2258,-0.0206,-0.9439,0.2402,0.0003,0.0009,0.0088,-0.0103,0.0769,0.0030,-4.1162,1.3738,8.8047,0.0000,0.0000,0.0001,1.0000,-0.1029,0.0343,0.2201
190032,Left,2,0.2000,0.0141,-0.9714,-0.1275,0.0082,0.0066,0.0043,-0.0107,0.0672,-0.0701,-3.7245,-0.8252,8.9649,0.0001,0.0001,0.0001,1.0000,-0.0931,-0.0207,0.2241
190032,Pelvis,2,-0.7098,0.0763,-0.6981,0.0542,0.0136,-0.0071,0.0002,0.0364,-0.0079,0.0188,9.6649,-1.7962,-0.1520,0.0002,-0.0001,0.0000,1.0000,0.2416,-0.0449,-0.0038
190033,Right,2,0.2258,-0.0207,-0.9439,0.2402,0.0001,-0.0010,0.0098,0.0024,0.0871,-0.0045,-4.1262,1.3695,8.7924,0.0000,-0.0000,0.0001,1.0000,-0.1032,0.0342,0.2198
190033,Left,2,0.2001,0.0142,-0.9714,-0.1275,0.0076,0.0051,0.0032,0.0116,0.0779,-0.0716,-3.7420,-0.8431,8.9544,0.0001,0.0001,0.0000,1.0000,-0.0935,-0.0211,0.2239
190033,Pelvis,2,-0.7100,0.0759,-0.6980,0.0545,0.0282,-0.0103,-0.0038,0.0312,0.0283,0.0256,9.6650,-1.8316,-0.1608,0.0004,-0.0001,-0.0000,1.0000,0.2416,-0.0458,-0.0040
190034,Right,2,0.2257,-0.0208,-0.9439,0.2403,0.0085,-0.0027,0.0112,-0.0011,0.1374,-0.0043,-4.1458,1.3251,8.7909,0.0001,-0.0000,0.0001,1.0000,-0.1037,0.0331,0.2198
190034,Left,2,0.2001,0.0142,-0.9713,-0.1275,0.0070,0.0028,0.0020,0.0111,0.0767,-0.0619,-3.7465,-0.8428,8.9631,0.0001,0.0000,0.0000,1.0000,-0.0937,-0.0211,0.2241
190034,Pelvis,2,-0.7100,0.0753,-0.6980,0.0549,0.0457,-0.0087,-0.0083,0.0399,0.0886,0.0612,9.6895,-1.8954,-0.1557,0.0006,-0.0001,-0.0001,1.0000,0.2422,-0.0474,-0.0039
190035,Right,2,0.2256,-0.0210,-0.9439,0.2402,0.0119,-0.0035,0.0150,-0.0029,0.1074,-0.0007,-4.1293,1.3546,8.7978,0.0001,-0.0000,0.0002,1.0000,-0.1032,0.0338,0.2199
190035,Left,2,0.2001,0.0142,-0.9713,-0.1275,0.0075,-0.0000,0.0001,-0.0059,0.0885,-0.0727,-3.7243,-0.8483,8.9602,0.0001,-0.0000,0.0000,1.0000,-0.0931,-0.0212,0.2240
190035,Pelvis,2,-0.7101,0.0744,-0.6979,0.0555,0.0732,-0.0049,-0.0129,0.0284,0.1601,0.0455,9.6615,-1.9593,-0.1699,0.0009,-0.0001,-0.0002,1.0000,0.2415,-0.0490,-0.0043
190036,Right,2,0.2255,-0.0213,-0.9439,0.2403,0.0169,-0.0084,0.0153,-0.0001,0.0985,0.0018,-4.1256,1.3686,8.8000,0.0002,-0.0001,0.0002,1.0000,-0.1032,0.0341,0.2200
190036,Left,2,0.2000,0.0143,-0.9714,-0.1274,0.0046,0.0035,-0.0015,-0.0141,0.0866,-0.0922,-3.7084,-0.8433,8.9460,0.0001,0.0000,-0.0000,1.0000,-0.0927,-0.0211,0.2237
190036,Pelvis,2,-0.7101,0.0731,-0.6980,0.0564,0.1087,-0.0084,-0.0144,0.0308,0.1526,0.0845,9.7022,-1.9542,-0.1637,0.0014,-0.0001,-0.0002,1.0000,0.2425,-0.0489,-0.0041
190037,Right,2,0.2253,-0.0216,-0.9439,0.2403,0.0201,-0.0142,0.0143,-0.0003,0.0695,-0.0268,-4.0964,1.3943,8.7775,0.0003,-0.0002,0.0002,1.0000,-0.1025,0.0348,0.2194
190037,Left,2,0.2001,0.0143,-0.9714,-0.1274,0.0060,0.0065,-0.0001,0.0146,0.0816,-0.0530,-3.7510,-0.8500,8.9703,0.0001,0.0001,-0.0000,1.0000,-0.0938,-0.0213,0.2243
190037,Pelvis,2,-0.7103,0.0716,-0.6979,0.0576,0.1337,-0.0196,-0.0086,0.0375,0.1359,0.1037,9.7252,-1.9371,-0.1552,0.0017,-0.0002,-0.0001,1.0000,0.2431,-0.0484,-0.0039
190038,Right,2,0.2252,-0.0218,-0.9439,0.2404,0.0102,-0.0097,0.0112,0.0157,0.0300,-0.0345,-4.0833,1.4401,8.7674,0.0001,-0.0001,0.0001,1.0000,-0.1021,0.0360,0.2192
190038,Left,2,0.2000,0.0144,-0.9714,-0.1274,0.0042,-0.0002,-0.0036,0.0146,0.0765,-0.0724,-3.7445,-0.8457,8.9523,0.0001,-0.0000,-0.0000,1.0000,-0.0936,-0.0212,0.2238
190038,Pelvis,2,-0.7102,0.0701,-0.6980,0.0589,0.1534,-0.0057,-0.0120,0.0959,0.0631,-0.0058,9.6323,-1.8440,-0.0900,0.0019,-0.0001,-0.0002,1.0000,0.2408,-0.0461,-0.0023
190039,Right,2,0.2251,-0.0219,-0.9440,0.2402,0.0028,-0.0044,0.0096,-0.0050,0.0532,-0.0491,-4.0683,1.4102,8.7630,0.0000,-0.0001,0.0001,1.0000,-0.1017,0.0352,0.2191
190039,Left,2,0.1999,0.0146,-0.9714,-0.1275,0.0025,-0.0033,-0.0033,0.0158,0.0737,-0.0626,-3.7476,-0.8469,8.9614,0.0000,-0.0000,-0.0000,1.0000,-0.0937,-0.0212,0.2240
190039,Pelvis,2,-0.7102,0.0685,-0.6980,0.0602,0.1676,-0.0069,-0.0194,0.0782,0.0563,-0.0247,9.6150,-1.8316,-0.1031,0.0021,-0.0001,-0.0002,1.0000,0.2404,-0.0458,-0.0027
190040,Right,2,0.2250,-0.0220,-0.9440,0.2403,0.0022,-0.0044,0.0101,0.0122,0.0728,-0.0231,-4.0996,1.4051,8.7783,0.0000,-0.0001,0.0001,1.0000,-0.1025,0.0351,0.2195
190040,Left,2,0.1997,0.0148,-0.9714,-0.1275,0.0024,-0.0107,-0.0035,0.0276,0.0779,-0.0634,-3.7540,-0.8567,8.9571,0.0000,-0.0001,-0.0000,1.0000,-0.0939,-0.0214,0.2239
190040,Pelvis,2,-0.7101,0.0667,-0.6982,0.0616,0.1772,0.0028,-0.0263,0.0961,0.0006,0.0040,9.6547,-1.7764,-0.0787,0.0022,0.0000,-0.0003,1.0000,0.2414,-0.0445,-0.0021
190041,Right,2,0.2248,-0.0220,-0.9441,0.2402,-0.0032,-0.0026,0.0101,0.0034,0.0800,-0.0293,-4.0910,1.3945,8.7773,-0.0000,-0.0000,0.0001,1.0000,-0.1023,0.0349,0.2194
190041,Left,2,0.1994,0.0149,-0.9715,-0.1275,0.0021,-0.0158,-0.0057,0.0011,0.0836,-0.0442,-3.7310,-0.8587,8.9873,0.0000,-0.0002,-0.0001,1.0000,-0.0933,-0.0215,0.2247
190041,Pelvis,2,-0.7101,0.0648,-0.6983,0.0629,0.1742,-0.0021,-0.0286,0.0846,-0.0471,0.0303,9.6903,-1.7277,-0.0837,0.0022,-0.0000,-0.0004,1.0000,0.2422,-0.0433,-0.0022
190042,Right,2,0.2247,-0.0221,-0.9442,0.2399,-0.0047,-0.0007,0.0059,-0.0062,0.0959,-0.0378,-4.0848,1.3737,8.7741,-0.0001,-0.0000,0.0001,1.0000,-0.1021,0.0343,0.2193
190042,Left,2,0.1990,0.0151,-0.9716,-0.1274,0.0077,-0.0175,-0.0065,0.0254,0.0839,-0.0643,-3.7370,-0.8653,8.9624,0.0001,-0.0002,-0.0001,1.0000,-0.0935,-0.0216,0.2240
190042,Pelvis,2,-0.7100,0.0632,-0.6984,0.0642,0.1626,-0.0029,-0.0226,0.0704,-0.0471,-0.0245,9.6373,-1.7116,-0.0914,0.0020,-0.0000,-0.0003,1.0000,0.2409,-0.0429,-0.0024
190043,Right,2,0.2246,-0.0221,-0.9442,0.2398,-0.0029,-0.0005,0.0078,-0.0070,0.0882,-0.0267,-4.0835,1.3810,8.7859,-0.0000,-0.0000,0.0001,1.0000,-0.1021,0.0345,0.2196
190043,Left,2,0.1987,0.0153,-0.9716,-0.1274,0.0070,-0.0175,-0.0076,-0.0409,0.0916,-0.0844,-3.6626,-0.8583,8.9721,0.0001,-0.0002,-0.0001,1.0000,-0.0916,-0.0215,0.2243
190043,Pelvis,2,-0.7099,0.0615,-0.6985,0.0656,0.1678,0.0022,-0.0158,0.0207,-0.0105,0.0065,9.6613,-1.7486,-0.1347,0.0021,0.0000,-0.0002,1.0000,0.2415,-0.0438,-0.0035
190044,Right,2,0.2246,-0.0220,-0.9441,0.2402,-0.0034,0.0007,0.0086,-0.0040,0.1023,-0.0167,-4.0958,1.3721,8.7928,-0.0000,0.0000,0.0001,1.0000,-0.1024,0.0343,0.2198
190044,Left,2,0.1985,0.0155,-0.9717,-0.1272,0.0050,-0.0047,0.0002,-0.0329,0.1159,-0.0870,-3.6570,-0.8861,8.9691,0.0001,-0.0001,0.0000,1.0000,-0.0914,-0.0222,0.2242
190044,Pelvis,2,-0.7098,0.0600,-0.6986,0.0669,0.1640,-0.0051,-0.0112,-0.0153,0.0020,0.0305,9.6826,-1.7632,-0.1648,0.0021,-0.0001,-0.0001,1.0000,0.2421,-0.0441,-0.0042
190045,Right,2,0.2246,-0.0220,-0.9441,0.2403,-0.0037,0.0023,0.0056,-0.0103,0.0905,-0.0180,-4.0844,1.3792,8.7955,-0.0000,0.0000,0.0001,1.0000,-0.1021,0.0345,0.2199
190045,Left,2,0.1985,0.0156,-0.9717,-0.1271,0.0053,0.0062,0.0055,-0.0339,0.1027,-0.0763,-3.6618,-0.8767,8.9795,0.0001,0.0001,0.0001,1.0000,-0.0915,-0.0219,0.2245
190045,Pelvis,2,-0.7098,0.0584,-0.6986,0.0683,0.1679,-0.0106,-0.0161,-0.0101,-0.0174,0.0206,9.6768,-1.7402,-0.1545,0.0021,-0.0001,-0.0002,1.0000,0.2419,-0.0435,-0.0039
190046,Right,2,0.2245,-0.0219,-0.9441,0.2403,-0.0067,0.0032,0.0062,0.0122,0.0882,-0.0404,-4.0911,1.3865,8.7662,-0.0001,0.0000,0.0001,1.0000,-0.1023,0.0347,0.2192
190046,Left,2,0.1986,0.0156,-0.9717,-0.1271,0.0066,0.0086,0.0055,0.0100,0.0715,-0.0741,-3.7108,-0.8577,8.9632,0.0001,0.0001,0.0001,1.0000,-0.0927,-0.0215,0.2241
190046,Pelvis,2,-0.7098,0.0568,-0.6986,0.0696,0.1677,-0.0214,-0.0239,-0.0319,-0.0308,-0.0048,9.6545,-1.7195,-0.1719,0.0021,-0.0003,-0.0003,1.0000,0.2414,-0.0431,-0.0043
190047,Right,2,0.2245,-0.0218,-0.9441,0.2404,-0.0066,0.0039,0.0050,0.0030,0.1007,-0.0254,-4.0958,1.3725,8.7830,-0.0001,0.0000,0.0001,1.0000,-0.1024,0.0343,0.2196
190047,Left,2,0.1986,0.0156,-0.9716,-0.1273,0.0064,0.0049,0.0047,0.0231,0.0863,-0.0660,-3.7230,-0.8770,8.9653,0.0001,0.0001,0.0001,1.0000,-0.0931,-0.0219,0.2241
190047,Pelvis,2,-0.7099,0.0552,-0.6985,0.0709,0.1734,-0.0286,-0.0224,-0.0350,0.0485,-0.0046,9.6413,-1.7940,-0.1715,0.0022,-0.0004,-0.0003,1.0000,0.2410,-0.0449,-0.0043
190048,Right,2,0.2244,-0.0218,-0.9442,0.2402,-0.0044,0.0023,0.0062,0.0052,0.1067,-0.0044,-4.1080,1.3702,8.8012,-0.0001,0.0000,0.0001,1.0000,-0.1027,0.0343,0.2200
190048,Left,2,0.1986,0.0158,-0.9717,-0.1272,0.0061,0.0034,0.0041,0.0046,0.0863,-0.0662,-3.7060,-0.8744,8.9724,0.0001,0.0000,0.0001,1.0000,-0.0926,-0.0219,0.2243
190048,Pelvis,2,-0.7101,0.0531,-0.6983,0.0726,0.1926,-0.0375,-0.0154,-0.0310,0.0953,-0.0404,9.5988,-1.8282,-0.1668,0.0024,-0.0005,-0.0002,1.0000,0.2400,-0.0457,-0.0042
190049,Right,2,0.2244,-0.0218,-0.9441,0.2405,0.0010,0.0009,0.0082,-0.0012,0.1119,-0.0192,-4.0995,1.3610,8.7902,0.0000,0.0000,0.0001,1.0000,-0.1025,0.0340,0.2198
190049,Left,2,0.1987,0.0159,-0.9717,-0.1271,0.0108,0.0061,0.0048,-0.0174,0.0752,-0.0752,-3.6865,-0.8600,8.9719,0.0001,0.0001,0.0001,1.0000,-0.0921,-0.0215,0.2243
190049,Pelvis,2,-0.7105,0.0511,-0.6979,0.0744,0.2207,-0.0582,-0.0167,-0.0855,0.1962,0.0072,9.6270,-1.9359,-0.2210,0.0028,-0.0007,-0.0002,1.0000,0.2407,-0.0484,-0.0055
190050,Right,2,0.2244,-0.0219,-0.9441,0.2406,0.0028,0.0008,0.0076,0.0059,0.1064,-0.0044,-4.1080,1.3718,8.8010,0.0000,0.0000,0.0001,1.0000,-0.1027,0.0343,0.2200
190050,Left,2,0.1987,0.0159,-0.9716,-0.1272,0.0046,0.0077,0.0046,-0.0031,0.0912,-0.0670,-3.6988,-0.8792,8.9740,0.0001,0.0001,0.0001,1.0000,-0.0924,-0.0220,0.2244
190050,Pelvis,2,-0.7108,0.0486,-0.6975,0.0767,0.2658,-0.0640,-0.0171,-0.0647,0.2082,0.0033,9.6219,-1.9442,-0.2034,0.0033,-0.0008,-0.0002,1.0000,0.2405,-0.0486,-0.0051
190051,Right,2,0.2243,-0.0219,-0.9441,0.2405,-0.0013,0.0020,0.0057,-0.0024,0.0816,-0.0155,-4.0840,1.3889,8.7968,-0.0000,0.0000,0.0001,1.0000,-0.1021,0.0347,0.2199
190051,Left,2,0.1988,0.0159,-0.9716,-0.1270,0.0029,0.0098,0.0036,0.0149,0.0754,-0.0660,-3.7199,-0.8691,8.9672,0.0000,0.0001,0.0000,1.0000,-0.0930,-0.0217,0.2242
190051,Pelvis,2,-0.7112,0.0460,-0.6969,0.0792,0.2966,-0.0864,-0.0123,-0.0380,0.2142,-0.0268,9.5917,-1.9436,-0.1798,0.0037,-0.0011,-0.0002,1.0000,0.2398,-0.0486,-0.0044
190052,Right,2,0.2243,-0.0219,-0.9441,0.2405,0.0030,0.0015,0.0065,-0.0050,0.1323,-0.0153,-4.1047,1.3433,8.7950,0.0000,0.0000,0.0001,1.0000,-0.1026,0.0336,0.2199
190052,Left,2,0.1987,0.0161,-0.9717,-0.1268,0.0028,0.0082,0.0043,-0.0016,0.0766,-0.0564,-3.7075,-0.8689,8.9828,0.0000,0.0001,0.0001,1.0000,-0.0927,-0.0217,0.2246
190052,Pelvis,2,-0.7117,0.0430,-0.6964,0.0821,0.3341,-0.0917,-0.0132,-0.0800,0.2522,-0.0156,9.5951,-1.9842,-0.2252,0.0042,-0.0011,-0.0002,1.0000,0.2399,-0.0496,-0.0056
190053,Right,2,0.2243,-0.0221,-0.9441,0.2407,0.0090,0.0021,0.0118,-0.0064,0.1423,-0.0178,-4.1068,1.3362,8.7926,0.0001,0.0000,0.0001,1.0000,-0.1027,0.0334,0.2198
190053,Left,2,0.1987,0.0161,-0.9717,-0.1269,0.0041,0.0076,0.0049,0.0129,0.0901,-0.0774,-3.7093,-0.8841,8.9579,0.0001,0.0001,0.0001,1.0000,-0.0927,-0.0221,0.2240
190053,Pelvis,2,-0.7122,0.0397,-0.6956,0.0854,0.3729,-0.1026,-0.0068,-0.0926,0.2264,-0.0152,9.5992,-1.9609,-0.2458,0.0047,-0.0013,-0.0001,1.0000,0.2400,-0.0490,-0.0061
190054,Right,2,0.2243,-0.0223,-0.9440,0.2408,0.0140,-0.0017,0.0134,0.0025,0.0898,-0.0267,-4.0847,1.3883,8.7842,0.0002,-0.0000,0.0002,1.0000,-0.1021,0.0347,0.2196
190054,Left,2,0.1988,0.0162,-0.9717,-0.1267,0.0010,0.0153,0.0080,-0.0098,0.1125,-0.0696,-3.6865,-0.9026,8.9742,0.0000,0.0002,0.0001,1.0000,-0.0921,-0.0226,0.2244
190054,Pelvis,2,-0.7126,0.0360,-0.6949,0.0890,0.4094,-0.1064,-0.0092,-0.0886,0.2394,0.0564,9.6670,-1.9877,-0.2469,0.0051,-0.0013,-0.0001,1.0000,0.2417,-0.0497,-0.0061
190055,Right,2,0.2243,-0.0224,-0.9440,0.2409,0.0095,0.0015,0.0111,0.0316,0.0678,-0.0530,-4.0854,1.4205,8.7492,0.0001,0.0000,0.0001,1.0000,-0.1021,0.0355,0.2187
190055,Left,2,0.1990,0.0164,-0.9716,-0.1266,0.0016,0.0204,0.0108,-0.0059,0.0767,-0.0670,-3.7027,-0.8730,8.9729,0.0000,0.0003,0.0001,1.0000,-0.0925,-0.0218,0.2243
190055,Pelvis,2,-0.7131,0.0322,-0.6942,0.0929,0.4453,-0.1113,-0.0130,-0.0091,0.1442,0.0210,9.6508,-1.8848,-0.1800,0.0056,-0.0014,-0.0002,1.0000,0.2413,-0.0471,-0.0044
190056,Right,2,0.2243,-0.0225,-0.9440,0.2409,0.0017,0.0020,0.0089,0.0185,0.0820,-0.0293,-4.0907,1.4078,8.7753,0.0000,0.0000,0.0001,1.0000,-0.1023,0.0352,0.2194
190056,Left,2,0.1992,0.0165,-0.9716,-0.1265,-0.0021,0.0194,0.0095,0.0049,0.0733,-0.0571,-3.7200,-0.8742,8.9763,-0.0000,0.0002,0.0001,1.0000,-0.0929,-0.0219,0.2244
190056,Pelvis,2,-0.7135,0.0285,-0.6933,0.0967,0.4296,-0.1188,-0.0074,0.0748,-0.0642,0.0208,9.6895,-1.6750,-0.1211,0.0054,-0.0015,-0.0001,1.0000,0.2422,-0.0419,-0.0029
190057,Right,2,0.2243,-0.0224,-0.9440,0.2410,-0.0006,0.0030,0.0077,0.0036,0.1045,-0.0080,-4.0983,1.3844,8.7994,-0.0000,0.0000,0.0001,1.0000,-0.1025,0.0346,0.2200
190057,Left,2,0.1992,0.0166,-0.9716,-0.1264,-0.0028,0.0121,0.0053,0.0372,0.0766,-0.0285,-3.7606,-0.8897,8.9891,-0.0000,0.0002,0.0001,1.0000,-0.0940,-0.0222,0.2247
190057,Pelvis,2,-0.7140,0.0251,-0.6925,0.1001,0.3980,-0.1095,-0.0135,0.1411,-0.2785,-0.0277,9.6813,-1.4522,-0.0876,0.0050,-0.0014,-0.0002,1.0000,0.2420,-0.0363,-0.0020
190058,Right,2,0.2242,-0.0225,-0.9440,0.2410,0.0001,-0.0015,0.0085,0.0135,0.1067,-0.0044,-4.1076,1.3874,8.7987,0.0000,-0.0000,0.0001,1.0000,-0.1027,0.0347,0.2200
190058,Left,2,0.1991,0.0167,-0.9717,-0.1264,0.0006,-0.0088,0.0007,0.0467,0.0707,-0.0576,-3.7593,-0.8852,8.9584,0.0000,-0.0001,0.0000,1.0000,-0.0940,-0.0221,0.2239
190058,Pelvis,2,-0.7145,0.0218,-0.6916,0.1030,0.3512,-0.1143,-0.0282,0.1350,-0.3562,-0.0311,9.6915,-1.3737,-0.1152,0.0044,-0.0014,-0.0004,1.0000,0.2423,-0.0344,-0.0027
190059,Right,2,0.2242,-0.0225,-0.9440,0.2412,0.0012,-0.0018,0.0098,0.0055,0.1041,-0.0080,-4.0975,1.3863,8.7995,0.0000,-0.0000,0.0001,1.0000,-0.1024,0.0346,0.2200
190059,Left,2,0.1988,0.0169,-0.9717,-0.1264,0.0029,-0.0202,-0.0041,0.0372,0.0730,-0.0188,-3.7613,-0.8910,8.9992,0.0000,-0.0003,-0.0001,1.0000,-0.0941,-0.0223,0.2250
190059,Pelvis,2,-0.7149,0.0190,-0.6909,0.1056,0.3166,-0.0998,-0.0278,0.1519,-0.2999,-0.0869,9.6276,-1.4146,-0.1028,0.0040,-0.0012,-0.0003,1.0000,0.2407,-0.0354,-0.0024
190060,Right,2,0.2242,-0.0225,-0.9439,0.2414,0.0013,-0.0016,0.0085,0.0074,0.1117,-0.0192,-4.0977,1.3800,8.7880,0.0000,-0.0000,0.0001,1.0000,-0.1025,0.0345,0.2197
190060,Left,2,0.1985,0.0170,-0.9718,-0.1266,0.0070,-0.0316,-0.0073,0.0195,0.0827,-0.0294,-3.7328,-0.8977,8.9989,0.0001,-0.0004,-0.0001,1.0000,-0.0934,-0.0225,0.2249
190060,Pelvis,2,-0.7153,0.0164,-0.6902,0.1081,0.2972,-0.0888,-0.0183,0.0982,-0.2241,-0.0133,9.6847,-1.5063,-0.1595,0.0037,-0.0011,-0.0002,1.0000,0.2421,-0.0377,-0.0039
190061,Right,2,0.2241,-0.0225,-0.9439,0.2415,0.0003,-0.0041,0.0095,0.0172,0.0767,-0.0417,-4.0779,1.4126,8.7666,0.0000,-0.0001,0.0001,1.0000,-0.1020,0.0353,0.2192
190061,Left,2,0.1979,0.0171,-0.9718,-0.1267,0.0108,-0.0407,-0.0095,0.0346,0.1037,-0.0610,-3.7198,-0.9209,8.9679,0.0001,-0.0005,-0.0001,1.0000,-0.0931,-0.0230,0.2241
190061,Pelvis,2,-0.7155,0.0136,-0.6897,0.1107,0.3002,-0.0724,-0.0126,0.0677,-0.1676,0.0922,9.7774,-1.5827,-0.1921,0.0038,-0.0009,-0.0002,1.0000,0.2444,-0.0396,-0.0047
190062,Right,2,0.2240,-0.0225,-0.9439,0.2415,-0.0048,-0.0020,0.0064,0.0124,0.0554,-0.0404,-4.0635,1.4294,8.7718,-0.0001,-0.0000,0.0001,1.0000,-0.1016,0.0357,0.2193
190062,Left,2,0.1973,0.0171,-0.9719,-0.1269,0.0171,-0.0432,-0.0072,0.0067,0.1094,-0.0417,-3.6902,-0.9205,9.0010,0.0002,-0.0005,-0.0001,1.0000,-0.0924,-0.0231,0.2250
190062,Pelvis,2,-0.7156,0.0109,-0.6892,0.1133,0.3110,-0.0652,-0.0142,0.0364,-0.1352,0.1357,9.8130,-1.6265,-0.2246,0.0039,-0.0008,-0.0002,1.0000,0.2453,-0.0407,-0.0056
190063,Right,2,0.2239,-0.0223,-0.9440,0.2414,-0.0170,0.0031,0.0002,0.0177,0.0541,-0.0492,-4.0624,1.4292,8.7626,-0.0002,0.0000,0.0000,1.0000,-0.1016,0.0358,0.2191
190063,Left,2,0.1967,0.0171,-0.9720,-0.1271,0.0139,-0.0464,-0.0081,-0.0077,0.0844,-0.0985,-3.6515,-0.8884,8.9582,0.0002,-0.0006,-0.0001,1.0000,-0.0914,-0.0222,0.2239
190063,Pelvis,2,-0.7157,0.0080,-0.6887,0.1161,0.3312,-0.0689,-0.0177,-0.0183,-0.0778,0.0530,9.7188,-1.6764,-0.2697,0.0041,-0.0009,-0.0002,1.0000,0.2430,-0.0419,-0.0067
190064,Right,2,0.2240,-0.0220,-0.9440,0.2414,-0.0245,0.0153,-0.0082,-0.0104,0.0443,-0.1048,-4.0147,1.4115,8.7256,-0.0003,0.0002,-0.0001,1.0000,-0.1003,0.0354,0.2181
190064,Left,2,0.1962,0.0172,-0.9721,-0.1273,0.0048,-0.0332,-0.0096,-0.0271,0.0791,-0.0686,-3.6359,-0.8816,8.9976,0.0001,-0.0004,-0.0001,1.0000,-0.0910,-0.0220,0.2249
190064,Pelvis,2,-0.7157,0.0050,-0.6881,0.1192,0.3617,-0.0692,-0.0132,-0.0728,-0.1159,-0.0431,9.6275,-1.6330,-0.3287,0.0045,-0.0009,-0.0002,1.0000,0.2407,-0.0408,-0.0082
190065,Right,2,0.2243,-0.0215,-0.9440,0.2412,-0.0292,0.0313,-0.0148,-0.0034,0.0336,-0.0341,-4.0493,1.4277,8.7856,-0.0004,0.0004,-0.0002,1.0000,-0.1011,0.0358,0.2197
190065,Left,2,0.1957,0.0176,-0.9722,-0.1273,-0.0021,-0.0340,-0.0079,0.0002,0.0499,-0.0571,-3.6608,-0.8656,9.0013,-0.0000,-0.0004,-0.0001,1.0000,-0.0916,-0.0216,0.2250
190065,Pelvis,2,-0.7159,0.0018,-0.6874,0.1224,0.3749,-0.0882,-0.0105,-0.0933,-0.2028,-0.0202,9.6632,-1.5593,-0.3667,0.0047,-0.0011,-0.0001,1.0000,0.2416,-0.0390,-0.0091
190066,Right,2,0.2245,-0.0209,-0.9440,0.2409,-0.0378,0.0374,-0.0164,0.0077,0.0911,-0.0180,-4.0981,1.3749,8.7898,-0.0005,0.0005,-0.0002,1.0000,-0.1023,0.0345,0.2198
190066,Left,2,0.1951,0.0180,-0.9723,-0.1276,-0.0130,-0.0413,-0.0186,-0.0011,0.0382,-0.0465,-3.6566,-0.8605,9.0149,-0.0002,-0.0005,-0.0002,1.0000,-0.0915,-0.0215,0.2253
190066,Pelvis,2,-0.7161,-0.0016,-0.6866,0.1258,0.3917,-0.1018,-0.0164,-0.1318,-0.2393,-0.0029,9.6836,-1.5357,-0.4178,0.0049,-0.0013,-0.0002,1.0000,0.2421,-0.0384,-0.0103
190067,Right,2,0.2248,-0.0203,-0.9440,0.2408,-0.0369,0.0338,-0.0179,0.0069,0.1378,0.0057,-4.1368,1.3262,8.8062,-0.0005,0.0004,-0.0002,1.0000,-0.1033,0.0333,0.2202
190067,Left,2,0.1946,0.0185,-0.9724,-0.1278,-0.0162,-0.0483,-0.0188,0.0215,0.0474,-0.0674,-3.6552,-0.8823,8.9908,-0.0002,-0.0006,-0.0002,1.0000,-0.0915,-0.0220,0.2247
190067,Pelvis,2,-0.7163,-0.0051,-0.6857,0.1292,0.3946,-0.1117,-0.0139,-0.1545,-0.2477,-0.0513,9.6353,-1.5265,-0.4483,0.0049,-0.0014,-0.0002,1.0000,0.2409,-0.0381,-0.0111
190068,Right,2,0.2251,-0.0197,-0.9440,0.2406,-0.0413,0.0371,-0.0215,-0.0364,0.0447,-0.0859,-4.0294,1.3651,8.7473,-0.0005,0.0005,-0.0003,1.0000,-0.1006,0.0343,0.2187
190068,Left,2,0.1939,0.0190,-0.9724,-0.1280,-0.0216,-0.0502,-0.0227,-0.0269,0.0936,-0.0904,-3.5783,-0.9212,8.9932,-0.0003,-0.0006,-0.0003,1.0000,-0.0896,-0.0229,0.2248
190068,Pelvis,2,-0.7167,-0.0083,-0.6846,0.1326,0.3889,-0.1321,0.0011,-0.1453,-0.2489,-0.0419,9.6437,-1.5317,-0.4529,0.0049,-0.0017,0.0000,1.0000,0.2411,-0.0382,-0.0111
190069,Right,2,0.2256,-0.0190,-0.9439,0.2405,-0.0380,0.0529,-0.0277,-0.0117,0.0988,-0.0512,-4.0988,1.3218,8.7606,-0.0005,0.0007,-0.0003,1.0000,-0.1023,0.0332,0.2191
190069,Left,2,0.1934,0.0197,-0.9725,-0.1281,-0.0219,-0.0363,-0.0190,-0.0481,0.1213,-0.1221,-3.5275,-0.9507,8.9765,-0.0003,-0.0005,-0.0002,1.0000,-0.0883,-0.0237,0.2244
190069,Pelvis,2,-0.7173,-0.0115,-0.6833,0.1362,0.3859,-0.1458,0.0091,-0.1090,-0.2891,-0.0109,9.6812,-1.4996,-0.4426,0.0048,-0.0018,0.0001,1.0000,0.2421,-0.0374,-0.0108
190070,Right,2,0.2261,-0.0184,-0.9438,0.2404,-0.0259,0.0483,-0.0202,-0.0167,0.1643,-0.0324,-4.1450,1.2549,8.7707,-0.0003,0.0006,-0.0003,1.0000,-0.1035,0.0315,0.2193
190070,Left,2,0.1931,0.0203,-0.9726,-0.1281,-0.0298,-0.0203,-0.0130,-0.0160,0.1213,-0.1129,-3.5505,-0.9704,8.9751,-0.0004,-0.0003,-0.0002,1.0000,-0.0888,-0.0242,0.2244
190070,Pelvis,2,-0.7180,-0.0147,-0.6818,0.1395,0.3701,-0.1681,0.0027,-0.1138,-0.3063,-0.0534,9.6397,-1.4851,-0.4722,0.0046,-0.0021,0.0000,1.0000,0.2410,-0.0371,-0.0115
190071,Right,2,0.2266,-0.0180,-0.9437,0.2404,-0.0195,0.0470,-0.0151,-0.0077,0.1661,0.0481,-4.1981,1.2617,8.8345,-0.0002,0.0006,-0.0002,1.0000,-0.1048,0.0316,0.2209
190071,Left,2,0.1929,0.0207,-0.9726,-0.1282,-0.0252,-0.0103,-0.0091,-0.0266,0.1125,-0.1025,-3.5422,-0.9692,8.9897,-0.0003,-0.0001,-0.0001,1.0000,-0.0886,-0.0241,0.2247
190071,Pelvis,2,-0.7187,-0.0179,-0.6803,0.1426,0.3564,-0.1591,-0.0098,-0.1248,-0.3344,0.0639,9.7567,-1.4880,-0.5171,0.0045,-0.0020,-0.0001,1.0000,0.2439,-0.0372,-0.0126
190072,Right,2,0.2270,-0.0176,-0.9436,0.2403,-0.0187,0.0386,-0.0122,-0.0140,0.1539,0.0469,-4.1965,1.2632,8.8334,-0.0002,0.0005,-0.0002,1.0000,-0.1048,0.0316,0.2209
190072,Left,2,0.1929,0.0212,-0.9726,-0.1283,-0.0237,0.0036,-0.0015,-0.0545,0.1096,-0.1707,-3.4896,-0.9624,8.9375,-0.0003,0.0000,-0.0000,1.0000,-0.0872,-0.0240,0.2234
190072,Pelvis,2,-0.7191,-0.0207,-0.6792,0.1454,0.3199,-0.1311,-0.0099,-0.1028,-0.3820,0.2222,9.9200,-1.4719,-0.5325,0.0040,-0.0016,-0.0001,1.0000,0.2480,-0.0368,-0.0131
190073,Right,2,0.2273,-0.0173,-0.9435,0.2403,-0.0157,0.0296,-0.0062,-0.0480,0.2092,0.0102,-4.1884,1.1887,8.8079,-0.0002,0.0004,-0.0001,1.0000,-0.1046,0.0298,0.2202
190073,Left,2,0.1935,0.0217,-0.9725,-0.1280,-0.0263,0.0431,0.0069,-0.0541,0.1595,-0.1162,-3.5019,-1.0253,8.9853,-0.0003,0.0005,0.0001,1.0000,-0.0874,-0.0256,0.2247
190073,Pelvis,2,-0.7196,-0.0227,-0.6781,0.1476,0.2495,-0.1137,0.0052,-0.0402,-0.4057,0.2427,9.9469,-1.4452,-0.4962,0.0031,-0.0014,0.0001,1.0000,0.2487,-0.0361,-0.0122
190074,Right,2,0.2276,-0.0171,-0.9434,0.2404,-0.0057,0.0222,0.0009,0.0037,0.1971,0.0482,-4.2464,1.2251,8.8172,-0.0001,0.0003,0.0000,1.0000,-0.1061,0.0306,0.2205
190074,Left,2,0.1939,0.0219,-0.9724,-0.1279,-0.0086,0.0402,0.0118,0.0500,0.1286,-0.0564,-3.6332,-1.0333,8.9965,-0.0001,0.0005,0.0001,1.0000,-0.0907,-0.0258,0.2250
190074,Pelvis,2,-0.7199,-0.0242,-0.6773,0.1494,0.1875,-0.0860,0.0090,0.0451,-0.5379,0.0986,9.8325,-1.2801,-0.4566,0.0023,-0.0011,0.0001,1.0000,0.2458,-0.0319,-0.0112
190075,Right,2,0.2277,-0.0170,-0.9434,0.2406,-0.0028,0.0042,0.0040,0.0010,0.1512,0.0332,-4.2201,1.2613,8.8070,-0.0000,0.0001,0.0001,1.0000,-0.1055,0.0315,0.2202
190075,Left,2,0.1942,0.0219,-0.9723,-0.1279,-0.0006,0.0233,0.0102,0.0480,0.0684,-0.0419,-3.6591,-0.9777,9.0072,-0.0000,0.0003,0.0001,1.0000,-0.0914,-0.0245,0.2252
190075,Pelvis,2,-0.7204,-0.0250,-0.6766,0.1503,0.0990,-0.0801,0.0014,0.1123,-0.5494,-0.0992,9.6441,-1.2230,-0.4016,0.0012,-0.0010,0.0000,1.0000,0.2411,-0.0306,-0.0098
190076,Right,2,0.2277,-0.0170,-0.9433,0.2408,-0.0009,-0.0040,0.0088,0.0069,0.1571,0.0133,-4.2195,1.2561,8.7859,-0.0000,-0.0000,0.0001,1.0000,-0.1055,0.0314,0.2196
190076,Left,2,0.1943,0.0220,-0.9723,-0.1279,0.0087,0.0029,0.0046,0.0316,0.0874,-0.0435,-3.6421,-0.9945,9.0106,0.0001,0.0000,0.0001,1.0000,-0.0910,-0.0249,0.2253
190076,Pelvis,2,-0.7208,-0.0251,-0.6761,0.1506,0.0236,-0.0568,0.0037,0.1543,-0.6009,-0.1305,9.6245,-1.1622,-0.3856,0.0003,-0.0007,0.0000,1.0000,0.2406,-0.0290,-0.0095
190077,Right,2,0.2276,-0.0171,-0.9433,0.2409,0.0031,-0.0064,0.0106,-0.0343,0.0767,-0.0684,-4.1146,1.2982,8.7374,0.0000,-0.0001,0.0001,1.0000,-0.1029,0.0324,0.2184
190077,Left,2,0.1941,0.0221,-0.9724,-0.1278,0.0150,-0.0038,0.0030,0.0065,0.0955,-0.0834,-3.5999,-0.9933,8.9846,0.0002,-0.0000,0.0000,1.0000,-0.0900,-0.0249,0.2246
190077,Pelvis,2,-0.7212,-0.0243,-0.6758,0.1502,-0.0637,-0.0358,0.0148,0.2145,-0.6463,-0.0418,9.7233,-1.1257,-0.3520,-0.0008,-0.0004,0.0002,1.0000,0.2431,-0.0281,-0.0087
190078,Right,2,0.2276,-0.0170,-0.9432,0.2414,0.0030,-0.0021,0.0104,-0.0106,0.1131,-0.0202,-4.1694,1.2843,8.7677,0.0000,-0.0000,0.0001,1.0000,-0.1042,0.0321,0.2192
190078,Left,2,0.1940,0.0220,-0.9724,-0.1278,0.0174,0.0024,0.0031,-0.0212,0.0984,-0.0835,-3.5726,-0.9881,8.9960,0.0002,0.0000,0.0000,1.0000,-0.0893,-0.0248,0.2249
190078,Pelvis,2,-0.7215,-0.0227,-0.6757,0.1492,-0.1435,-0.0148,0.0318,0.1626,-0.5475,0.0942,9.8346,-1.2645,-0.3911,-0.0018,-0.0002,0.0004,1.0000,0.2459,-0.0315,-0.0097
190079,Right,2,0.2276,-0.0170,-0.9432,0.2416,0.0059,-0.0025,0.0118,-0.0017,0.1150,-0.0165,-4.1780,1.2886,8.7671,0.0001,-0.0000,0.0001,1.0000,-0.1045,0.0322,0.2192
190079,Left,2,0.1940,0.0218,-0.9724,-0.1278,0.0185,0.0119,0.0071,-0.0331,0.1282,-0.0858,-3.5533,-1.0117,8.9989,0.0002,0.0001,0.0001,1.0000,-0.0888,-0.0254,0.2250
190079,Pelvis,2,-0.7218,-0.0205,-0.6758,0.1479,-0.1938,0.0076,0.0437,0.0859,-0.4110,0.0653,9.7752,-1.4165,-0.4362,-0.0024,0.0001,0.0005,1.0000,0.2444,-0.0353,-0.0108
190080,Right,2,0.2276,-0.0171,-0.9431,0.2417,0.0071,-0.0028,0.0130,-0.0164,0.1224,-0.0138,-4.1707,1.2779,8.7752,0.0001,-0.0000,0.0002,1.0000,-0.1043,0.0319,0.2194
190080,Left,2,0.1944,0.0217,-0.9723,-0.1278,0.0188,0.0295,0.0135,-0.0226,0.1312,-0.1060,-3.5593,-1.0133,8.9746,0.0002,0.0004,0.0002,1.0000,-0.0889,-0.0254,0.2244
190080,Pelvis,2,-0.7221,-0.0181,-0.6759,0.1463,-0.2260,0.0197,0.0538,0.0278,-0.2524,0.0525,9.7288,-1.5897,-0.4580,-0.0028,0.0002,0.0007,1.0000,0.2432,-0.0396,-0.0114
190081,Right,2,0.2276,-0.0172,-0.9431,0.2418,0.0056,-0.0047,0.0146,-0.0104,0.1164,0.0010,-4.1781,1.2903,8.7864,0.0001,-0.0001,0.0002,1.0000,-0.1045,0.0322,0.2197
190081,Left,2,0.1947,0.0215,-0.9723,-0.1276,0.0230,0.0312,0.0188,0.0092,0.0859,-0.0540,-3.6243,-0.9785,9.0081,0.0003,0.0004,0.0002,1.0000,-0.0905,-0.0245,0.2252
190081,Pelvis,2,-0.7222,-0.0155,-0.6762,0.1448,-0.2307,0.0306,0.0560,-0.0624,-0.1875,0.0462,9.7017,-1.6828,-0.5322,-0.0029,0.0004,0.0007,1.0000,0.2426,-0.0419,-0.0133
190082,Right,2,0.2275,-0.0173,-0.9431,0.2419,0.0052,-0.0077,0.0143,-0.0054,0.1364,-0.0002,-4.1898,1.2765,8.7818,0.0001,-0.0001,0.0002,1.0000,-0.1048,0.0319,0.2195
190082,Left,2,0.1949,0.0212,-0.9723,-0.1274,0.0256,0.0240,0.0205,0.0084,0.0825,-0.0540,-3.6309,-0.9712,9.0062,0.0003,0.0003,0.0003,1.0000,-0.0907,-0.0244,0.2252
190082,Pelvis,2,-0.7222,-0.0128,-0.6765,0.1431,-0.2357,0.0404,0.0604,-0.1227,-0.1630,-0.0103,9.6348,-1.7201,-0.5828,-0.0029,0.0005,0.0008,1.0000,0.2409,-0.0429,-0.0146
190083,Right,2,0.2274,-0.0175,-0.9431,0.2418,0.0041,-0.0120,0.0156,-0.0354,0.0977,-0.0075,-4.1432,1.2983,8.7920,0.0001,-0.0002,0.0002,1.0000,-0.1036,0.0324,0.2198
190083,Left,2,0.1951,0.0211,-0.9723,-0.1272,0.0257,0.0189,0.0166,-0.0029,0.0695,-0.0728,-3.6211,-0.9505,8.9920,0.0003,0.0002,0.0002,1.0000,-0.0905,-0.0239,0.2248
190083,Pelvis,2,-0.7224,-0.0101,-0.6768,0.1416,-0.2368,0.0349,0.0667,-0.1813,-0.1389,-0.0375,9.5967,-1.7630,-0.6341,-0.0030,0.0004,0.0008,1.0000,0.2399,-0.0439,-0.0158
190084,Right,2,0.2273,-0.0176,-0.9431,0.2420,0.0062,-0.0102,0.0140,-0.0436,0.1059,-0.0459,-4.1217,1.2838,8.7617,0.0001,-0.0001,0.0002,1.0000,-0.1031,0.0321,0.2190
190084,Left,2,0.1951,0.0210,-0.9723,-0.1270,0.0223,0.0180,0.0137,-0.0110,0.0652,-0.1020,-3.6059,-0.9385,8.9677,0.0003,0.0002,0.0002,1.0000,-0.0901,-0.0235,0.2242
190084,Pelvis,2,-0.7226,-0.0073,-0.6769,0.1402,-0.2397,0.0203,0.0792,-0.2234,-0.1249,-0.0589,9.5666,-1.7964,-0.6748,-0.0030,0.0003,0.0010,1.0000,0.2392,-0.0447,-0.0168
190085,Right,2,0.2271,-0.0178,-0.9432,0.2419,0.0092,-0.0102,0.0161,-0.0526,0.1503,-0.0258,-4.1400,1.2461,8.7816,0.0001,-0.0001,0.0002,1.0000,-0.1035,0.0311,0.2195
190085,Left,2,0.1953,0.0208,-0.9723,-0.1269,0.0197,0.0221,0.0148,-0.0192,0.1128,-0.1155,-3.5842,-0.9782,8.9580,0.0002,0.0003,0.0002,1.0000,-0.0895,-0.0245,0.2240
190085,Pelvis,2,-0.7230,-0.0044,-0.6768,0.1388,-0.2387,0.0018,0.0934,-0.2378,-0.0860,-0.0255,9.5874,-1.8601,-0.6892,-0.0030,0.0000,0.0012,1.0000,0.2397,-0.0463,-0.0171
190086,Right,2,0.2270,-0.0181,-0.9433,0.2417,0.0127,-0.0098,0.0206,-0.0218,0.1391,-0.0099,-4.1617,1.2757,8.7844,0.0002,-0.0001,0.0003,1.0000,-0.1041,0.0318,0.2196
190086,Left,2,0.1957,0.0205,-0.9722,-0.1268,0.0259,0.0387,0.0208,-0.0495,0.1574,-0.0991,-3.5586,-1.0117,8.9830,0.0003,0.0005,0.0003,1.0000,-0.0888,-0.0254,0.2246
190086,Pelvis,2,-0.7235,-0.0016,-0.6765,0.1377,-0.2263,-0.0111,0.1000,-0.1836,-0.1252,-0.0406,9.5796,-1.8286,-0.6554,-0.0028,-0.0001,0.0013,1.0000,0.2396,-0.0455,-0.0162
190087,Right,2,0.2269,-0.0184,-0.9433,0.2417,0.0146,-0.0100,0.0207,-0.0230,0.1162,-0.0174,-4.1442,1.2992,8.7806,0.0002,-0.0001,0.0003,1.0000,-0.1036,0.0324,0.2195
190087,Left,2,0.1963,0.0202,-0.9721,-0.1265,0.0336,0.0525,0.0287,-0.0266,0.1193,-0.0967,-3.5994,-0.9751,8.9727,0.0004,0.0007,0.0004,1.0000,-0.0898,-0.0245,0.2244
190087,Pelvis,2,-0.7240,0.0012,-0.6761,0.1365,-0.2269,-0.0277,0.0985,-0.0745,-0.2285,-0.0159,9.6272,-1.7350,-0.5843,-0.0028,-0.0003,0.0012,1.0000,0.2407,-0.0431,-0.0144
190088,Right,2,0.2268,-0.0186,-0.9433,0.2418,0.0114,-0.0109,0.0204,-0.0268,0.1004,0.0049,-4.1396,1.3189,8.8045,0.0001,-0.0001,0.0003,1.0000,-0.1035,0.0329,0.2201
190088,Left,2,0.1969,0.0196,-0.9721,-0.1262,0.0428,0.0621,0.0317,-0.0021,0.0803,-0.1138,-3.6358,-0.9329,8.9434,0.0005,0.0008,0.0004,1.0000,-0.0907,-0.0235,0.2236
190088,Pelvis,2,-0.7246,0.0042,-0.6758,0.1351,-0.2398,-0.0272,0.1028,-0.0336,-0.3390,0.0499,9.7113,-1.6542,-0.5840,-0.0030,-0.0003,0.0013,1.0000,0.2428,-0.0411,-0.0144
190089,Right,2,0.2267,-0.0188,-0.9432,0.2421,0.0112,-0.0081,0.0182,-0.0261,0.1174,-0.0087,-4.1397,1.3067,8.7913,0.0001,-0.0001,0.0002,1.0000,-0.1035,0.0326,0.2198
190089,Left,2,0.1972,0.0190,-0.9720,-0.1260,0.0535,0.0361,0.0199,0.0946,0.0638,-0.0258,-3.7700,-0.9378,8.9835,0.0007,0.0005,0.0002,1.0000,-0.0941,-0.0236,0.2246
190089,Pelvis,2,-0.7252,0.0073,-0.6754,0.1336,-0.2707,-0.0157,0.1056,0.0357,-0.4732,0.1049,9.7919,-1.5457,-0.5601,-0.0034,-0.0002,0.0013,1.0000,0.2449,-0.0384,-0.0138
190090,Right,2,0.2265,-0.0190,-0.9432,0.2421,0.0097,-0.0099,0.0192,-0.0309,0.1222,-0.0235,-4.1285,1.3013,8.7810,0.0001,-0.0001,0.0002,1.0000,-0.1032,0.0325,0.2195
190090,Left,2,0.1970,0.0185,-0.9721,-0.1260,0.0552,0.0077,0.0118,0.0413,0.0298,-0.0620,-3.7195,-0.8774,8.9707,0.0007,0.0001,0.0001,1.0000,-0.0930,-0.0221,0.2243
190090,Pelvis,2,-0.7256,0.0107,-0.6753,0.1318,-0.2933,0.0043,0.0995,0.0546,-0.4685,0.1239,9.8071,-1.5723,-0.5535,-0.0037,0.0001,0.0012,1.0000,0.2452,-0.0391,-0.0137
190091,Right,2,0.2265,-0.0192,-0.9432,0.2423,0.0119,-0.0071,0.0190,-0.0389,0.1189,-0.0272,-4.1165,1.3035,8.7822,0.0001,-0.0001,0.0002,1.0000,-0.1029,0.0325,0.2196
190091,Left,2,0.1969,0.0181,-0.9721,-0.1260,0.0406,0.0006,0.0067,0.0103,0.0655,-0.0253,-3.6962,-0.8993,9.0181,0.0005,0.0000,0.0001,1.0000,-0.0924,-0.0226,0.2254
190091,Pelvis,2,-0.7262,0.0141,-0.6750,0.1295,-0.3233,-0.0054,0.0795,0.0679,-0.4114,0.2056,9.8736,-1.6589,-0.5470,-0.0040,-0.0001,0.0010,1.0000,0.2469,-0.0413,-0.0135
190092,Right,2,0.2264,-0.0193,-0.9432,0.2426,0.0104,-0.0053,0.0154,-0.0012,0.0816,-0.0363,-4.1220,1.3551,8.7611,0.0001,-0.0001,0.0002,1.0000,-0.1031,0.0338,0.2190
190092,Left,2,0.1969,0.0179,-0.9721,-0.1261,0.0261,-0.0013,0.0024,-0.0026,0.0534,-0.0539,-3.6773,-0.8767,8.9970,0.0003,-0.0000,0.0000,1.0000,-0.0919,-0.0220,0.2249
190092,Pelvis,2,-0.7266,0.0173,-0.6750,0.1270,-0.3250,0.0150,0.0502,0.1618,-0.3212,0.2167,9.8725,-1.7454,-0.4528,-0.0041,0.0002,0.0006,1.0000,0.2468,-0.0435,-0.0112
190093,Right,2,0.2264,-0.0194,-0.9432,0.2426,0.0053,-0.0020,0.0130,-0.0138,0.0800,-0.0312,-4.1124,1.3542,8.7714,0.0001,-0.0000,0.0002,1.0000,-0.1028,0.0338,0.2193
190093,Left,2,0.1968,0.0179,-0.9721,-0.1262,0.0198,-0.0056,0.0013,0.0195,0.1157,-0.0491,-3.6826,-0.9408,8.9942,0.0002,-0.0001,0.0000,1.0000,-0.0921,-0.0236,0.2248
190093,Pelvis,2,-0.7270,0.0204,-0.6750,0.1243,-0.3321,0.0181,0.0379,0.2133,-0.4458,0.0770,9.7634,-1.5951,-0.4245,-0.0042,0.0002,0.0005,1.0000,0.2441,-0.0398,-0.0105
190094,Right,2,0.2263,-0.0194,-0.9432,0.2426,0.0005,-0.0018,0.0110,0.0106,0.0737,-0.0302,-4.1273,1.3717,8.7627,0.0000,-0.0000,0.0001,1.0000,-0.1032,0.0343,0.2191
190094,Left,2,0.1967,0.0175,-0.9721,-0.1265,0.0243,-0.0045,0.0027,-0.0144,0.0895,-0.0860,-3.6428,-0.8994,8.9743,0.0003,-0.0001,0.0000,1.0000,-0.0911,-0.0226,0.2243
190094,Pelvis,2,-0.7271,0.0239,-0.6752,0.1214,-0.3583,0.0408,0.0463,0.2227,-0.4430,-0.0438,9.6447,-1.5768,-0.4143,-0.0045,0.0005,0.0006,1.0000,0.2411,-0.0393,-0.0103
190095,Right,2,0.2262,-0.0194,-0.9432,0.2427,-0.0030,-0.0011,0.0078,-0.0114,0.0843,-0.0101,-4.1227,1.3551,8.7900,-0.0000,-0.0000,0.0001,1.0000,-0.1031,0.0339,0.2197
190095,Left,2,0.1966,0.0174,-0.9721,-0.1265,0.0242,0.0029,0.0023,-0.0342,0.0805,-0.0950,-3.6220,-0.8818,8.9746,0.0003,0.0000,0.0000,1.0000,-0.0905,-0.0221,0.2244
190095,Pelvis,2,-0.7273,0.0276,-0.6755,0.1184,-0.3771,0.0512,0.0566,0.1715,-0.3806,-0.0675,9.6034,-1.6456,-0.4585,-0.0047,0.0006,0.0007,1.0000,0.2401,-0.0410,-0.0114
190096,Right,2,0.2261,-0.0193,-0.9432,0.2427,-0.0048,-0.0008,0.0071,-0.0278,0.1053,-0.0334,-4.1082,1.3246,8.7758,-0.0001,-0.0000,0.0001,1.0000,-0.1027,0.0331,0.2194
190096,Left,2,0.1965,0.0173,-0.9722,-0.1264,0.0179,0.0053,0.0021,-0.0382,0.0979,-0.1062,-3.6084,-0.8943,8.9670,0.0002,0.0001,0.0000,1.0000,-0.0902,-0.0224,0.2242
190096,Pelvis,2,-0.7274,0.0316,-0.6757,0.1153,-0.4041,0.0555,0.0661,0.1680,-0.4411,-0.0876,9.5938,-1.5924,-0.4724,-0.0051,0.0007,0.0008,1.0000,0.2399,-0.0397,-0.0118
190097,Right,2,0.2260,-0.0192,-0.9432,0.2428,-0.0042,-0.0010,0.0077,-0.0322,0.1155,-0.0271,-4.1110,1.3131,8.7834,-0.0001,-0.0000,0.0001,1.0000,-0.1028,0.0328,0.2196
190097,Left,2,0.1967,0.0171,-0.9721,-0.1264,0.0187,0.0185,0.0072,-0.0108,0.1310,-0.0895,-3.6327,-0.9321,8.9718,0.0002,0.0002,0.0001,1.0000,-0.0908,-0.0234,0.2243
190097,Pelvis,2,-0.7276,0.0358,-0.6759,0.1118,-0.4324,0.0538,0.0656,0.1308,-0.3937,-0.0402,9.6255,-1.6619,-0.5114,-0.0054,0.0007,0.0008,1.0000,0.2407,-0.0414,-0.0127
190098,Right,2,0.2260,-0.0192,-0.9432,0.2428,-0.0030,-0.0006,0.0091,-0.0221,0.1175,-0.0234,-4.1200,1.3154,8.7829,-0.0000,-0.0000,0.0001,1.0000,-0.1030,0.0329,0.2196
190098,Left,2,0.1970,0.0169,-0.9721,-0.1265,0.0231,0.0290,0.0142,-0.0609,0.1265,-0.1278,-3.5796,-0.9088,8.9541,0.0003,0.0004,0.0002,1.0000,-0.0894,-0.0228,0.2239
190098,Pelvis,2,-0.7277,0.0401,-0.6761,0.1081,-0.4465,0.0522,0.0532,0.0584,-0.2068,0.0259,9.6444,-1.8710,-0.5732,-0.0056,0.0007,0.0007,1.0000,0.2411,-0.0467,-0.0142
190099,Right,2,0.2259,-0.0192,-0.9432,0.2427,-0.0040,0.0008,0.0079,-0.0298,0.0976,-0.0135,-4.1074,1.3300,8.7975,-0.0001,0.0000,0.0001,1.0000,-0.1027,0.0333,0.2199
190099,Pelvis,2,-0.7278,0.0441,-0.6764,0.1045,-0.4291,0.0633,0.0437,0.0744,-0.0864,0.0690,9.6620,-1.9994,-0.5553,-0.0054,0.0008,0.0005,1.0000,0.2416,-0.0499,-0.0138
190100,Right,2,0.2258,-0.0192,-0.9434,0.2423,-0.0048,0.0042,0.0064,-0.0216,0.0861,-0.0198,-4.1045,1.3410,8.7900,-0.0001,0.0001,0.0001,1.0000,-0.1026,0.0335,0.2198
190100,Left,2,0.1979,0.0162,-0.9720,-0.1259,0.0289,0.0450,0.0255,-0.0085,0.1320,-0.0703,-3.6591,-0.9222,8.9829,0.0007,0.0011,0.0006,1.0000,-0.1824,-0.0466,0.4493
190100,Pelvis,2,-0.7278,0.0481,-0.6766,0.1011,-0.4133,0.0629,0.0497,0.0366,-0.0786,0.0865,9.6733,-2.0171,-0.5998,-0.0052,0.0008,0.0006,1.0000,0.2419,-0.0504,-0.0149
190101,Right,2,0.2258,-0.0191,-0.9433,0.2424,-0.0088,0.0056,0.0033,-0.0258,0.1137,-0.0270,-4.1115,1.3121,8.7833,-0.0001,0.0001,0.0000,1.0000,-0.1028,0.0328,0.2196
190101,Left,2,0.1982,0.0157,-0.9719,-0.1259,0.0357,0.0400,0.0267,0.0121,0.0725,-0.0176,-3.7249,-0.8637,9.0182,0.0004,0.0005,0.0003,1.0000,-0.0930,-0.0217,0.2255
190101,Pelvis,2,-0.7278,0.0519,-0.6769,0.0976,-0.4108,0.0594,0.0491,0.0101,-0.1639,0.0865,9.6879,-1.9383,-0.6387,-0.0051,0.0007,0.0006,1.0000,0.2422,-0.0484,-0.0159
190102,Right,2,0.2258,-0.0190,-0.9434,0.2422,-0.0065,0.0046,0.0039,0.0005,0.1297,-0.0185,-4.1430,1.3082,8.7788,-0.0001,0.0001,0.0000,1.0000,-0.1036,0.0327,0.2195
190102,Left,2,0.1984,0.0154,-0.9719,-0.1257,0.0315,0.0243,0.0195,0.0589,0.0522,0.0124,-3.7896,-0.8507,9.0252,0.0004,0.0003,0.0002,1.0000,-0.0947,-0.0214,0.2257
190102,Pelvis,2,-0.7277,0.0556,-0.6772,0.0940,-0.4002,0.0671,0.0265,-0.0773,-0.0244,0.1199,9.6843,-2.0866,-0.7234,-0.0050,0.0008,0.0003,1.0000,0.2421,-0.0522,-0.0180
190103,Right,2,0.2257,-0.0189,-0.9434,0.2421,-0.0031,0.0028,0.0057,-0.0132,0.1205,-0.0023,-4.1345,1.3108,8.8004,-0.0000,0.0000,0.0001,1.0000,-0.1034,0.0328,0.2200
190103,Left,2,0.1982,0.0151,-0.9719,-0.1258,0.0282,-0.0036,0.0053,0.0502,0.0383,-0.0356,-3.7658,-0.8254,8.9851,0.0004,-0.0000,0.0001,1.0000,-0.0942,-0.0207,0.2246
190103,Pelvis,2,-0.7276,0.0586,-0.6775,0.0907,-0.3536,0.0594,0.0058,-0.0864,0.1573,0.0013,9.5311,-2.2334,-0.7187,-0.0044,0.0007,0.0001,1.0000,0.2383,-0.0559,-0.0179
190104,Right,2,0.2256,-0.0190,-0.9435,0.2419,0.0002,-0.0007,0.0067,-0.0122,0.1144,-0.0234,-4.1227,1.3128,8.7820,0.0000,-0.0000,0.0001,1.0000,-0.1031,0.0328,0.2195
190104,Pelvis,2,-0.7275,0.0612,-0.6777,0.0879,-0.3024,0.0489,0.0094,-0.0808,0.2437,-0.0471,9.4676,-2.3005,-0.7109,-0.0038,0.0006,0.0001,1.0000,0.2367,-0.0576,-0.0177
190105,Right,2,0.2256,-0.0190,-0.9435,0.2419,0.0002,0.0003,0.0087,-0.0199,0.1109,-0.0270,-4.1129,1.3114,8.7828,0.0000,0.0000,0.0001,1.0000,-0.1028,0.0328,0.2196
190105,Left,2,0.1976,0.0149,-0.9720,-0.1259,0.0231,-0.0141,-0.0026,-0.0083,0.0845,-0.0725,-3.6828,-0.8478,8.9775,0.0006,-0.0004,-0.0001,1.0000,-0.1843,-0.0426,0.4488
190105,Pelvis,2,-0.7273,0.0635,-0.6780,0.0857,-0.2463,0.0525,0.0180,-0.0190,0.2985,0.0263,9.5329,-2.3644,-0.6557,-0.0031,0.0007,0.0002,1.0000,0.2383,-0.0591,-0.0164
190106,Right,2,0.2256,-0.0189,-0.9435,0.2419,-0.0050,0.0023,0.0068,-0.0198,0.0935,-0.0134,-4.1100,1.3283,8.7965,-0.0001,0.0000,0.0001,1.0000,-0.1027,0.0332,0.2199
190106,Left,2,0.1974,0.0149,-0.9721,-0.1260,0.0173,-0.0079,-0.0037,-0.0206,0.1001,-0.0885,-3.6533,-0.8575,8.9716,0.0002,-0.0001,-0.0000,1.0000,-0.0914,-0.0215,0.2243
190106,Pelvis,2,-0.7272,0.0652,-0.6782,0.0841,-0.1857,0.0406,0.0227,-0.0145,0.2668,0.0910,9.6029,-2.3463,-0.6584,-0.0023,0.0005,0.0003,1.0000,0.2401,-0.0586,-0.0164
190107,Right,2,0.2255,-0.0189,-0.9437,0.2414,-0.0076,0.0059,0.0052,-0.0305,0.0864,-0.0294,-4.0906,1.3250,8.7882,-0.0001,0.0001,0.0001,1.0000,-0.1023,0.0331,0.2197
190107,Left,2,0.1972,0.0149,-0.9721,-0.1260,0.0155,-0.0038,0.0006,0.0014,0.1064,-0.0404,-3.6873,-0.8716,9.0085,0.0002,-0.0000,0.0000,1.0000,-0.0922,-0.0218,0.2252
190107,Pelvis,2,-0.7270,0.0666,-0.6783,0.0828,-0.1343,0.0341,0.0193,-0.0912,0.2414,0.0671,9.5793,-2.3179,-0.7355,-0.0017,0.0004,0.0002,1.0000,0.2395,-0.0579,-0.0184
190108,Right,2,0.2255,-0.0188,-0.9438,0.2409,-0.0089,0.0145,0.0011,-0.0140,0.0714,-0.0532,-4.0871,1.3386,8.7611,-0.0001,0.0002,0.0000,1.0000,-0.1021,0.0335,0.2190
190108,Left,2,0.1970,0.0148,-0.9722,-0.1261,0.0141,-0.0069,0.0014,0.0096,0.0806,-0.0682,-3.6860,-0.8449,8.9811,0.0002,-0.0001,0.0000,1.0000,-0.0922,-0.0212,0.2245
190108,Pelvis,2,-0.7269,0.0674,-0.6785,0.0821,-0.0812,0.0246,0.0145,-0.0810,0.2207,-0.0279,9.4917,-2.2778,-0.7189,-0.0010,0.0003,0.0002,1.0000,0.2373,-0.0569,-0.0180
190109,Right,2,0.2256,-0.0187,-0.9438,0.2407,-0.0098,0.0177,0.0014,-0.0124,0.1286,0.0128,-4.1450,1.2949,8.8148,-0.0001,0.0002,0.0000,1.0000,-0.1036,0.0324,0.2204
190109,Left,2,0.1970,0.0148,-0.9721,-0.1262,0.0122,-0.0027,0.0013,-0.0314,0.1255,-0.0904,-3.6289,-0.8756,8.9779,0.0002,-0.0000,0.0000,1.0000,-0.0907,-0.0219,0.2244
190109,Pelvis,2,-0.7268,0.0679,-0.6786,0.0818,-0.0380,0.0219,0.0180,-0.0841,0.1685,-0.0999,9.4320,-2.2127,-0.7176,-0.0005,0.0003,0.0002,1.0000,0.2358,-0.0553,-0.0180
190110,Right,2,0.2257,-0.0185,-0.9438,0.2408,-0.0077,0.0144,0.0012,-0.0033,0.1050,-0.0444,-4.1203,1.3095,8.7600,-0.0001,0.0002,0.0000,1.0000,-0.1030,0.0328,0.2190
190110,Pelvis,2,-0.7268,0.0681,-0.6786,0.0818,-0.0068,-0.0009,0.0229,-0.0797,0.1372,-0.0352,9.5016,-2.1979,-0.7171,-0.0001,-0.0000,0.0003,1.0000,0.2376,-0.0549,-0.0179
190111,Right,2,0.2258,-0.0184,-0.9439,0.2404,-0.0092,0.0176,0.0008,-0.0144,0.1035,-0.0393,-4.1155,1.3036,8.7689,-0.0001,0.0002,0.0000,1.0000,-0.1028,0.0326,0.2192
190111,Left,2,0.1971,0.0147,-0.9721,-0.1260,0.0121,0.0126,0.0081,-0.0353,0.1235,-0.0904,-3.6271,-0.8705,8.9792,0.0003,0.0003,0.0002,1.0000,-0.1812,-0.0437,0.4490
190111,Pelvis,2,-0.7270,0.0681,-0.6784,0.0819,0.0128,-0.0241,0.0143,-0.0732,0.0884,0.0326,9.5774,-2.1676,-0.7200,0.0002,-0.0003,0.0002,1.0000,0.2395,-0.0541,-0.0179
190112,Right,2,0.2260,-0.0182,-0.9439,0.2402,-0.0077,0.0194,-0.0001,-0.0035,0.1108,-0.0146,-4.1409,1.3024,8.7848,-0.0001,0.0002,-0.0000,1.0000,-0.1035,0.0326,0.2196
190112,Left,2,0.1971,0.0147,-0.9721,-0.1259,0.0113,0.0169,0.0091,0.0177,0.0900,-0.0500,-3.6981,-0.8540,8.9952,0.0001,0.0002,0.0001,1.0000,-0.0924,-0.0214,0.2249
190112,Pelvis,2,-0.7272,0.0679,-0.6780,0.0822,0.0340,-0.0363,0.0074,-0.0768,0.0765,-0.0097,9.5377,-2.1480,-0.7276,0.0004,-0.0005,0.0001,1.0000,0.2385,-0.0537,-0.0181
190113,Right,2,0.2261,-0.0181,-0.9439,0.2402,-0.0078,0.0142,0.0024,0.0009,0.1230,-0.0046,-4.1573,1.2918,8.7899,-0.0001,0.0002,0.0000,1.0000,-0.1039,0.0323,0.2198
190113,Left,2,0.1971,0.0147,-0.9721,-0.1259,0.0093,0.0051,0.0035,0.0263,0.0766,-0.0396,-3.7143,-0.8433,9.0007,0.0001,0.0001,0.0000,1.0000,-0.0928,-0.0211,0.2250
190113,Pelvis,2,-0.7277,0.0675,-0.6776,0.0826,0.0501,-0.0566,0.0049,-0.0564,0.0190,0.0055,9.5651,-2.0957,-0.7192,0.0006,-0.0007,0.0001,1.0000,0.2391,-0.0524,-0.0178
190114,Right,2,0.2261,-0.0179,-0.9439,0.2399,-0.0110,0.0124,0.0002,-0.0106,0.0835,-0.0257,-4.1232,1.3149,8.7785,-0.0001,0.0002,0.0000,1.0000,-0.1030,0.0329,0.2195
190114,Left,2,0.1970,0.0147,-0.9722,-0.1259,0.0100,-0.0029,0.0013,-0.0055,0.1083,-0.0708,-3.6649,-0.8640,8.9855,0.0001,-0.0000,0.0000,1.0000,-0.0916,-0.0216,0.2246
190114,Pelvis,2,-0.7281,0.0668,-0.6772,0.0832,0.0682,-0.0521,0.0018,-0.0186,0.0475,0.0404,9.5951,-2.1304,-0.6932,0.0009,-0.0007,0.0000,1.0000,0.2399,-0.0532,-0.0172
190115,Right,2,0.2261,-0.0177,-0.9441,0.2393,-0.0140,0.0133,0.0007,-0.0132,0.0985,0.0017,-4.1411,1.2993,8.8032,-0.0002,0.0002,0.0000,1.0000,-0.1035,0.0325,0.2201
190115,Left,2,0.1968,0.0147,-0.9722,-0.1259,0.0109,-0.0035,0.0015,0.0132,0.0934,-0.0506,-3.6905,-0.8555,8.9976,0.0001,-0.0000,0.0000,1.0000,-0.0923,-0.0214,0.2249
190115,Pelvis,2,-0.7284,0.0660,-0.6767,0.0840,0.0875,-0.0527,0.0028,-0.0048,0.0411,0.0887,9.6437,-2.1353,-0.6917,0.0011,-0.0007,0.0000,1.0000,0.2411,-0.0534,-0.0172
190116,Right,2,0.2262,-0.0175,-0.9441,0.2391,-0.0139,0.0139,0.0002,-0.0027,0.1112,-0.0293,-4.1446,1.2836,8.7694,-0.0002,0.0002,0.0000,1.0000,-0.1036,0.0321,0.2192
190116,Left,2,0.1967,0.0147,-0.9722,-0.1260,0.0105,-0.0057,-0.0005,0.0145,0.0907,-0.0603,-3.6858,-0.8516,8.9893,0.0001,-0.0001,-0.0000,1.0000,-0.0922,-0.0213,0.2247
190116,Pelvis,2,-0.7288,0.0652,-0.6763,0.0849,0.0990,-0.0567,0.0045,-0.0258,0.0459,0.0894,9.6408,-2.1425,-0.7211,0.0012,-0.0007,0.0001,1.0000,0.2410,-0.0535,-0.0179
190117,Right,2,0.2263,-0.0173,-0.9441,0.2392,-0.0121,0.0131,0.0002,-0.0155,0.1246,-0.0055,-4.1532,1.2656,8.7947,-0.0002,0.0002,0.0000,1.0000,-0.1038,0.0317,0.2199
190117,Left,2,0.1966,0.0147,-0.9722,-0.1260,0.0079,-0.0066,-0.0011,-0.0107,0.1114,-0.0811,-3.6482,-0.8649,8.9810,0.0001,-0.0001,-0.0000,1.0000,-0.0912,-0.0216,0.2245
190117,Pelvis,2,-0.7291,0.0643,-0.6759,0.0860,0.1102,-0.0485,0.0062,0.0142,0.0146,-0.0032,9.5589,-2.0944,-0.6832,0.0014,-0.0006,0.0001,1.0000,0.2390,-0.0523,-0.0170
190118,Right,2,0.2263,-0.0171,-0.9442,0.2388,-0.0104,0.0133,0.0022,-0.0082,0.1128,-0.0118,-4.1528,1.2745,8.7864,-0.0001,0.0002,0.0000,1.0000,-0.1038,0.0319,0.2197
190118,Left,2,0.1964,0.0148,-0.9723,-0.1260,0.0083,-0.0066,-0.0006,-0.0078,0.1189,-0.0622,-3.6531,-0.8756,8.9986,0.0001,-0.0001,-0.0000,1.0000,-0.0913,-0.0219,0.2250
190118,Pelvis,2,-0.7294,0.0633,-0.6756,0.0871,0.1102,-0.0445,0.0048,0.0234,-0.0609,0.0481,9.6245,-2.0340,-0.6864,0.0014,-0.0006,0.0001,1.0000,0.2406,-0.0508,-0.0171
190119,Right,2,0.2263,-0.0170,-0.9441,0.2390,-0.0066,0.0085,0.0031,-0.0174,0.1189,-0.0178,-4.1477,1.2613,8.7841,-0.0001,0.0001,0.0000,1.0000,-0.1037,0.0315,0.2196
190119,Left,2,0.1962,0.0149,-0.9723,-0.1261,0.0080,-0.0037,0.0004,0.0139,0.1116,-0.0719,-3.6663,-0.8732,8.9828,0.0001,-0.0000,0.0000,1.0000,-0.0917,-0.0219,0.2246
190119,Pelvis,2,-0.7295,0.0624,-0.6754,0.0880,0.1006,-0.0316,-0.0020,0.0516,-0.0767,0.0438,9.6252,-2.0190,-0.6628,0.0013,-0.0004,-0.0000,1.0000,0.2406,-0.0505,-0.0165
190120,Right,2,0.2264,-0.0168,-0.9441,0.2391,-0.0033,0.0065,0.0061,-0.0075,0.1202,-0.0142,-4.1587,1.2630,8.7827,-0.0000,0.0001,0.0001,1.0000,-0.1040,0.0316,0.2196
190120,Left,2,0.1960,0.0149,-0.9723,-0.1261,0.0080,-0.0008,0.0020,-0.0123,0.1134,-0.0914,-3.6315,-0.8673,8.9765,0.0001,-0.0000,0.0000,1.0000,-0.0908,-0.0217,0.2244
190120,Pelvis,2,-0.7297,0.0616,-0.6752,0.0888,0.0866,-0.0224,-0.0016,0.0204,-0.0983,0.0317,9.6150,-1.9970,-0.6960,0.0011,-0.0003,-0.0000,1.0000,0.2404,-0.0499,-0.0174
190121,Right,2,0.2263,-0.0169,-0.9443,0.2383,-0.0025,0.0082,0.0069,-0.0067,0.1220,-0.0376,-4.1502,1.2554,8.7616,-0.0000,0.0001,0.0001,1.0000,-0.1037,0.0314,0.2191
190121,Left,2,0.1959,0.0149,-0.9724,-0.1261,0.0069,0.0013,0.0028,-0.0103,0.1105,-0.0816,-3.6352,-0.8668,8.9856,0.0001,0.0000,0.0000,1.0000,-0.0909,-0.0217,0.2246
190121,Pelvis,2,-0.7297,0.0609,-0.6752,0.0895,0.0716,-0.0121,-0.0022,0.0040,-0.0725,0.0519,9.6279,-2.0277,-0.7130,0.0009,-0.0002,-0.0000,1.0000,0.2407,-0.0507,-0.0178
190122,Right,2,0.2264,-0.0169,-0.9444,0.2379,0.0001,0.0088,0.0047,0.0015,0.1150,-0.0229,-4.1605,1.2653,8.7717,0.0000,0.0001,0.0001,1.0000,-0.1040,0.0316,0.2193
190122,Left,2,0.1959,0.0149,-0.9724,-0.1261,0.0075,0.0035,0.0039,-0.0228,0.0924,-0.0607,-3.6359,-0.8480,9.0095,0.0001,0.0000,0.0000,1.0000,-0.0909,-0.0212,0.2252
190122,Pelvis,2,-0.7297,0.0603,-0.6751,0.0900,0.0665,-0.0087,-0.0052,-0.0273,-0.0541,0.0693,9.6385,-2.0504,-0.7437,0.0008,-0.0001,-0.0001,1.0000,0.2410,-0.0513,-0.0186
190123,Right,2,0.2264,-0.0168,-0.9444,0.2379,0.0013,0.0096,0.0073,-0.0115,0.1222,-0.0201,-4.1562,1.2526,8.7788,0.0000,0.0001,0.0001,1.0000,-0.1039,0.0313,0.2195
190123,Left,2,0.1958,0.0150,-0.9724,-0.1260,0.0089,0.0058,0.0052,0.0136,0.1117,-0.0627,-3.6614,-0.8759,8.9946,0.0001,0.0001,0.0001,1.0000,-0.0915,-0.0219,0.2249
190123,Pelvis,2,-0.7296,0.0598,-0.6753,0.0905,0.0572,0.0091,-0.0027,0.0095,-0.0674,0.0453,9.6210,-2.0314,-0.7029,0.0007,0.0001,-0.0000,1.0000,0.2405,-0.0508,-0.0176
190124,Right,2,0.2265,-0.0168,-0.9444,0.2379,0.0034,0.0063,0.0070,0.0042,0.1125,-0.0228,-4.1639,1.2674,8.7698,0.0000,0.0001,0.0001,1.0000,-0.1041,0.0317,0.2193
190124,Left,2,0.1958,0.0150,-0.9724,-0.1260,0.0096,0.0029,0.0047,-0.0080,0.0932,-0.0613,-3.6463,-0.8532,9.0041,0.0001,0.0000,0.0001,1.0000,-0.0911,-0.0214,0.2251
190124,Pelvis,2,-0.7295,0.0594,-0.6753,0.0910,0.0460,0.0023,0.0013,-0.0169,-0.0607,0.0006,9.5740,-2.0302,-0.7221,0.0006,0.0000,0.0000,1.0000,0.2393,-0.0507,-0.0181
190125,Right,2,0.2264,-0.0170,-0.9445,0.2372,0.0032,0.0054,0.0094,-0.0014,0.1143,-0.0053,-4.1673,1.2650,8.7881,0.0000,0.0001,0.0001,1.0000,-0.1042,0.0316,0.2197
190125,Left,2,0.1958,0.0150,-0.9724,-0.1259,0.0107,0.0030,0.0054,0.0075,0.1169,-0.0632,-3.6533,-0.8799,8.9969,0.0001,0.0000,0.0001,1.0000,-0.0913,-0.0220,0.2249
190125,Pelvis,2,-0.7293,0.0591,-0.6755,0.0914,0.0451,0.0225,-0.0005,-0.0308,-0.0210,0.0045,9.5685,-2.0714,-0.7291,0.0006,0.0003,-0.0000,1.0000,0.2392,-0.0518,-0.0183
190126,Right,2,0.2265,-0.0169,-0.9444,0.2376,0.0050,0.0051,0.0107,-0.0013,0.1082,-0.0264,-4.1562,1.2686,8.7692,0.0001,0.0001,0.0001,1.0000,-0.1039,0.0317,0.2192
190126,Left,2,0.1958,0.0150,-0.9724,-0.1259,0.0114,0.0074,0.0080,-0.0022,0.1143,-0.0924,-3.6347,-0.8722,8.9736,0.0001,0.0001,0.0001,1.0000,-0.0908,-0.0218,0.2243
190126,Pelvis,2,-0.7291,0.0586,-0.6757,0.0919,0.0561,0.0192,0.0003,-0.0195,-0.0350,0.0171,9.5850,-2.0609,-0.7122,0.0007,0.0002,0.0000,1.0000,0.2396,-0.0515,-0.0179
190127,Right,2,0.2264,-0.0171,-0.9445,0.2373,0.0077,0.0022,0.0112,-0.0008,0.1222,-0.0077,-4.1707,1.2602,8.7847,0.0001,0.0000,0.0001,1.0000,-0.1043,0.0315,0.2196
190127,Left,2,0.1959,0.0150,-0.9724,-0.1258,0.0132,0.0090,0.0076,0.0151,0.0990,-0.0723,-3.6629,-0.8626,8.9846,0.0002,0.0001,0.0001,1.0000,-0.0915,-0.0216,0.2246
190127,Pelvis,2,-0.7288,0.0583,-0.6759,0.0923,0.0491,0.0219,0.0038,-0.0546,-0.1022,0.0113,9.5908,-1.9969,-0.7435,0.0006,0.0003,0.0000,1.0000,0.2398,-0.0499,-0.0187
190128,Right,2,0.2264,-0.0171,-0.9444,0.2378,0.0077,-0.0007,0.0158,-0.0051,0.1320,-0.0013,-4.1737,1.2521,8.7916,0.0001,-0.0000,0.0002,1.0000,-0.1044,0.0313,0.2198
190128,Left,2,0.1959,0.0149,-0.9724,-0.1256,0.0131,0.0061,0.0083,0.0342,0.0929,-0.0626,-3.6865,-0.8611,8.9857,0.0002,0.0001,0.0001,1.0000,-0.0921,-0.0216,0.2246
190128,Pelvis,2,-0.7287,0.0581,-0.6761,0.0927,0.0327,0.0176,0.0082,-0.0185,-0.1865,-0.0230,9.5780,-1.9082,-0.7036,0.0004,0.0002,0.0001,1.0000,0.2395,-0.0477,-0.0177
190129,Right,2,0.2264,-0.0172,-0.9444,0.2377,0.0097,-0.0013,0.0127,0.0030,0.1112,-0.0053,-4.1677,1.2760,8.7863,0.0001,-0.0000,0.0002,1.0000,-0.1042,0.0319,0.2197
190129,Left,2,0.1958,0.0150,-0.9725,-0.1256,0.0132,-0.0026,0.0029,0.0256,0.0929,-0.0430,-3.6853,-0.8600,9.0075,0.0002,-0.0000,0.0000,1.0000,-0.0921,-0.0215,0.2252
190129,Pelvis,2,-0.7286,0.0581,-0.6762,0.0929,0.0161,0.0110,0.0104,-0.0162,-0.1958,-0.0426,9.5607,-1.8975,-0.6962,0.0002,0.0001,0.0001,1.0000,0.2390,-0.0474,-0.0174
190130,Right,2,0.2263,-0.0175,-0.9446,0.2372,0.0092,-0.0045,0.0148,0.0048,0.1099,-0.0053,-4.1666,1.2795,8.7863,0.0001,-0.0001,0.0002,1.0000,-0.1042,0.0319,0.2197
190130,Left,2,0.1956,0.0149,-0.9725,-0.1256,0.0172,-0.0089,0.0015,0.0090,0.1043,-0.0338,-3.6688,-0.8666,9.0236,0.0002,-0.0001,0.0000,1.0000,-0.0917,-0.0217,0.2256
190130,Pelvis,2,-0.7285,0.0583,-0.6762,0.0930,0.0008,0.0037,0.0143,-0.0271,-0.1964,0.0196,9.6202,-1.9137,-0.7098,0.0000,0.0000,0.0002,1.0000,0.2405,-0.0478,-0.0178
190131,Right,2,0.2262,-0.0176,-0.9447,0.2370,0.0073,-0.0059,0.0127,-0.0028,0.1066,-0.0089,-4.1556,1.2805,8.7874,0.0001,-0.0001,0.0002,1.0000,-0.1039,0.0320,0.2197
190131,Left,2,0.1954,0.0148,-0.9725,-0.1257,0.0194,-0.0131,-0.0001,-0.0085,0.1123,-0.0831,-3.6291,-0.8644,8.9867,0.0002,-0.0002,-0.0000,1.0000,-0.0908,-0.0217,0.2246
190131,Pelvis,2,-0.7286,0.0585,-0.6761,0.0930,-0.0086,-0.0038,0.0176,-0.0260,-0.1489,0.0264,9.6161,-1.9651,-0.7070,-0.0001,-0.0000,0.0002,1.0000,0.2404,-0.0491,-0.0177
190132,Right,2,0.2261,-0.0176,-0.9445,0.2376,0.0062,-0.0042,0.0147,-0.0174,0.1094,-0.0272,-4.1359,1.2715,8.7775,0.0001,-0.0001,0.0002,1.0000,-0.1034,0.0318,0.2194
190132,Left,2,0.1953,0.0147,-0.9725,-0.1258,0.0162,-0.0046,0.0038,-0.0307,0.1435,-0.0946,-3.5938,-0.8866,8.9868,0.0002,-0.0001,0.0000,1.0000,-0.0899,-0.0222,0.2247
190132,Pelvis,2,-0.7286,0.0588,-0.6760,0.0931,-0.0129,-0.0075,0.0188,-0.0417,-0.1160,0.0239,9.6045,-2.0014,-0.7227,-0.0002,-0.0001,0.0002,1.0000,0.2401,-0.0500,-0.0180
190133,Right,2,0.2260,-0.0179,-0.9447,0.2367,0.0074,-0.0047,0.0129,-0.0007,0.1050,-0.0088,-4.1526,1.2863,8.7879,0.0001,-0.0001,0.0002,1.0000,-0.1038,0.0321,0.2197
190133,Left,2,0.1953,0.0147,-0.9725,-0.1257,0.0153,0.0062,0.0083,-0.0161,0.1172,-0.0836,-3.6175,-0.8654,8.9907,0.0002,0.0001,0.0001,1.0000,-0.0904,-0.0217,0.2248
190133,Pelvis,2,-0.7287,0.0591,-0.6759,0.0930,-0.0201,-0.0085,0.0147,-0.0550,-0.1712,0.0728,9.6617,-1.9624,-0.7456,-0.0003,-0.0001,0.0002,1.0000,0.2416,-0.0490,-0.0186
190134,Right,2,0.2260,-0.0179,-0.9446,0.2373,0.0081,-0.0036,0.0136,-0.0067,0.1105,-0.0236,-4.1426,1.2798,8.7772,0.0001,-0.0000,0.0002,1.0000,-0.1036,0.0320,0.2194
190134,Left,2,0.1954,0.0147,-0.9725,-0.1257,0.0137,0.0083,0.0072,0.0104,0.0989,-0.0733,-3.6509,-0.8544,8.9892,0.0002,0.0001,0.0001,1.0000,-0.0912,-0.0214,0.2247
190134,Pelvis,2,-0.7288,0.0592,-0.6758,0.0929,-0.0197,-0.0041,0.0016,-0.0230,-0.1657,0.0588,9.6489,-1.9651,-0.7151,-0.0002,-0.0001,0.0000,1.0000,0.2412,-0.0491,-0.0179
190135,Right,2,0.2260,-0.0180,-0.9446,0.2373,0.0057,0.0012,0.0116,-0.0057,0.0772,-0.0288,-4.1250,1.3101,8.7749,0.0001,0.0000,0.0001,1.0000,-0.1031,0.0327,0.2194
190135,Left,2,0.1954,0.0147,-0.9725,-0.1256,0.0125,0.0053,0.0050,0.0119,0.0964,-0.0635,-3.6563,-0.8522,8.9978,0.0002,0.0001,0.0001,1.0000,-0.0914,-0.0213,0.2249
190135,Pelvis,2,-0.7288,0.0593,-0.6758,0.0928,-0.0155,-0.0006,-0.0002,-0.0253,-0.1326,0.0526,9.6356,-1.9961,-0.7168,-0.0002,-0.0000,-0.0000,1.0000,0.2409,-0.0499,-0.0179
190136,Right,2,0.2260,-0.0180,-0.9446,0.2375,0.0040,0.0015,0.0103,-0.0103,0.0877,-0.0224,-4.1283,1.3011,8.7819,0.0000,0.0000,0.0001,1.0000,-0.1032,0.0325,0.2196
190136,Left,2,0.1953,0.0146,-0.9726,-0.1257,0.0136,0.0025,0.0064,0.0082,0.1157,-0.0549,-3.6501,-0.8690,9.0083,0.0002,0.0000,0.0001,1.0000,-0.0912,-0.0218,0.2252
190136,Pelvis,2,-0.7288,0.0594,-0.6758,0.0928,-0.0096,0.0016,0.0065,-0.0496,-0.1427,0.0403,9.6236,-1.9852,-0.7416,-0.0001,0.0000,0.0001,1.0000,0.2406,-0.0496,-0.0185
190137,Right,2,0.2259,-0.0181,-0.9447,0.2371,0.0020,-0.0005,0.0081,0.0145,0.1126,-0.0164,-4.1607,1.2910,8.7751,0.0000,-0.0000,0.0001,1.0000,-0.1040,0.0323,0.2194
190137,Left,2,0.1952,0.0146,-0.9726,-0.1256,0.0150,0.0018,0.0062,-0.0035,0.0936,-0.0732,-3.6362,-0.8428,8.9964,0.0002,0.0000,0.0001,1.0000,-0.0909,-0.0211,0.2249
190137,Pelvis,2,-0.7288,0.0596,-0.6758,0.0927,-0.0092,0.0060,0.0070,-0.0367,-0.1497,0.0594,9.6444,-1.9835,-0.7303,-0.0001,0.0001,0.0001,1.0000,0.2411,-0.0496,-0.0183
190138,Right,2,0.2259,-0.0180,-0.9445,0.2377,0.0026,0.0005,0.0101,0.0061,0.1099,-0.0200,-4.1509,1.2902,8.7758,0.0000,0.0000,0.0001,1.0000,-0.1038,0.0322,0.2194
190138,Left,2,0.1951,0.0145,-0.9726,-0.1257,0.0123,-0.0013,0.0028,0.0198,0.1068,-0.0646,-3.6563,-0.8608,8.9959,0.0002,-0.0000,0.0000,1.0000,-0.0914,-0.0216,0.2249
190138,Pelvis,2,-0.7288,0.0596,-0.6758,0.0927,-0.0068,0.0017,-0.0022,-0.0629,-0.1505,0.0668,9.6495,-1.9859,-0.7568,-0.0001,0.0000,-0.0000,1.0000,0.2412,-0.0497,-0.0189
190139,Right,2,0.2258,-0.0181,-0.9446,0.2376,0.0037,-0.0009,0.0100,0.0028,0.1050,-0.0323,-4.1398,1.2915,8.7670,0.0000,-0.0000,0.0001,1.0000,-0.1035,0.0323,0.2192
190139,Left,2,0.1950,0.0145,-0.9726,-0.1258,0.0129,-0.0070,0.0008,0.0091,0.0977,-0.0445,-3.6545,-0.8504,9.0193,0.0002,-0.0001,0.0000,1.0000,-0.0914,-0.0213,0.2255
190139,Pelvis,2,-0.7288,0.0596,-0.6758,0.0926,0.0014,0.0022,-0.0056,-0.0580,-0.1616,0.0047,9.5920,-1.9604,-0.7482,0.0000,0.0000,-0.0001,1.0000,0.2398,-0.0490,-0.0187
190140,Right,2,0.2258,-0.0181,-0.9445,0.2378,0.0046,-0.0036,0.0110,-0.0043,0.1075,-0.0148,-4.1415,1.2897,8.7861,0.0001,-0.0000,0.0001,1.0000,-0.1036,0.0322,0.2196
190140,Left,2,0.1946,0.0145,-0.9727,-0.1258,0.0116,-0.0152,-0.0022,0.0128,0.1041,-0.0451,-3.6511,-0.8574,9.0195,0.0001,-0.0002,-0.0000,1.0000,-0.0913,-0.0215,0.2255
190140,Pelvis,2,-0.7289,0.0595,-0.6758,0.0926,0.0046,-0.0048,-0.0070,-0.0420,-0.1469,-0.0153,9.5710,-1.9684,-0.7306,0.0001,-0.0001,-0.0001,1.0000,0.2393,-0.0492,-0.0183
190141,Right,2,0.2257,-0.0183,-0.9447,0.2371,0.0053,-0.0025,0.0118,0.0033,0.0951,-0.0211,-4.1371,1.3031,8.7789,0.0001,-0.0000,0.0001,1.0000,-0.1034,0.0325,0.2195
190141,Left,2,0.1943,0.0146,-0.9727,-0.1259,0.0138,-0.0245,-0.0055,-0.0052,0.1137,-0.0553,-3.6240,-0.8624,9.0190,0.0002,-0.0003,-0.0001,1.0000,-0.0907,-0.0216,0.2254
190141,Pelvis,2,-0.7289,0.0594,-0.6757,0.0926,0.0063,-0.0017,-0.0023,-0.0678,-0.1238,-0.0045,9.5747,-1.9932,-0.7568,0.0001,-0.0000,-0.0000,1.0000,0.2394,-0.0498,-0.0189
190142,Right,2,0.2256,-0.0184,-0.9447,0.2373,0.0046,-0.0025,0.0124,-0.0079,0.1112,-0.0295,-4.1309,1.2846,8.7755,0.0001,-0.0000,0.0002,1.0000,-0.1033,0.0321,0.2194
190142,Left,2,0.1940,0.0147,-0.9728,-0.1260,0.0109,-0.0167,-0.0033,-0.0469,0.0943,-0.1319,-3.5558,-0.8283,8.9666,0.0001,-0.0002,-0.0000,1.0000,-0.0889,-0.0207,0.2241
190142,Pelvis,2,-0.7289,0.0593,-0.6757,0.0928,0.0181,0.0016,0.0048,-0.0631,-0.0788,-0.0109,9.5592,-2.0362,-0.7490,0.0002,0.0000,0.0001,1.0000,0.2390,-0.0509,-0.0187
190143,Right,2,0.2256,-0.0184,-0.9446,0.2376,0.0036,-0.0021,0.0099,0.0112,0.1001,-0.0410,-4.1349,1.3021,8.7580,0.0000,-0.0000,0.0001,1.0000,-0.1034,0.0325,0.2189
190143,Left,2,0.1939,0.0147,-0.9728,-0.1260,0.0070,0.0020,0.0020,-0.0453,0.1423,-0.1152,-3.5480,-0.8769,8.9836,0.0001,0.0000,0.0000,1.0000,-0.0887,-0.0219,0.2246
190143,Pelvis,2,-0.7290,0.0592,-0.6756,0.0931,0.0209,-0.0130,0.0065,-0.0338,-0.0948,0.0142,9.5889,-2.0265,-0.7233,0.0003,-0.0002,0.0001,1.0000,0.2397,-0.0506,-0.0181
190144,Right,2,0.2255,-0.0185,-0.9448,0.2368,0.0026,0.0005,0.0101,-0.0100,0.0936,-0.0072,-4.1278,1.3031,8.7989,0.0000,0.0000,0.0001,1.0000,-0.1032,0.0326,0.2200
190144,Left,2,0.1940,0.0148,-0.9728,-0.1260,0.0071,0.0130,0.0044,0.0003,0.1116,-0.0850,-3.6075,-0.8618,8.9935,0.0001,0.0002,0.0001,1.0000,-0.0902,-0.0216,0.2249
190144,Pelvis,2,-0.7290,0.0590,-0.6755,0.0933,0.0211,-0.0125,0.0063,-0.0505,-0.2043,0.0205,9.6164,-1.9237,-0.7488,0.0003,-0.0002,0.0001,1.0000,0.2404,-0.0481,-0.0187
190145,Right,2,0.2255,-0.0186,-0.9449,0.2365,0.0003,0.0015,0.0088,-0.0095,0.0870,-0.0283,-4.1158,1.3059,8.7805,0.0000,0.0000,0.0001,1.0000,-0.1029,0.0326,0.2195
190145,Left,2,0.1941,0.0148,-0.9728,-0.1260,0.0089,0.0138,0.0084,0.0345,0.1234,-0.0570,-3.6469,-0.8840,9.0060,0.0001,0.0002,0.0001,1.0000,-0.0911,-0.0221,0.2252
190145,Pelvis,2,-0.7292,0.0590,-0.6753,0.0935,0.0039,-0.0184,0.0053,-0.0497,-0.2683,0.0168,9.6258,-1.8621,-0.7546,0.0000,-0.0002,0.0001,1.0000,0.2407,-0.0465,-0.0188
190146,Right,2,0.2254,-0.0186,-0.9449,0.2365,0.0016,0.0019,0.0090,0.0014,0.1055,-0.0382,-4.1283,1.2927,8.7657,0.0000,0.0000,0.0001,1.0000,-0.1032,0.0323,0.2191
190146,Left,2,0.1940,0.0147,-0.9728,-0.1260,0.0130,0.0061,0.0069,0.0264,0.1226,-0.0569,-3.6403,-0.8804,9.0091,0.0002,0.0001,0.0001,1.0000,-0.0910,-0.0221,0.2252
190146,Pelvis,2,-0.7293,0.0590,-0.6752,0.0935,-0.0060,-0.0131,0.0036,-0.0475,-0.2376,0.0267,9.6286,-1.8953,-0.7555,-0.0001,-0.0002,0.0000,1.0000,0.2407,-0.0474,-0.0188
190147,Right,2,0.2254,-0.0185,-0.9449,0.2367,-0.0005,0.0048,0.0079,0.0180,0.1010,-0.0199,-4.1468,1.3057,8.7755,-0.0000,0.0001,0.0001,1.0000,-0.1037,0.0326,0.2194
190147,Pelvis,2,-0.7295,0.0591,-0.6750,0.0934,-0.0121,-0.0125,-0.0004,-0.0618,-0.1813,0.0569,9.6445,-1.9575,-0.7725,-0.0002,-0.0002,-0.0000,1.0000,0.2411,-0.0489,-0.0193
190148,Right,2,0.2254,-0.0186,-0.9450,0.2362,-0.0001,0.0018,0.0064,0.0027,0.1006,-0.0059,-4.1403,1.3002,8.7949,-0.0000,0.0000,0.0001,1.0000,-0.1035,0.0325,0.2199
190148,Left,2,0.1939,0.0146,-0.9728,-0.1260,0.0127,0.0020,0.0055,0.0030,0.0990,-0.0651,-3.6222,-0.8490,9.0102,0.0003,0.0001,0.0001,1.0000,-0.1811,-0.0426,0.4505
190148,Pelvis,2,-0.7296,0.0592,-0.6749,0.0933,-0.0119,-0.0158,-0.0007,-0.0392,-0.1546,0.0368,9.6208,-1.9780,-0.7512,-0.0001,-0.0002,-0.0000,1.0000,0.2405,-0.0495,-0.0187
190149,Right,2,0.2254,-0.0184,-0.9448,0.2371,-0.0002,0.0016,0.0082,-0.0172,0.0883,-0.0020,-4.1207,1.3036,8.8079,-0.0000,0.0000,0.0001,1.0000,-0.1030,0.0326,0.2202
190149,Left,2,0.1939,0.0147,-0.9728,-0.1260,0.0096,0.0015,0.0024,-0.0130,0.1091,-0.0950,-3.5926,-0.8541,8.9894,0.0001,0.0000,0.0000,1.0000,-0.0898,-0.0214,0.2247
190149,Pelvis,2,-0.7297,0.0592,-0.6748,0.0933,-0.0051,-0.0060,-0.0001,-0.0167,-0.1515,0.0133,9.5989,-1.9748,-0.7304,-0.0001,-0.0001,-0.0000,1.0000,0.2400,-0.0494,-0.0182
190150,Right,2,0.2254,-0.0183,-0.9448,0.2372,-0.0008,0.0018,0.0070,-0.0055,0.0920,-0.0306,-4.1192,1.3008,8.7771,-0.0000,0.0000,0.0001,1.0000,-0.1030,0.0325,0.2194
190150,Left,2,0.1939,0.0148,-0.9728,-0.1260,0.0079,0.0057,0.0037,-0.0009,0.1142,-0.0761,-3.6089,-0.8646,9.0023,0.0001,0.0001,0.0000,1.0000,-0.0902,-0.0216,0.2251
190150,Pelvis,2,-0.7298,0.0593,-0.6747,0.0932,-0.0097,-0.0079,0.0035,-0.0219,-0.1400,0.0461,9.6278,-1.9935,-0.7397,-0.0001,-0.0001,0.0000,1.0000,0.2407,-0.0498,-0.0185
190151,Right,2,0.2254,-0.0184,-0.9449,0.2369,-0.0007,0.0025,0.0064,0.0089,0.0975,-0.0147,-4.1396,1.3040,8.7849,-0.0000,0.0000,0.0001,1.0000,-0.1035,0.0326,0.2196
190151,Left,2,0.1940,0.0148,-0.9728,-0.1260,0.0090,0.0073,0.0044,-0.0098,0.1135,-0.0663,-3.6051,-0.8632,9.0146,0.0001,0.0001,0.0001,1.0000,-0.0901,-0.0216,0.2254
190151,Pelvis,2,-0.7297,0.0593,-0.6747,0.0932,-0.0050,0.0044,-0.0004,0.0129,-0.1437,0.0417,9.6271,-1.9877,-0.7058,-0.0001,0.0001,-0.0000,1.0000,0.2407,-0.0497,-0.0177
190152,Right,2,0.2254,-0.0184,-0.9449,0.2369,-0.0011,0.0043,0.0072,0.0019,0.1003,0.0029,-4.1426,1.3007,8.8035,-0.0000,0.0001,0.0001,1.0000,-0.1036,0.0325,0.2201
190152,Left,2,0.1940,0.0148,-0.9728,-0.1260,0.0079,0.0064,0.0059,-0.0015,0.0988,-0.0755,-3.6130,-0.8503,9.0026,0.0001,0.0001,0.0001,1.0000,-0.0903,-0.0213,0.2251
190152,Pelvis,2,-0.7298,0.0593,-0.6747,0.0932,-0.0009,0.0011,-0.0003,-0.0366,-0.1309,0.0695,9.6473,-2.0080,-0.7563,-0.0000,0.0000,-0.0000,1.0000,0.2412,-0.0502,-0.0189
190153,Right,2,0.2254,-0.0183,-0.9448,0.2371,-0.0011,0.0048,0.0085,-0.0107,0.0933,-0.0131,-4.1232,1.2985,8.7951,-0.0000,0.0001,0.0001,1.0000,-0.1031,0.0325,0.2199
190153,Left,2,0.1940,0.0148,-0.9728,-0.1261,0.0084,0.0058,0.0033,0.0245,0.1209,-0.0772,-3.6298,-0.8779,8.9915,0.0001,0.0001,0.0000,1.0000,-0.0907,-0.0220,0.2248
190153,Pelvis,2,-0.7297,0.0593,-0.6748,0.0932,0.0011,0.0109,-0.0014,-0.0638,-0.1715,0.0180,9.6037,-1.9582,-0.7809,0.0000,0.0001,-0.0000,1.0000,0.2401,-0.0490,-0.0196
190154,Right,2,0.2254,-0.0182,-0.9447,0.2374,-0.0007,0.0025,0.0064,0.0030,0.0934,-0.0183,-4.1320,1.3034,8.7845,-0.0000,0.0000,0.0001,1.0000,-0.1033,0.0326,0.2196
190154,Left,2,0.1940,0.0148,-0.9727,-0.1261,0.0072,0.0056,0.0049,0.0132,0.1102,-0.0766,-3.6231,-0.8657,8.9960,0.0001,0.0001,0.0001,1.0000,-0.0906,-0.0217,0.2249
190154,Pelvis,2,-0.7297,0.0594,-0.6749,0.0930,-0.0074,0.0060,-0.0038,-0.0567,-0.1832,0.0144,9.6036,-1.9451,-0.7729,-0.0001,0.0001,-0.0000,1.0000,0.2401,-0.0486,-0.0193
190155,Right,2,0.2254,-0.0181,-0.9446,0.2377,-0.0016,0.0050,0.0066,-0.0005,0.0947,-0.0095,-4.1338,1.3019,8.7937,-0.0000,0.0001,0.0001,1.0000,-0.1033,0.0325,0.2198
190155,Left,2,0.1940,0.0149,-0.9728,-0.1260,0.0080,0.0064,0.0051,0.0041,0.1086,-0.0765,-3.6155,-0.8631,8.9993,0.0001,0.0001,0.0001,1.0000,-0.0904,-0.0216,0.2250
190155,Pelvis,2,-0.7296,0.0594,-0.6749,0.0930,-0.0057,0.0064,-0.0041,-0.0301,-0.1351,-0.0154,9.5667,-1.9836,-0.7407,-0.0001,0.0001,-0.0001,1.0000,0.2392,-0.0496,-0.0185
190156,Right,2,0.2254,-0.0181,-0.9447,0.2375,-0.0001,0.0018,0.0064,-0.0060,0.1143,-0.0054,-4.1399,1.2819,8.7985,-0.0000,0.0000,0.0001,1.0000,-0.1035,0.0320,0.2200
190156,Left,2,0.1940,0.0149,-0.9728,-0.1260,0.0092,0.0065,0.0058,-0.0060,0.0989,-0.0564,-3.6163,-0.8532,9.0217,0.0001,0.0001,0.0001,1.0000,-0.0904,-0.0214,0.2255
190156,Pelvis,2,-0.7297,0.0594,-0.6749,0.0929,-0.0090,-0.0021,-0.0019,-0.0323,-0.1331,0.0270,9.6076,-1.9940,-0.7461,-0.0001,-0.0000,-0.0000,1.0000,0.2402,-0.0499,-0.0186
190157,Right,2,0.2253,-0.0181,-0.9448,0.2374,-0.0013,0.0026,0.0064,-0.0021,0.0895,-0.0218,-4.1240,1.3024,8.7844,-0.0000,0.0000,0.0001,1.0000,-0.1031,0.0326,0.2196
190157,Left,2,0.1940,0.0149,-0.9728,-0.1260,0.0093,0.0080,0.0050,-0.0013,0.1127,-0.0867,-3.6053,-0.8660,8.9922,0.0001,0.0001,0.0001,1.0000,-0.0901,-0.0217,0.2248
190157,Pelvis,2,-0.7297,0.0594,-0.6748,0.0929,-0.0050,-0.0083,0.0001,-0.0063,-0.1083,-0.0062,9.5721,-2.0094,-0.7181,-0.0001,-0.0001,0.0000,1.0000,0.2393,-0.0502,-0.0179
190158,Right,2,0.2253,-0.0181,-0.9447,0.2374,-0.0019,0.0032,0.0071,-0.0024,0.0980,-0.0242,-4.1265,1.2935,8.7820,-0.0000,0.0000,0.0001,1.0000,-0.1032,0.0323,0.2196
190158,Left,2,0.1941,0.0149,-0.9727,-0.1261,0.0095,0.0109,0.0057,-0.0004,0.1109,-0.0671,-3.6149,-0.8660,9.0095,0.0001,0.0001,0.0001,1.0000,-0.0903,-0.0217,0.2252
190158,Pelvis,2,-0.7298,0.0594,-0.6747,0.0929,0.0016,-0.0089,0.0010,-0.0688,-0.0883,0.0025,9.5710,-2.0331,-0.7821,0.0000,-0.0001,0.0000,1.0000,0.2393,-0.0508,-0.0195
190159,Right,2,0.2253,-0.0180,-0.9447,0.2376,-0.0012,0.0031,0.0071,0.0088,0.0902,-0.0182,-4.1343,1.3055,8.7831,-0.0000,0.0000,0.0001,1.0000,-0.1034,0.0326,0.2196
190159,Left,2,0.1941,0.0149,-0.9727,-0.1262,0.0091,0.0131,0.0075,0.0033,0.1179,-0.0676,-3.6169,-0.8730,9.0076,0.0001,0.0002,0.0001,1.0000,-0.0904,-0.0219,0.2252
190159,Pelvis,2,-0.7299,0.0593,-0.6746,0.0930,0.0104,-0.0061,0.0042,-0.0322,-0.0849,0.0046,9.5751,-2.0360,-0.7474,0.0001,-0.0001,0.0001,1.0000,0.2394,-0.0509,-0.0187
190160,Right,2,0.2253,-0.0179,-0.9447,0.2376,-0.0011,0.0048,0.0079,-0.0078,0.1109,-0.0412,-4.1211,1.2754,8.7683,-0.0000,0.0001,0.0001,1.0000,-0.1030,0.0319,0.2192
190160,Left,2,0.1942,0.0148,-0.9727,-0.1262,0.0075,0.0137,0.0063,0.0021,0.1057,-0.0671,-3.6209,-0.8609,9.0076,0.0001,0.0002,0.0001,1.0000,-0.0905,-0.0215,0.2252
190160,Pelvis,2,-0.7299,0.0593,-0.6746,0.0932,0.0123,-0.0031,0.0051,-0.0268,-0.1112,0.0466,9.6217,-2.0206,-0.7473,0.0002,-0.0000,0.0001,1.0000,0.2405,-0.0505,-0.0187
190161,Right,2,0.2253,-0.0178,-0.9447,0.2377,-0.0029,0.0046,0.0065,-0.0031,0.0969,-0.0154,-4.1296,1.2928,8.7904,-0.0000,0.0001,0.0001,1.0000,-0.1032,0.0323,0.2198
190161,Left,2,0.1943,0.0149,-0.9727,-0.1262,0.0079,0.0101,0.0053,0.0250,0.1181,-0.0682,-3.6400,-0.8788,8.9971,0.0001,0.0001,0.0001,1.0000,-0.0910,-0.0220,0.2249
190161,Pelvis,2,-0.7300,0.0592,-0.6745,0.0934,0.0081,-0.0105,0.0070,-0.0278,-0.1586,0.0105,9.5960,-1.9685,-0.7501,0.0001,-0.0001,0.0001,1.0000,0.2399,-0.0492,-0.0187
190162,Right,2,0.2253,-0.0178,-0.9447,0.2378,-0.0006,0.0036,0.0078,-0.0072,0.1070,-0.0090,-4.1337,1.2819,8.7974,-0.0000,0.0000,0.0001,1.0000,-0.1033,0.0320,0.2199
190162,Left,2,0.1943,0.0148,-0.9727,-0.1262,0.0126,0.0024,0.0049,0.0067,0.1184,-0.0778,-3.6198,-0.8739,8.9953,0.0002,0.0000,0.0001,1.0000,-0.0905,-0.0219,0.2249
190162,Pelvis,2,-0.7301,0.0592,-0.6743,0.0934,0.0028,-0.0110,0.0033,-0.0162,-0.1728,0.0230,9.6117,-1.9584,-0.7431,0.0000,-0.0001,0.0000,1.0000,0.2403,-0.0489,-0.0185
190163,Right,2,0.2253,-0.0177,-0.9446,0.2379,-0.0011,0.0043,0.0072,-0.0011,0.0953,-0.0154,-4.1309,1.2937,8.7897,-0.0000,0.0001,0.0001,1.0000,-0.1033,0.0323,0.2197
190163,Left,2,0.1941,0.0148,-0.9727,-0.1263,0.0109,0.0022,0.0045,0.0056,0.0967,-0.0572,-3.6295,-0.8540,9.0153,0.0001,0.0000,0.0001,1.0000,-0.0907,-0.0214,0.2254
