PacketId,Role,StatusWord,Qx,Qy,Qz,Qw,Gx,Gy,Gz,FreeAx,FreeAy,FreeAz,Ax,Ay,Az,DQx,DQy,DQz,DQw,DVx,DVy,DVz
78323,Right,2,0.2076,0.0747,-0.7720,0.5961,0.0030,0.0332,0.0005,0.0084,-0.0210,0.1091,-4.0436,1.3257,8.9629,0.0000,0.0004,0.0000,1.0000,-0.1010,0.0331,0.2241
78323,Left,2,0.0244,0.1772,-0.3166,0.9315,0.0155,0.0200,0.0138,-0.0722,-0.0927,-0.0712,-3.3659,-0.7668,9.1100,0.0002,0.0003,0.0002,1.0000,-0.0841,-0.0192,0.2278
78323,Pelvis,2,-0.3702,-0.2807,-0.7638,0.4481,-0.0591,0.1080,-0.0366,0.3428,0.2246,0.0636,7.8595,1.1651,5.8804,-0.0007,0.0014,-0.0005,1.0000,0.1967,0.0291,0.1467
78324,Right,2,0.2080,0.0749,-0.7719,0.5961,0.0071,0.0444,0.0016,-0.0113,-0.0114,0.1015,-4.0526,1.3036,8.9537,0.0001,0.0006,0.0000,1.0000,-0.1012,0.0326,0.2239
78324,Left,2,0.0247,0.1772,-0.3164,0.9316,0.0279,0.0164,0.0212,-0.0712,-0.0993,-0.0696,-3.3639,-0.7666,9.1126,0.0003,0.0002,0.0003,1.0000,-0.0840,-0.0193,0.2278
78324,Pelvis,2,-0.3692,-0.2795,-0.7648,0.4479,-0.0662,0.1279,-0.0390,0.4450,0.2611,-0.0375,7.7081,1.2286,5.9072,-0.0008,0.0016,-0.0005,1.0000,0.1930,0.0307,0.1473
78325,Right,2,0.2085,0.0751,-0.7718,0.5960,0.0190,0.0507,0.0006,-0.0152,0.0188,0.0743,-4.0769,1.2899,8.9144,0.0002,0.0006,0.0000,1.0000,-0.1018,0.0322,0.2229
78325,Left,2,0.0251,0.1772,-0.3162,0.9317,0.0366,0.0135,0.0243,-0.0479,-0.0690,-0.0658,-3.3677,-0.7227,9.1184,0.0005,0.0002,0.0003,1.0000,-0.0841,-0.0182,0.2280
78325,Pelvis,2,-0.3685,-0.2784,-0.7658,0.4475,-0.0802,0.1066,-0.0416,0.5155,0.2917,-0.0571,7.6362,1.2725,5.9659,-0.0010,0.0013,-0.0005,1.0000,0.1911,0.0319,0.1489
78326,Right,2,0.2093,0.0752,-0.7716,0.5959,0.0405,0.0610,0.0034,-0.0003,-0.0183,0.0698,-4.0566,1.3192,8.9144,0.0005,0.0008,0.0000,1.0000,-0.1012,0.0329,0.2230
78326,Left,2,0.0254,0.1771,-0.3159,0.9318,0.0354,0.0122,0.0222,-0.0404,-0.0483,-0.0347,-3.3862,-0.6958,9.1467,0.0004,0.0002,0.0003,1.0000,-0.0846,-0.0175,0.2287
78326,Pelvis,2,-0.3672,-0.2771,-0.7670,0.4473,-0.0750,0.1552,-0.0549,0.5743,0.3569,0.0008,7.6113,1.2985,6.0945,-0.0009,0.0019,-0.0007,1.0000,0.1906,0.0325,0.1520
78327,Right,2,0.2104,0.0752,-0.7714,0.5958,0.0578,0.0711,0.0096,-0.0602,0.0234,0.0974,-4.1064,1.2648,8.9304,0.0007,0.0009,0.0001,1.0000,-0.1025,0.0314,0.2234
78327,Left,2,0.0258,0.1770,-0.3157,0.9318,0.0284,0.0149,0.0211,-0.0740,-0.0752,-0.0408,-3.3941,-0.7287,9.1351,0.0004,0.0002,0.0003,1.0000,-0.0848,-0.0183,0.2284
78327,Pelvis,2,-0.3657,-0.2758,-0.7684,0.4470,-0.0694,0.1762,-0.0697,0.6632,0.3428,0.0893,7.6334,1.3927,6.1967,-0.0009,0.0022,-0.0009,1.0000,0.1912,0.0348,0.1545
78328,Right,2,0.2115,0.0750,-0.7712,0.5957,0.0722,0.0688,0.0156,0.0453,0.0451,0.0997,-4.1619,1.3735,8.8911,0.0009,0.0009,0.0002,1.0000,-0.1039,0.0341,0.2224
78328,Left,2,0.0260,0.1771,-0.3154,0.9319,0.0252,0.0148,0.0221,-0.0280,-0.0264,-0.0223,-3.3970,-0.6591,9.1585,0.0003,0.0002,0.0003,1.0000,-0.0849,-0.0166,0.2290
78328,Pelvis,2,-0.3638,-0.2746,-0.7698,0.4468,-0.0502,0.1970,-0.0813,0.6453,0.4349,-0.0132,7.4803,1.3301,6.2380,-0.0006,0.0025,-0.0010,1.0000,0.1874,0.0332,0.1555
78329,Right,2,0.2129,0.0743,-0.7710,0.5956,0.1168,0.0661,0.0263,0.1341,0.0401,0.0271,-4.1581,1.4716,8.7969,0.0015,0.0008,0.0003,1.0000,-0.1038,0.0364,0.2201
78329,Left,2,0.0260,0.1770,-0.3152,0.9320,0.0192,0.0024,0.0106,0.0095,0.0606,-0.0611,-3.4065,-0.5604,9.1202,0.0002,0.0000,0.0001,1.0000,-0.0852,-0.0141,0.2280
78329,Pelvis,2,-0.3619,-0.2736,-0.7713,0.4464,-0.0330,0.1860,-0.0863,0.5351,0.4854,-0.1335,7.3634,1.2072,6.2073,-0.0004,0.0023,-0.0011,1.0000,0.1845,0.0300,0.1547
78330,Right,2,0.2151,0.0726,-0.7706,0.5956,0.2095,0.0606,0.0560,0.0463,0.0761,0.0855,-4.2085,1.4261,8.8452,0.0026,0.0008,0.0007,1.0000,-0.1051,0.0350,0.2213
78330,Left,2,0.0261,0.1766,-0.3157,0.9319,0.0182,-0.0157,-0.0028,-0.0228,0.0272,-0.0562,-3.4087,-0.6054,9.1216,0.0002,-0.0002,-0.0000,1.0000,-0.0853,-0.0152,0.2280
78330,Pelvis,2,-0.3599,-0.2727,-0.7727,0.4462,-0.0340,0.1922,-0.0857,0.6828,0.4310,-0.1819,7.2688,1.3687,6.2205,-0.0004,0.0024,-0.0011,1.0000,0.1821,0.0341,0.1551
78331,Right,2,0.2171,0.0707,-0.7702,0.5955,0.2171,0.0498,0.0564,0.0020,-0.0111,0.2241,-4.1894,1.4807,8.9996,0.0027,0.0006,0.0007,1.0000,-0.1046,0.0363,0.2252
78331,Left,2,0.0260,0.1762,-0.3160,0.9319,0.0221,-0.0298,-0.0091,-0.1012,-0.0818,-0.0670,-3.3928,-0.7387,9.1070,0.0003,-0.0004,-0.0001,1.0000,-0.0849,-0.0185,0.2276
78331,Pelvis,2,-0.3581,-0.2714,-0.7742,0.4459,-0.0596,0.1920,-0.0783,0.8088,0.2785,-0.1792,7.2704,1.5574,6.1849,-0.0007,0.0024,-0.0010,1.0000,0.1822,0.0389,0.1542
78332,Right,2,0.2184,0.0697,-0.7702,0.5952,0.1269,0.0402,0.0183,0.0996,-0.0225,0.1852,-4.1895,1.6114,8.9341,0.0016,0.0005,0.0002,1.0000,-0.1046,0.0399,0.2235
78332,Left,2,0.0259,0.1758,-0.3163,0.9318,0.0239,-0.0285,0.0037,-0.0251,-0.1237,-0.0920,-3.2961,-0.7268,9.1168,0.0003,-0.0004,0.0000,1.0000,-0.0825,-0.0182,0.2279
78332,Pelvis,2,-0.3562,-0.2699,-0.7758,0.4455,-0.0714,0.2047,-0.0752,0.7380,0.3785,-0.1744,7.2154,1.4535,6.2777,-0.0009,0.0026,-0.0009,1.0000,0.1808,0.0363,0.1564
78333,Right,2,0.2191,0.0691,-0.7702,0.5949,0.0892,0.0177,-0.0039,0.0763,-0.0110,0.1280,-4.1763,1.6008,8.8780,0.0011,0.0002,-0.0000,1.0000,-0.1044,0.0398,0.2220
78333,Left,2,0.0258,0.1755,-0.3165,0.9319,0.0158,-0.0145,0.0078,0.0306,-0.0471,-0.1043,-3.2883,-0.6299,9.1130,0.0002,-0.0002,0.0001,1.0000,-0.0822,-0.0158,0.2278
78333,Pelvis,2,-0.3544,-0.2684,-0.7774,0.4449,-0.0680,0.2055,-0.0881,0.3348,0.4974,-0.1277,7.2999,1.0510,6.3060,-0.0008,0.0026,-0.0011,1.0000,0.1829,0.0262,0.1572
78334,Right,2,0.2196,0.0686,-0.7705,0.5944,0.0606,0.0143,-0.0247,0.0442,-0.0319,0.1317,-4.1557,1.5913,8.8933,0.0008,0.0002,-0.0003,1.0000,-0.1038,0.0396,0.2224
78334,Left,2,0.0258,0.1753,-0.3164,0.9319,0.0080,-0.0063,-0.0031,-0.0053,0.0280,-0.0506,-3.3721,-0.5933,9.1420,0.0001,-0.0001,-0.0000,1.0000,-0.0843,-0.0149,0.2285
78334,Pelvis,2,-0.3523,-0.2672,-0.7790,0.4447,-0.0345,0.2239,-0.0843,-0.0306,0.4025,-0.1068,7.4584,0.7810,6.1750,-0.0004,0.0028,-0.0011,1.0000,0.1869,0.0194,0.1538
78335,Right,2,0.2200,0.0684,-0.7707,0.5940,0.0466,0.0147,-0.0350,0.0160,-0.0161,0.0904,-4.1504,1.5620,8.8547,0.0006,0.0002,-0.0004,1.0000,-0.1037,0.0390,0.2214
78335,Left,2,0.0257,0.1748,-0.3168,0.9319,0.0206,-0.0318,-0.0238,0.0235,0.1017,-0.0397,-3.3907,-0.5183,9.1519,0.0003,-0.0004,-0.0003,1.0000,-0.0849,-0.0130,0.2288
78335,Pelvis,2,-0.3504,-0.2660,-0.7802,0.4447,-0.0346,0.1899,-0.0561,-0.2021,0.1535,-0.1812,7.5541,0.7435,5.9341,-0.0004,0.0024,-0.0007,1.0000,0.1892,0.0185,0.1479
78336,Right,2,0.2203,0.0681,-0.7710,0.5936,0.0459,0.0060,-0.0283,-0.0207,0.0732,0.1470,-4.2484,1.5164,8.8799,0.0006,0.0001,-0.0004,1.0000,-0.1062,0.0378,0.2220
78336,Left,2,0.0255,0.1739,-0.3175,0.9318,0.0258,-0.0616,-0.0394,-0.0529,0.0285,-0.0226,-3.3970,-0.6238,9.1608,0.0003,-0.0008,-0.0005,1.0000,-0.0851,-0.0156,0.2289
78336,Pelvis,2,-0.3490,-0.2645,-0.7813,0.4449,-0.0540,0.1811,-0.0194,-0.2646,0.0335,-0.3569,7.4723,0.7256,5.7551,-0.0007,0.0023,-0.0002,1.0000,0.1871,0.0182,0.1434
78337,Right,2,0.2204,0.0677,-0.7712,0.5934,0.0373,-0.0072,-0.0139,-0.0125,0.0927,0.1376,-4.2629,1.5228,8.8615,0.0005,-0.0001,-0.0002,1.0000,-0.1066,0.0380,0.2215
78337,Left,2,0.0253,0.1728,-0.3178,0.9319,0.0311,-0.0815,-0.0392,-0.0600,-0.0335,-0.0889,-3.3245,-0.6716,9.1134,0.0004,-0.0010,-0.0005,1.0000,-0.0834,-0.0168,0.2277
78337,Pelvis,2,-0.3484,-0.2633,-0.7819,0.4449,-0.0639,0.1023,-0.0014,-0.7344,0.1337,-0.4949,7.4630,0.2443,5.6234,-0.0008,0.0013,-0.0000,1.0000,0.1868,0.0062,0.1403
78338,Right,2,0.2203,0.0674,-0.7713,0.5933,0.0248,-0.0136,-0.0043,-0.0107,0.0186,0.1519,-4.2006,1.5525,8.9016,0.0003,-0.0002,-0.0001,1.0000,-0.1051,0.0387,0.2225
78338,Left,2,0.0250,0.1718,-0.3181,0.9320,0.0236,-0.0798,-0.0286,-0.0618,-0.1778,-0.1143,-3.2125,-0.7862,9.1190,0.0003,-0.0010,-0.0004,1.0000,-0.0805,-0.0197,0.2279
78338,Pelvis,2,-0.3483,-0.2629,-0.7820,0.4450,-0.0078,0.0368,0.0243,-0.9893,0.3151,-0.3539,7.5632,-0.0572,5.7741,-0.0001,0.0005,0.0003,1.0000,0.1891,-0.0014,0.1443
78339,Right,2,0.2203,0.0673,-0.7714,0.5932,0.0077,-0.0028,-0.0021,-0.0062,-0.0305,0.1362,-4.1486,1.5706,8.9053,0.0001,-0.0000,-0.0000,1.0000,-0.1037,0.0392,0.2226
78339,Left,2,0.0248,0.1712,-0.3185,0.9320,0.0200,-0.0384,-0.0055,-0.0240,-0.2236,-0.1595,-3.1270,-0.7976,9.1006,0.0003,-0.0005,-0.0001,1.0000,-0.0783,-0.0200,0.2275
78339,Pelvis,2,-0.3493,-0.2634,-0.7809,0.4459,0.0433,-0.0963,0.0949,-1.0544,0.3162,-0.1953,7.7142,-0.1095,5.8467,0.0005,-0.0012,0.0012,1.0000,0.1927,-0.0026,0.1464
78340,Right,2,0.2203,0.0675,-0.7713,0.5933,-0.0098,0.0172,0.0010,0.0070,-0.0069,0.1689,-4.1864,1.5796,8.9225,-0.0001,0.0002,0.0000,1.0000,-0.1046,0.0395,0.2231
78340,Left,2,0.0247,0.1713,-0.3182,0.9321,0.0065,0.0078,0.0063,0.0362,-0.1217,-0.0920,-3.1600,-0.6853,9.1681,0.0001,0.0001,0.0001,1.0000,-0.0790,-0.0172,0.2292
78340,Pelvis,2,-0.3513,-0.2650,-0.7786,0.4473,0.1316,-0.2087,0.1724,-1.1146,0.2269,-0.0797,7.8945,-0.1245,5.8041,0.0016,-0.0026,0.0022,1.0000,0.1970,-0.0029,0.1456
78341,Right,2,0.2201,0.0679,-0.7712,0.5934,-0.0246,0.0149,0.0052,0.0094,0.0353,0.1397,-4.2144,1.5600,8.8801,-0.0003,0.0002,0.0001,1.0000,-0.1053,0.0391,0.2220
78341,Left,2,0.0247,0.1716,-0.3180,0.9321,-0.0027,0.0339,0.0084,0.0060,-0.0773,-0.1050,-3.2066,-0.6683,9.1387,-0.0000,0.0004,0.0001,1.0000,-0.0801,-0.0167,0.2285
78341,Pelvis,2,-0.3539,-0.2678,-0.7752,0.4496,0.2237,-0.3116,0.2426,-1.4277,0.0311,-0.1166,8.1118,-0.3312,5.4904,0.0028,-0.0039,0.0030,1.0000,0.2023,-0.0081,0.1380
78342,Right,2,0.2198,0.0683,-0.7712,0.5935,-0.0384,0.0067,0.0052,0.0212,0.0110,0.1071,-4.1826,1.5655,8.8576,-0.0005,0.0001,0.0001,1.0000,-0.1045,0.0392,0.2214
78342,Left,2,0.0247,0.1721,-0.3178,0.9321,0.0004,0.0424,0.0138,-0.0548,-0.0805,-0.0606,-3.2718,-0.7132,9.1596,0.0000,0.0005,0.0002,1.0000,-0.0817,-0.0178,0.2290
78342,Pelvis,2,-0.3565,-0.2714,-0.7709,0.4527,0.3170,-0.3373,0.2957,-1.3512,0.0215,-0.2417,8.0336,-0.2899,5.3674,0.0040,-0.0042,0.0037,1.0000,0.2003,-0.0070,0.1350
78343,Right,2,0.2194,0.0688,-0.7712,0.5937,-0.0461,0.0030,-0.0010,0.0542,-0.0222,0.0820,-4.1491,1.5918,8.8408,-0.0006,0.0000,-0.0000,1.0000,-0.1037,0.0399,0.2210
78343,Left,2,0.0247,0.1724,-0.3177,0.9321,-0.0022,0.0352,0.0160,-0.0348,-0.0251,-0.0808,-3.2892,-0.6562,9.1358,-0.0000,0.0004,0.0002,1.0000,-0.0821,-0.0164,0.2284
78343,Pelvis,2,-0.3596,-0.2755,-0.7661,0.4559,0.3376,-0.4095,0.3164,-1.1230,-0.0520,-0.2663,8.0231,-0.0755,5.2937,0.0042,-0.0051,0.0040,1.0000,0.1999,-0.0017,0.1334
78344,Right,2,0.2191,0.0693,-0.7712,0.5937,-0.0426,0.0110,-0.0035,0.0152,0.0066,0.0884,-4.1700,1.5363,8.8477,-0.0005,0.0001,-0.0000,1.0000,-0.1042,0.0385,0.2212
78344,Left,2,0.0246,0.1728,-0.3175,0.9320,-0.0104,0.0351,0.0130,-0.0161,-0.0161,-0.0761,-3.2887,-0.6416,9.1419,-0.0001,0.0004,0.0002,1.0000,-0.0821,-0.0160,0.2286
78344,Pelvis,2,-0.3629,-0.2798,-0.7611,0.4591,0.3431,-0.4298,0.3194,-0.9513,-0.2564,-0.0688,8.2835,0.1635,5.2222,0.0043,-0.0054,0.0040,1.0000,0.2064,0.0043,0.1317
78345,Right,2,0.2192,0.0698,-0.7711,0.5938,-0.0260,0.0321,-0.0029,0.0165,0.0074,0.0884,-4.1749,1.5284,8.8468,-0.0003,0.0004,-0.0000,1.0000,-0.1043,0.0383,0.2212
78345,Left,2,0.0242,0.1733,-0.3174,0.9320,-0.0204,0.0285,0.0083,-0.0171,0.0215,-0.0603,-3.3229,-0.6210,9.1478,-0.0003,0.0004,0.0001,1.0000,-0.0830,-0.0155,0.2287
78345,Pelvis,2,-0.3660,-0.2843,-0.7556,0.4629,0.3680,-0.4414,0.3518,-1.0021,-0.3886,0.0375,8.5073,0.1563,5.0779,0.0046,-0.0055,0.0044,1.0000,0.2120,0.0043,0.1281
78346,Right,2,0.2194,0.0704,-0.7709,0.5938,-0.0194,0.0486,-0.0022,0.0365,0.0204,0.1258,-4.2143,1.5432,8.8675,-0.0002,0.0006,-0.0000,1.0000,-0.1052,0.0386,0.2217
78346,Left,2,0.0239,0.1734,-0.3173,0.9320,-0.0198,0.0147,0.0040,-0.0195,-0.0540,-0.0419,-3.2900,-0.6908,9.1744,-0.0002,0.0002,0.0000,1.0000,-0.0822,-0.0172,0.2294
78346,Pelvis,2,-0.3686,-0.2887,-0.7497,0.4677,0.4227,-0.3911,0.4152,-0.9357,-0.1828,-0.0276,8.3860,0.0939,5.1307,0.0053,-0.0049,0.0052,1.0000,0.2090,0.0028,0.1293
78347,Right,2,0.2197,0.0709,-0.7708,0.5938,-0.0147,0.0478,0.0042,0.0114,0.0178,0.1201,-4.2140,1.5144,8.8662,-0.0002,0.0006,0.0001,1.0000,-0.1052,0.0379,0.2217
78347,Left,2,0.0234,0.1736,-0.3174,0.9320,-0.0165,0.0057,0.0052,-0.0578,-0.0406,-0.0545,-3.3231,-0.7119,9.1475,-0.0002,0.0001,0.0001,1.0000,-0.0831,-0.0178,0.2287
78347,Pelvis,2,-0.3716,-0.2932,-0.7432,0.4729,0.4568,-0.4241,0.4741,-0.8195,0.0721,-0.1548,8.1761,0.0520,5.2059,0.0057,-0.0053,0.0059,1.0000,0.2037,0.0018,0.1312
78348,Right,2,0.2198,0.0711,-0.7707,0.5939,-0.0101,0.0263,0.0139,0.0075,0.0812,0.1077,-4.2707,1.4873,8.8300,-0.0001,0.0003,0.0002,1.0000,-0.1067,0.0372,0.2208
78348,Left,2,0.0232,0.1736,-0.3171,0.9321,-0.0112,0.0068,0.0065,-0.0625,-0.0539,-0.0231,-3.3287,-0.7311,9.1776,-0.0001,0.0001,0.0001,1.0000,-0.0832,-0.0183,0.2294
78348,Pelvis,2,-0.3743,-0.2984,-0.7362,0.4784,0.5068,-0.4454,0.4851,-0.7868,0.0822,-0.2207,8.1632,0.0358,5.0984,0.0063,-0.0056,0.0061,0.9999,0.2034,0.0013,0.1286
78349,Right,2,0.2195,0.0710,-0.7706,0.5941,-0.0091,-0.0179,0.0256,0.0423,0.1398,0.0822,-4.3175,1.4984,8.7774,-0.0001,-0.0002,0.0003,1.0000,-0.1080,0.0374,0.2194
78349,Left,2,0.0229,0.1738,-0.3171,0.9320,-0.0057,0.0080,0.0056,-0.0465,-0.0701,-0.0476,-3.3001,-0.7408,9.1610,-0.0001,0.0001,0.0001,1.0000,-0.0825,-0.0185,0.2290
78349,Pelvis,2,-0.3767,-0.3042,-0.7289,0.4840,0.5679,-0.4550,0.4775,-0.7881,0.0349,-0.1424,8.3080,0.0271,5.0115,0.0071,-0.0057,0.0060,0.9999,0.2070,0.0010,0.1265
78350,Right,2,0.2188,0.0705,-0.7705,0.5945,-0.0012,-0.0609,0.0305,0.0074,0.0144,0.1014,-4.1971,1.5043,8.8551,-0.0000,-0.0008,0.0004,1.0000,-0.1051,0.0376,0.2213
78350,Left,2,0.0228,0.1740,-0.3171,0.9320,0.0016,0.0198,0.0071,-0.0303,-0.0888,-0.0815,-3.2673,-0.7476,9.1363,0.0000,0.0002,0.0001,1.0000,-0.0816,-0.0187,0.2284
78350,Pelvis,2,-0.3783,-0.3104,-0.7215,0.4899,0.6251,-0.4255,0.4638,-0.7346,0.0163,-0.0769,8.4126,0.0640,4.9547,0.0078,-0.0053,0.0058,0.9999,0.2096,0.0018,0.1250
78351,Right,2,0.2186,0.0701,-0.7705,0.5947,0.0181,-0.0287,0.0292,-0.0335,-0.1252,0.1592,-4.0775,1.5173,8.9737,0.0002,-0.0004,0.0004,1.0000,-0.1020,0.0378,0.2243
78351,Left,2,0.0228,0.1743,-0.3170,0.9320,0.0112,0.0317,0.0060,-0.0486,-0.0669,-0.0685,-3.3023,-0.7434,9.1377,0.0001,0.0004,0.0001,1.0000,-0.0825,-0.0186,0.2285
78351,Pelvis,2,-0.3793,-0.3168,-0.7141,0.4958,0.6520,-0.4041,0.4268,-0.2495,-0.0266,-0.0294,8.4130,0.5224,4.9725,0.0082,-0.0051,0.0053,0.9999,0.2096,0.0132,0.1255
78352,Right,2,0.2190,0.0700,-0.7703,0.5948,0.0312,0.0304,0.0226,-0.0104,-0.0167,0.1231,-4.1611,1.5097,8.8953,0.0004,0.0004,0.0003,1.0000,-0.1040,0.0376,0.2224
78352,Left,2,0.0229,0.1746,-0.3172,0.9319,0.0117,0.0295,0.0005,-0.0260,-0.0206,-0.0365,-3.3288,-0.6964,9.1657,0.0001,0.0004,0.0000,1.0000,-0.0831,-0.0174,0.2292
78352,Pelvis,2,-0.3804,-0.3230,-0.7069,0.5012,0.6009,-0.4120,0.3989,0.4667,-0.1161,0.0924,8.4595,1.2290,5.0269,0.0075,-0.0052,0.0050,0.9999,0.2107,0.0308,0.1270
78353,Right,2,0.2195,0.0698,-0.7700,0.5950,0.0302,0.0337,0.0316,-0.0151,0.0447,0.1471,-4.2298,1.5001,8.8915,0.0004,0.0004,0.0004,1.0000,-0.1057,0.0374,0.2223
78353,Left,2,0.0229,0.1748,-0.3173,0.9318,0.0151,0.0238,-0.0029,-0.0605,-0.0507,-0.0632,-3.3321,-0.7402,9.1328,0.0002,0.0003,-0.0000,1.0000,-0.0832,-0.0185,0.2283
78353,Pelvis,2,-0.3822,-0.3283,-0.7002,0.5058,0.5064,-0.4128,0.3939,0.6706,-0.1935,0.0695,8.4968,1.4285,4.8897,0.0063,-0.0052,0.0049,1.0000,0.2116,0.0360,0.1236
78354,Right,2,0.2199,0.0696,-0.7698,0.5952,0.0285,0.0194,0.0319,0.0617,0.0506,0.1583,-4.2581,1.5817,8.8766,0.0004,0.0002,0.0004,1.0000,-0.1064,0.0394,0.2220
78354,Left,2,0.0229,0.1750,-0.3175,0.9317,0.0145,0.0133,-0.0061,-0.0645,-0.0174,-0.0683,-3.3559,-0.7186,9.1202,0.0002,0.0002,-0.0001,1.0000,-0.0839,-0.0180,0.2280
78354,Pelvis,2,-0.3840,-0.3333,-0.6939,0.5098,0.4512,-0.4068,0.3526,0.5837,-0.0971,-0.1548,8.3359,1.2829,4.7427,0.0056,-0.0051,0.0044,1.0000,0.2076,0.0323,0.1198
78355,Right,2,0.2198,0.0692,-0.7697,0.5954,0.0221,-0.0229,0.0250,0.1030,0.0930,0.2469,-4.3383,1.6302,8.9295,0.0003,-0.0003,0.0003,1.0000,-0.1085,0.0407,0.2232
78355,Left,2,0.0229,0.1749,-0.3177,0.9317,0.0188,0.0000,-0.0034,-0.0886,-0.0706,-0.0688,-3.3421,-0.7759,9.1206,0.0002,0.0000,-0.0000,1.0000,-0.0836,-0.0194,0.2280
78355,Pelvis,2,-0.3860,-0.3383,-0.6879,0.5132,0.4114,-0.4188,0.2988,0.6547,-0.0184,-0.3209,8.2003,1.3016,4.6460,0.0051,-0.0052,0.0037,1.0000,0.2043,0.0327,0.1174
78356,Right,2,0.2188,0.0683,-0.7700,0.5955,0.0038,-0.0980,0.0138,0.1148,0.1858,0.2726,-4.4180,1.6235,8.9222,0.0000,-0.0012,0.0002,1.0000,-0.1107,0.0406,0.2229
78356,Left,2,0.0227,0.1747,-0.3180,0.9316,0.0170,-0.0136,-0.0094,-0.0035,0.0071,-0.0639,-3.3237,-0.6657,9.1405,0.0002,-0.0002,-0.0001,1.0000,-0.0831,-0.0167,0.2285
78356,Pelvis,2,-0.3883,-0.3434,-0.6820,0.5159,0.3788,-0.4634,0.2691,0.5699,-0.1624,-0.4215,8.2482,1.2342,4.3578,0.0047,-0.0058,0.0034,1.0000,0.2055,0.0310,0.1103
78357,Right,2,0.2177,0.0672,-0.7701,0.5958,0.0089,-0.1189,0.0296,-0.0800,-0.1002,-0.0335,-3.9722,1.4748,8.8145,0.0001,-0.0015,0.0004,1.0000,-0.0996,0.0368,0.2202
78357,Left,2,0.0224,0.1742,-0.3183,0.9316,0.0057,-0.0325,-0.0198,0.0755,0.1474,-0.0370,-3.3493,-0.5098,9.1713,0.0001,-0.0004,-0.0002,1.0000,-0.0838,-0.0127,0.2292
78357,Pelvis,2,-0.3902,-0.3488,-0.6761,0.5186,0.3987,-0.4634,0.2489,0.1988,-0.1512,-0.3179,8.4513,0.8679,4.2471,0.0050,-0.0058,0.0031,1.0000,0.2106,0.0218,0.1075
78358,Right,2,0.2174,0.0665,-0.7701,0.5960,0.0362,-0.0466,0.0295,-0.0233,-0.0810,0.1011,-4.0357,1.5505,8.9218,0.0005,-0.0006,0.0004,1.0000,-0.1010,0.0386,0.2230
78358,Left,2,0.0218,0.1737,-0.3187,0.9316,-0.0150,-0.0483,-0.0261,-0.1018,-0.0730,-0.0208,-3.3453,-0.8006,9.1687,-0.0002,-0.0006,-0.0003,1.0000,-0.0838,-0.0199,0.2292
78358,Pelvis,2,-0.3913,-0.3536,-0.6705,0.5218,0.3957,-0.3694,0.2535,0.2862,0.0695,0.1922,8.8457,0.9291,4.5908,0.0049,-0.0046,0.0032,1.0000,0.2205,0.0234,0.1159
78359,Right,2,0.2172,0.0658,-0.7700,0.5963,0.0346,-0.0383,0.0295,0.0528,0.0336,0.2145,-4.1876,1.6182,8.9662,0.0004,-0.0005,0.0004,1.0000,-0.1048,0.0403,0.2241
78359,Left,2,0.0211,0.1732,-0.3190,0.9316,-0.0159,-0.0535,-0.0240,-0.0562,-0.0535,-0.0507,-3.2992,-0.7647,9.1560,-0.0002,-0.0007,-0.0003,1.0000,-0.0826,-0.0190,0.2288
78359,Pelvis,2,-0.3931,-0.3574,-0.6652,0.5247,0.3034,-0.3657,0.2848,0.6700,0.0333,0.2837,8.9331,1.2995,4.5715,0.0038,-0.0046,0.0036,1.0000,0.2227,0.0328,0.1154
78360,Right,2,0.2163,0.0651,-0.7701,0.5966,-0.0039,-0.0918,0.0229,0.0940,0.1827,0.4418,-4.4054,1.6560,9.1130,-0.0000,-0.0011,0.0003,1.0000,-0.1104,0.0414,0.2277
78360,Left,2,0.0208,0.1724,-0.3193,0.9316,0.0066,-0.0594,-0.0193,-0.0280,-0.0654,-0.0612,-3.2525,-0.7622,9.1617,0.0001,-0.0007,-0.0002,1.0000,-0.0815,-0.0191,0.2290
78360,Pelvis,2,-0.3960,-0.3613,-0.6595,0.5269,0.2432,-0.4592,0.2873,0.6206,-0.0565,-0.0691,8.7134,1.2141,4.2345,0.0030,-0.0057,0.0036,1.0000,0.2171,0.0308,0.1072
78361,Right,2,0.2136,0.0640,-0.7706,0.5971,-0.0622,-0.2234,0.0268,0.0023,0.2457,0.4078,-4.3917,1.5395,9.1029,-0.0008,-0.0028,0.0003,1.0000,-0.1104,0.0386,0.2272
78361,Left,2,0.0207,0.1714,-0.3195,0.9317,0.0290,-0.0642,-0.0192,0.0729,0.0078,-0.0916,-3.1941,-0.6401,9.1594,0.0004,-0.0008,-0.0002,1.0000,-0.0800,-0.0161,0.2289
78361,Pelvis,2,-0.3994,-0.3661,-0.6536,0.5285,0.2739,-0.5402,0.2547,0.3252,-0.0663,-0.6914,8.2495,0.8587,3.8102,0.0034,-0.0068,0.0032,1.0000,0.2055,0.0218,0.0967
78362,Right,2,0.2108,0.0632,-0.7709,0.5977,-0.0871,-0.2102,0.0172,0.1153,-0.1894,-0.0162,-3.8026,1.6859,8.8723,-0.0011,-0.0026,0.0002,1.0000,-0.0957,0.0424,0.2215
78362,Left,2,0.0204,0.1706,-0.3200,0.9317,0.0233,-0.0613,-0.0194,-0.0062,-0.0455,-0.0771,-3.2096,-0.7315,9.1623,0.0003,-0.0008,-0.0002,1.0000,-0.0804,-0.0183,0.2290
78362,Pelvis,2,-0.4025,-0.3718,-0.6474,0.5298,0.3368,-0.5868,0.2326,0.0677,0.1743,-0.7644,8.1750,0.5424,3.8449,0.0042,-0.0073,0.0029,1.0000,0.2036,0.0137,0.0977
78363,Right,2,0.2084,0.0627,-0.7713,0.5982,-0.0886,-0.1757,0.0143,-0.0010,0.0420,0.1621,-4.0135,1.5195,9.0046,-0.0011,-0.0022,0.0002,1.0000,-0.1008,0.0382,0.2249
78363,Left,2,0.0201,0.1699,-0.3205,0.9317,0.0092,-0.0564,-0.0150,-0.0332,-0.0814,-0.0394,-3.2054,-0.7816,9.1999,0.0001,-0.0007,-0.0002,1.0000,-0.0803,-0.0196,0.2299
78363,Pelvis,2,-0.4057,-0.3771,-0.6408,0.5316,0.3246,-0.5677,0.2749,0.3894,0.2124,0.0078,8.8902,0.8761,4.1033,0.0041,-0.0071,0.0034,1.0000,0.2214,0.0222,0.1042
78364,Right,2,0.2059,0.0624,-0.7716,0.5987,-0.1041,-0.1687,0.0135,-0.0013,-0.0089,0.1699,-3.9302,1.5131,9.0508,-0.0013,-0.0021,0.0002,1.0000,-0.0987,0.0381,0.2260
78364,Left,2,0.0196,0.1694,-0.3207,0.9317,-0.0065,-0.0462,-0.0120,0.0350,-0.0514,-0.0946,-3.1403,-0.7157,9.1690,-0.0001,-0.0006,-0.0001,1.0000,-0.0786,-0.0179,0.2292
78364,Pelvis,2,-0.4099,-0.3816,-0.6340,0.5333,0.2432,-0.6019,0.3345,0.3720,0.0039,0.4921,9.4802,0.8760,3.9608,0.0030,-0.0075,0.0042,1.0000,0.2362,0.0226,0.1009
78365,Right,2,0.2033,0.0624,-0.7719,0.5992,-0.1247,-0.1657,0.0050,0.0644,-0.0199,0.1409,-3.8827,1.5483,9.0336,-0.0016,-0.0021,0.0001,1.0000,-0.0975,0.0391,0.2256
78365,Left,2,0.0191,0.1691,-0.3211,0.9316,-0.0063,-0.0292,-0.0083,-0.0289,-0.1169,-0.1155,-3.1323,-0.8144,9.1420,-0.0001,-0.0004,-0.0001,1.0000,-0.0784,-0.0203,0.2285
78365,Pelvis,2,-0.4136,-0.3860,-0.6276,0.5348,0.2585,-0.5510,0.2987,0.1223,0.1011,0.3777,9.4234,0.5606,3.8413,0.0032,-0.0069,0.0037,1.0000,0.2349,0.0146,0.0977
78366,Right,2,0.2008,0.0627,-0.7722,0.5995,-0.1366,-0.1419,-0.0093,0.0552,-0.0735,0.0571,-3.7644,1.5110,8.9981,-0.0017,-0.0018,-0.0001,1.0000,-0.0945,0.0382,0.2247
78366,Left,2,0.0190,0.1687,-0.3210,0.9317,0.0136,-0.0224,-0.0016,-0.0482,-0.0663,-0.0550,-3.1881,-0.7916,9.1885,0.0002,-0.0003,-0.0000,1.0000,-0.0798,-0.0198,0.2297
78366,Pelvis,2,-0.4169,-0.3905,-0.6217,0.5358,0.2527,-0.5388,0.2504,0.2663,0.1214,0.0654,9.1666,0.6496,3.6352,0.0032,-0.0067,0.0031,1.0000,0.2285,0.0167,0.0925
78367,Right,2,0.1986,0.0632,-0.7726,0.5998,-0.1416,-0.1159,-0.0194,0.0468,-0.0389,0.0456,-3.7598,1.4587,8.9959,-0.0018,-0.0014,-0.0002,1.0000,-0.0943,0.0369,0.2247
78367,Left,2,0.0190,0.1682,-0.3213,0.9317,0.0202,-0.0320,-0.0052,-0.0098,0.0106,-0.0428,-3.2008,-0.7078,9.2036,0.0003,-0.0004,-0.0001,1.0000,-0.0801,-0.0177,0.2301
78367,Pelvis,2,-0.4203,-0.3945,-0.6161,0.5368,0.2302,-0.5064,0.2522,0.3648,0.1954,-0.0008,9.1222,0.7019,3.5691,0.0029,-0.0063,0.0032,1.0000,0.2274,0.0180,0.0907
78368,Right,2,0.1965,0.0637,-0.7729,0.5999,-0.1246,-0.1020,-0.0188,0.0275,0.0086,0.0819,-3.7875,1.3994,9.0332,-0.0016,-0.0013,-0.0002,1.0000,-0.0950,0.0354,0.2257
78368,Left,2,0.0190,0.1676,-0.3211,0.9319,0.0251,-0.0326,-0.0015,-0.0333,-0.0695,-0.0696,-3.1520,-0.7790,9.1865,0.0003,-0.0004,-0.0000,1.0000,-0.0789,-0.0195,0.2296
78368,Pelvis,2,-0.4237,-0.3982,-0.6107,0.5376,0.1968,-0.4888,0.2528,0.2033,0.1886,0.0692,9.2488,0.5066,3.4546,0.0025,-0.0061,0.0032,1.0000,0.2306,0.0132,0.0878
78369,Right,2,0.1947,0.0640,-0.7733,0.6001,-0.1090,-0.0969,-0.0173,0.0073,0.0122,0.0819,-3.7636,1.3500,9.0507,-0.0014,-0.0012,-0.0002,1.0000,-0.0944,0.0341,0.2261
78369,Left,2,0.0192,0.1670,-0.3215,0.9319,0.0410,-0.0379,0.0018,-0.0709,-0.0661,-0.0804,-3.1681,-0.7952,9.1683,0.0005,-0.0005,0.0000,1.0000,-0.0793,-0.0200,0.2292
78369,Pelvis,2,-0.4270,-0.4015,-0.6058,0.5381,0.1744,-0.4534,0.2221,0.1382,0.1336,0.2660,9.4992,0.4145,3.3486,0.0022,-0.0057,0.0028,1.0000,0.2370,0.0108,0.0851
78370,Right,2,0.1931,0.0645,-0.7735,0.6002,-0.1031,-0.0756,-0.0151,0.0126,-0.0289,0.0223,-3.6848,1.3315,9.0209,-0.0013,-0.0009,-0.0002,1.0000,-0.0923,0.0336,0.2254
78370,Left,2,0.0195,0.1662,-0.3216,0.9320,0.0589,-0.0425,0.0043,-0.0590,-0.0827,-0.1461,-3.1172,-0.7876,9.1168,0.0007,-0.0005,0.0001,1.0000,-0.0780,-0.0199,0.2279
78370,Pelvis,2,-0.4289,-0.4044,-0.6016,0.5390,0.2089,-0.3331,0.1824,0.2533,0.2426,0.3561,9.5797,0.4891,3.3939,0.0026,-0.0042,0.0023,1.0000,0.2391,0.0126,0.0859
78371,Right,2,0.1918,0.0651,-0.7737,0.6003,-0.0938,-0.0484,-0.0206,0.0665,-0.0268,0.0409,-3.6902,1.3603,9.0349,-0.0012,-0.0006,-0.0003,1.0000,-0.0924,0.0343,0.2258
78371,Left,2,0.0199,0.1656,-0.3220,0.9319,0.0588,-0.0294,0.0029,0.0325,-0.1190,-0.2074,-2.9986,-0.7475,9.0954,0.0007,-0.0004,0.0000,1.0000,-0.0750,-0.0189,0.2273
78371,Pelvis,2,-0.4313,-0.4073,-0.5974,0.5396,0.1756,-0.3668,0.1835,0.0449,0.4671,0.0477,9.2603,0.2275,3.4122,0.0022,-0.0046,0.0023,1.0000,0.2311,0.0060,0.0864
78372,Right,2,0.1907,0.0657,-0.7740,0.6003,-0.0852,-0.0401,-0.0221,0.0340,-0.0230,0.1036,-3.7002,1.3122,9.1061,-0.0011,-0.0005,-0.0003,1.0000,-0.0926,0.0331,0.2276
78372,Left,2,0.0205,0.1655,-0.3221,0.9319,0.0577,0.0151,0.0160,0.0407,-0.1987,-0.2254,-2.9360,-0.7935,9.0944,0.0007,0.0002,0.0002,1.0000,-0.0734,-0.0200,0.2274
78372,Pelvis,2,-0.4331,-0.4101,-0.5932,0.5407,0.2048,-0.3180,0.1906,-0.1188,0.4194,0.0310,9.2950,0.0411,3.2695,0.0026,-0.0040,0.0024,1.0000,0.2320,0.0014,0.0827
78373,Right,2,0.1897,0.0664,-0.7741,0.6003,-0.0905,-0.0214,-0.0273,0.0829,-0.0225,0.1456,-3.7191,1.3416,9.1402,-0.0011,-0.0003,-0.0003,1.0000,-0.0930,0.0338,0.2284
78373,Left,2,0.0211,0.1659,-0.3219,0.9319,0.0447,0.0502,0.0281,0.0624,-0.0196,-0.1389,-3.0600,-0.6342,9.1554,0.0006,0.0006,0.0004,1.0000,-0.0764,-0.0160,0.2289
78373,Pelvis,2,-0.4342,-0.4127,-0.5892,0.5423,0.2492,-0.2533,0.1958,-0.0402,0.3466,0.1853,9.4838,0.1014,3.1827,0.0031,-0.0032,0.0024,1.0000,0.2368,0.0029,0.0803
78374,Right,2,0.1888,0.0673,-0.7743,0.6003,-0.0948,-0.0117,-0.0243,0.0956,0.0374,0.2583,-3.8139,1.3270,9.2265,-0.0012,-0.0001,-0.0003,1.0000,-0.0954,0.0335,0.2306
78374,Left,2,0.0209,0.1668,-0.3219,0.9317,-0.0257,0.0746,0.0169,0.1107,0.0683,-0.1357,-3.0900,-0.5349,9.1557,-0.0003,0.0009,0.0002,1.0000,-0.0770,-0.0133,0.2290
78374,Pelvis,2,-0.4354,-0.4150,-0.5852,0.5438,0.2369,-0.2437,0.1998,0.0171,0.1291,0.4318,9.7991,0.1492,2.9869,0.0030,-0.0030,0.0025,1.0000,0.2447,0.0041,0.0754
78375,Right,2,0.1876,0.0682,-0.7744,0.6003,-0.1031,-0.0279,-0.0226,0.1524,0.0246,0.2395,-3.8021,1.3564,9.2073,-0.0013,-0.0003,-0.0003,1.0000,-0.0951,0.0342,0.2301
78375,Left,2,0.0203,0.1676,-0.3219,0.9316,-0.0575,0.0563,-0.0078,0.0254,0.1401,0.0051,-3.2545,-0.5523,9.2473,-0.0007,0.0007,-0.0001,1.0000,-0.0812,-0.0136,0.2312
78375,Pelvis,2,-0.4355,-0.4163,-0.5817,0.5465,0.2508,-0.0918,0.2397,-0.1558,0.0207,0.4807,9.8936,-0.0518,2.8448,0.0031,-0.0011,0.0030,1.0000,0.2473,-0.0008,0.0714
78376,Right,2,0.1863,0.0689,-0.7746,0.6005,-0.1095,-0.0465,-0.0155,0.2186,0.0170,0.1374,-3.7622,1.3822,9.1097,-0.0014,-0.0006,-0.0002,1.0000,-0.0942,0.0349,0.2276
78376,Left,2,0.0191,0.1684,-0.3221,0.9314,-0.1011,0.0416,-0.0292,0.0332,0.0441,-0.0413,-3.1851,-0.6418,9.2155,-0.0013,0.0005,-0.0004,1.0000,-0.0795,-0.0157,0.2304
78376,Pelvis,2,-0.4352,-0.4161,-0.5785,0.5502,0.2310,0.0317,0.3036,-0.1212,-0.1956,0.3886,9.8652,-0.0563,2.6063,0.0029,0.0004,0.0038,1.0000,0.2467,-0.0007,0.0651
78377,Right,2,0.1851,0.0696,-0.7747,0.6006,-0.0964,-0.0409,-0.0111,-0.0107,0.0391,0.0696,-3.6983,1.1233,9.0952,-0.0012,-0.0005,-0.0001,1.0000,-0.0926,0.0284,0.2273
78377,Left,2,0.0176,0.1695,-0.3222,0.9312,-0.1292,0.0550,-0.0345,0.0141,-0.0598,-0.0944,-3.1284,-0.7627,9.1695,-0.0016,0.0007,-0.0004,1.0000,-0.0781,-0.0187,0.2293
78377,Pelvis,2,-0.4347,-0.4154,-0.5758,0.5540,0.2065,0.0870,0.3018,-0.2453,-0.3893,0.3613,9.8894,-0.2317,2.4224,0.0026,0.0011,0.0038,1.0000,0.2473,-0.0050,0.0603
78378,Right,2,0.1841,0.0698,-0.7747,0.6009,-0.0551,-0.0455,0.0024,-0.0171,0.0522,0.0284,-3.6829,1.0906,9.0607,-0.0007,-0.0006,0.0000,1.0000,-0.0922,0.0274,0.2264
78378,Left,2,0.0162,0.1707,-0.3224,0.9310,-0.1253,0.0639,-0.0249,-0.0916,-0.0934,-0.0481,-3.2119,-0.8908,9.1790,-0.0016,0.0008,-0.0003,1.0000,-0.0801,-0.0219,0.2296
78378,Pelvis,2,-0.4332,-0.4148,-0.5738,0.5577,0.2372,0.1514,0.2336,-0.3998,-0.3904,0.1030,9.6336,-0.4371,2.3743,0.0030,0.0019,0.0029,1.0000,0.2410,-0.0104,0.0589
78379,Right,2,0.1832,0.0703,-0.7746,0.6012,-0.0726,-0.0299,0.0106,0.0046,0.0363,0.0799,-3.6823,1.1062,9.1149,-0.0009,-0.0004,0.0001,1.0000,-0.0921,0.0279,0.2278
78379,Left,2,0.0150,0.1717,-0.3223,0.9308,-0.1026,0.0547,-0.0179,-0.0215,-0.0357,-0.0146,-3.2170,-0.8360,9.2172,-0.0013,0.0007,-0.0002,1.0000,-0.0803,-0.0206,0.2305
78379,Pelvis,2,-0.4317,-0.4146,-0.5718,0.5611,0.2356,0.1225,0.2026,-0.2957,-0.2900,-0.2202,9.2845,-0.3713,2.4182,0.0029,0.0015,0.0025,1.0000,0.2322,-0.0089,0.0601
78380,Right,2,0.1824,0.0700,-0.7745,0.6016,-0.0256,-0.0540,0.0332,0.1099,0.0552,0.2562,-3.7750,1.2112,9.2563,-0.0003,-0.0007,0.0004,1.0000,-0.0945,0.0303,0.2313
78380,Left,2,0.0140,0.1725,-0.3223,0.9307,-0.0846,0.0425,-0.0148,-0.0480,-0.0398,-0.0213,-3.2409,-0.8812,9.1975,-0.0011,0.0005,-0.0002,1.0000,-0.0809,-0.0218,0.2300
78380,Pelvis,2,-0.4303,-0.4142,-0.5698,0.5644,0.2108,0.1207,0.2021,-0.1536,-0.2519,-0.0967,9.3834,-0.2649,2.5237,0.0026,0.0015,0.0025,1.0000,0.2347,-0.0062,0.0627
78381,Right,2,0.1819,0.0695,-0.7742,0.6022,0.0002,-0.0528,0.0528,-0.0327,-0.0405,0.0498,-3.5682,1.0772,9.1312,0.0000,-0.0007,0.0007,1.0000,-0.0894,0.0269,0.2282
78381,Left,2,0.0133,0.1731,-0.3227,0.9304,-0.0521,0.0336,-0.0034,-0.0873,-0.1065,-0.0238,-3.2360,-0.9793,9.1876,-0.0007,0.0004,-0.0000,1.0000,-0.0808,-0.0243,0.2297
78381,Pelvis,2,-0.4295,-0.4136,-0.5680,0.5673,0.1634,0.0977,0.2076,0.0941,-0.0284,-0.0754,9.3336,-0.0573,2.7757,0.0020,0.0012,0.0026,1.0000,0.2334,-0.0010,0.0691
78382,Right,2,0.1819,0.0690,-0.7739,0.6027,0.0262,-0.0200,0.0563,-0.0752,-0.0659,-0.0013,-3.5068,1.0454,9.1041,0.0003,-0.0003,0.0007,1.0000,-0.0877,0.0260,0.2276
78382,Left,2,0.0128,0.1736,-0.3229,0.9303,-0.0363,0.0263,0.0014,-0.0167,0.0261,-0.0308,-3.2662,-0.8459,9.1816,-0.0005,0.0003,0.0000,1.0000,-0.0816,-0.0210,0.2296
78382,Pelvis,2,-0.4299,-0.4128,-0.5664,0.5692,0.0538,0.0313,0.2004,-0.0686,-0.1503,0.0511,9.4827,-0.2607,2.7078,0.0007,0.0004,0.0025,1.0000,0.2371,-0.0060,0.0676
78383,Right,2,0.1821,0.0686,-0.7733,0.6034,0.0219,-0.0004,0.0696,0.2302,-0.0222,0.1506,-3.6598,1.3540,9.1702,0.0003,-0.0000,0.0009,1.0000,-0.0915,0.0337,0.2293
78383,Left,2,0.0122,0.1740,-0.3231,0.9301,-0.0333,0.0166,-0.0049,-0.0453,-0.0375,-0.0310,-3.2532,-0.9282,9.1783,-0.0004,0.0002,-0.0001,1.0000,-0.0813,-0.0231,0.2295
78383,Pelvis,2,-0.4302,-0.4115,-0.5654,0.5709,0.0099,0.0680,0.1716,-0.0839,-0.2055,-0.0241,9.4220,-0.3154,2.6446,0.0001,0.0008,0.0021,1.0000,0.2356,-0.0074,0.0659
78384,Right,2,0.1822,0.0678,-0.7724,0.6046,0.0397,-0.0170,0.1218,0.3219,0.1400,0.5062,-3.9491,1.4551,9.4282,0.0005,-0.0002,0.0015,1.0000,-0.0988,0.0361,0.2357
78384,Left,2,0.0117,0.1742,-0.3236,0.9299,-0.0307,0.0142,-0.0050,-0.0256,-0.0950,-0.1608,-3.1629,-0.9621,9.0686,-0.0004,0.0002,-0.0001,1.0000,-0.0790,-0.0240,0.2267
78384,Pelvis,2,-0.4311,-0.4101,-0.5646,0.5720,-0.0566,0.0325,0.1637,0.0157,-0.4028,0.0091,9.5090,-0.2557,2.4787,-0.0007,0.0004,0.0020,1.0000,0.2378,-0.0059,0.0619
78385,Right,2,0.1825,0.0663,-0.7706,0.6070,0.0651,-0.0319,0.2691,1.1050,-0.1841,-0.3205,-3.4962,2.2228,8.6135,0.0008,-0.0004,0.0034,1.0000,-0.0877,0.0551,0.2153
78385,Left,2,0.0113,0.1751,-0.3237,0.9297,-0.0457,0.0625,0.0056,0.0158,-0.1826,-0.2600,-3.0541,-1.0097,8.9967,-0.0006,0.0008,0.0001,1.0000,-0.0762,-0.0251,0.2250
78385,Pelvis,2,-0.4329,-0.4085,-0.5638,0.5725,-0.1082,-0.0159,0.1711,-0.1395,-0.4447,0.1410,9.6414,-0.4593,2.4753,-0.0014,-0.0002,0.0021,1.0000,0.2410,-0.0109,0.0619
78386,Right,2,0.1849,0.0682,-0.7663,0.6115,-0.0776,0.2780,0.4655,1.2253,-1.2227,-2.0590,-1.9436,2.4164,7.3143,-0.0010,0.0035,0.0058,1.0000,-0.0483,0.0603,0.1830
78386,Left,2,0.0109,0.1763,-0.3241,0.9294,-0.0472,0.0884,0.0074,-0.0206,-0.0274,-0.0246,-3.2677,-0.9462,9.1780,-0.0006,0.0011,0.0001,1.0000,-0.0814,-0.0235,0.2296
78386,Pelvis,2,-0.4348,-0.4072,-0.5630,0.5728,-0.1170,-0.0471,0.1555,-0.6143,-0.5697,0.0711,9.5956,-0.9759,2.3158,-0.0015,-0.0006,0.0019,1.0000,0.2399,-0.0238,0.0581
78387,Right,2,0.1874,0.0724,-0.7641,0.6131,-0.1665,0.3841,0.1529,-3.3280,0.9460,1.1569,-4.3296,-2.1113,10.4451,-0.0021,0.0048,0.0019,1.0000,-0.1069,-0.0524,0.2618
78387,Left,2,0.0105,0.1774,-0.3241,0.9292,-0.0444,0.0765,0.0069,-0.0283,-0.0018,-0.0096,-3.3115,-0.9467,9.1782,-0.0006,0.0010,0.0001,1.0000,-0.0826,-0.0235,0.2295
78387,Pelvis,2,-0.4365,-0.4064,-0.5623,0.5728,-0.0941,-0.0571,0.1194,-0.5425,-0.4846,-0.3305,9.1891,-0.9275,2.2673,-0.0012,-0.0007,0.0015,1.0000,0.2297,-0.0228,0.0569
78388,Right,2,0.1899,0.0741,-0.7637,0.6125,0.0300,0.2570,-0.0250,0.0828,-0.0986,0.0574,-3.6565,1.2815,9.0787,0.0004,0.0032,-0.0003,1.0000,-0.0907,0.0320,0.2273
78389,Right,2,0.1911,0.0772,-0.7636,0.6120,-0.1157,0.2279,-0.0742,-0.2645,0.1854,0.2194,-3.9700,0.8823,9.1765,-0.0014,0.0028,-0.0009,1.0000,-0.0986,0.0225,0.2297
78389,Left,2,0.0097,0.1790,-0.3242,0.9289,-0.0393,0.0571,0.0023,-0.0805,-0.0297,-0.0307,-3.3458,-1.0162,9.1361,-0.0010,0.0014,0.0001,1.0000,-0.1666,-0.0504,0.4571
78389,Pelvis,2,-0.4413,-0.4062,-0.5609,0.5707,-0.1327,-0.1605,0.0654,0.0001,-0.5013,-0.6472,8.9196,-0.4095,2.1287,-0.0033,-0.0040,0.0016,1.0000,0.4456,-0.0194,0.1083
78390,Right,2,0.1914,0.0800,-0.7635,0.6116,-0.1404,0.1650,-0.0622,0.1007,0.0976,0.2053,-3.9956,1.2162,9.1069,-0.0018,0.0021,-0.0008,1.0000,-0.0994,0.0309,0.2278
78390,Left,2,0.0094,0.1796,-0.3242,0.9287,-0.0322,0.0427,-0.0023,-0.0828,-0.0384,0.0218,-3.3743,-1.0482,9.1782,-0.0004,0.0005,-0.0000,1.0000,-0.0842,-0.0261,0.2295
78390,Pelvis,2,-0.4445,-0.4070,-0.5602,0.5682,-0.1764,-0.2864,-0.0052,-0.0208,-0.5568,-0.4924,9.0981,-0.4621,2.0468,-0.0022,-0.0036,-0.0001,1.0000,0.2273,-0.0115,0.0520
78391,Right,2,0.1913,0.0820,-0.7633,0.6116,-0.1275,0.0999,-0.0270,-0.2689,0.1976,0.2148,-4.0541,0.8007,9.1425,-0.0016,0.0012,-0.0003,1.0000,-0.1011,0.0204,0.2287
78391,Left,2,0.0091,0.1801,-0.3246,0.9285,-0.0153,0.0322,-0.0045,-0.0312,-0.0054,0.0012,-3.3570,-1.0000,9.1676,-0.0002,0.0004,-0.0001,1.0000,-0.0838,-0.0250,0.2292
78391,Pelvis,2,-0.4476,-0.4087,-0.5596,0.5652,-0.1570,-0.3323,-0.0668,-0.2103,-0.4783,-0.4006,9.1736,-0.6578,2.0672,-0.0020,-0.0042,-0.0008,1.0000,0.2291,-0.0165,0.0527
78392,Right,2,0.1908,0.0829,-0.7633,0.6117,-0.0762,0.0192,-0.0003,0.0748,0.1830,0.3974,-4.1866,1.1295,9.2456,-0.0010,0.0002,-0.0000,1.0000,-0.1046,0.0285,0.2311
78392,Left,2,0.0088,0.1803,-0.3250,0.9283,-0.0153,0.0184,-0.0087,0.0220,0.0796,0.0357,-3.3851,-0.9124,9.2036,-0.0002,0.0002,-0.0001,1.0000,-0.0846,-0.0228,0.2301
78392,Pelvis,2,-0.4506,-0.4112,-0.5589,0.5617,-0.1329,-0.3877,-0.1124,-0.4525,-0.3569,-0.3795,9.1726,-0.8908,2.0946,-0.0017,-0.0048,-0.0014,1.0000,0.2290,-0.0225,0.0535
78393,Right,2,0.1900,0.0830,-0.7633,0.6119,-0.0443,-0.0389,0.0079,0.0482,0.0624,0.2321,-4.0046,1.1002,9.1464,-0.0006,-0.0005,0.0001,1.0000,-0.1002,0.0276,0.2286
78393,Left,2,0.0083,0.1802,-0.3257,0.9281,-0.0157,-0.0132,-0.0214,-0.0096,0.1263,0.0818,-3.4508,-0.9091,9.2295,-0.0002,-0.0002,-0.0003,1.0000,-0.0863,-0.0227,0.2307
78393,Pelvis,2,-0.4535,-0.4143,-0.5578,0.5582,-0.0863,-0.4167,-0.1327,-0.4749,-0.2505,-0.3659,9.1815,-0.8946,2.1048,-0.0011,-0.0052,-0.0017,1.0000,0.2292,-0.0227,0.0538
78394,Right,2,0.1894,0.0827,-0.7632,0.6122,-0.0097,-0.0473,0.0182,-0.0344,-0.0491,0.0567,-3.8093,1.0221,9.0473,-0.0001,-0.0006,0.0002,1.0000,-0.0954,0.0256,0.2261
78394,Left,2,0.0078,0.1797,-0.3264,0.9280,-0.0102,-0.0484,-0.0306,0.0037,0.0543,-0.0068,-3.3584,-0.9582,9.1631,-0.0001,-0.0006,-0.0004,1.0000,-0.0841,-0.0239,0.2290
78394,Pelvis,2,-0.4568,-0.4179,-0.5563,0.5543,-0.0774,-0.4906,-0.1205,-0.3303,-0.2890,-0.2670,9.3177,-0.7281,1.9910,-0.0010,-0.0061,-0.0015,1.0000,0.2326,-0.0185,0.0512
78395,Right,2,0.1895,0.0822,-0.7631,0.6124,0.0391,-0.0113,0.0287,0.0146,-0.0515,0.0331,-3.7984,1.0721,9.0203,0.0005,-0.0001,0.0004,1.0000,-0.0950,0.0267,0.2255
78395,Left,2,0.0074,0.1792,-0.3275,0.9277,-0.0000,-0.0475,-0.0283,0.0071,-0.1279,-0.1754,-3.1762,-1.0917,9.0340,-0.0000,-0.0006,-0.0004,1.0000,-0.0795,-0.0273,0.2258
78395,Pelvis,2,-0.4602,-0.4216,-0.5543,0.5506,-0.0635,-0.5120,-0.0988,-0.1566,-0.3056,-0.1102,9.5057,-0.5382,1.8998,-0.0008,-0.0064,-0.0012,1.0000,0.2373,-0.0137,0.0490
78396,Right,2,0.1901,0.0816,-0.7628,0.6127,0.0616,0.0101,0.0353,0.0078,-0.0066,0.0430,-3.8396,1.0694,9.0138,0.0008,0.0001,0.0004,1.0000,-0.0960,0.0265,0.2254
78396,Left,2,0.0073,0.1792,-0.3277,0.9276,0.0062,0.0012,0.0045,0.0335,-0.2463,-0.3051,-3.0350,-1.1601,8.9387,0.0001,0.0000,0.0001,1.0000,-0.0759,-0.0290,0.2235
78396,Pelvis,2,-0.4642,-0.4256,-0.5518,0.5468,-0.0633,-0.5710,-0.0749,-0.0984,-0.2167,-0.1567,9.4690,-0.4640,1.8491,-0.0008,-0.0071,-0.0009,1.0000,0.2364,-0.0118,0.0479
78397,Right,2,0.1911,0.0809,-0.7625,0.6128,0.0942,0.0333,0.0415,0.1190,-0.0825,0.0786,-3.8073,1.2189,9.0486,0.0012,0.0004,0.0005,1.0000,-0.0951,0.0302,0.2263
78397,Left,2,0.0074,0.1798,-0.3282,0.9273,0.0045,0.0412,0.0226,0.0205,-0.0999,-0.1448,-3.1913,-1.0733,9.0632,0.0001,0.0005,0.0003,1.0000,-0.0797,-0.0269,0.2266
78397,Pelvis,2,-0.4684,-0.4299,-0.5489,0.5427,-0.0472,-0.6217,-0.0711,-0.3465,-0.1504,-0.0177,9.6123,-0.7046,1.7875,-0.0006,-0.0078,-0.0009,1.0000,0.2399,-0.0178,0.0466
78398,Right,2,0.1922,0.0803,-0.7623,0.6128,0.0918,0.0522,0.0300,0.1507,-0.0143,0.1994,-3.9292,1.2703,9.1221,0.0011,0.0007,0.0004,1.0000,-0.0981,0.0315,0.2282
78398,Left,2,0.0076,0.1804,-0.3283,0.9271,0.0069,0.0616,0.0245,0.0658,-0.0118,-0.0827,-3.2436,-0.9832,9.1209,0.0001,0.0008,0.0003,1.0000,-0.0809,-0.0246,0.2281
78398,Pelvis,2,-0.4717,-0.4345,-0.5459,0.5391,0.0203,-0.5761,-0.0859,-0.4930,-0.0110,0.2437,9.8662,-0.8477,1.8208,0.0003,-0.0072,-0.0011,1.0000,0.2463,-0.0215,0.0473
78399,Right,2,0.1930,0.0798,-0.7620,0.6129,0.0750,0.0324,0.0264,0.0471,0.0679,0.2058,-3.9956,1.1725,9.1126,0.0009,0.0004,0.0003,1.0000,-0.0998,0.0291,0.2279
78399,Left,2,0.0080,0.1812,-0.3291,0.9267,0.0106,0.0685,0.0246,0.0528,0.0027,-0.0681,-3.2815,-0.9835,9.1227,0.0001,0.0009,0.0003,1.0000,-0.0818,-0.0246,0.2281
78399,Pelvis,2,-0.4745,-0.4393,-0.5427,0.5361,0.0760,-0.5501,-0.0834,-0.2895,0.2446,0.3558,9.9644,-0.6354,1.9623,0.0009,-0.0069,-0.0010,1.0000,0.2487,-0.0162,0.0508
78400,Right,2,0.1936,0.0794,-0.7618,0.6131,0.0613,0.0167,0.0264,0.0772,-0.0263,0.1308,-3.8900,1.2315,9.0681,0.0008,0.0002,0.0003,1.0000,-0.0972,0.0306,0.2267
78400,Left,2,0.0083,0.1819,-0.3298,0.9263,0.0123,0.0599,0.0254,-0.0057,0.0426,-0.0287,-3.3752,-0.9927,9.1297,0.0002,0.0007,0.0003,1.0000,-0.0842,-0.0249,0.2283
78400,Pelvis,2,-0.4772,-0.4437,-0.5396,0.5331,0.0684,-0.5280,-0.0663,0.0932,0.3047,0.1557,9.7935,-0.2271,1.8727,0.0009,-0.0066,-0.0008,1.0000,0.2445,-0.0059,0.0484
78401,Right,2,0.1943,0.0791,-0.7616,0.6131,0.0508,0.0344,0.0165,0.1322,-0.0514,0.1269,-3.8794,1.3042,9.0590,0.0006,0.0004,0.0002,1.0000,-0.0969,0.0324,0.2265
78401,Left,2,0.0085,0.1824,-0.3304,0.9260,0.0140,0.0461,0.0188,0.0537,0.0156,-0.0495,-3.3211,-0.9770,9.1289,0.0002,0.0006,0.0002,1.0000,-0.0829,-0.0245,0.2283
78401,Pelvis,2,-0.4801,-0.4474,-0.5369,0.5301,0.0109,-0.4859,-0.0542,0.3196,0.4385,-0.0056,9.6432,0.0153,1.8664,0.0001,-0.0061,-0.0007,1.0000,0.2408,0.0002,0.0481
78402,Right,2,0.1949,0.0792,-0.7615,0.6131,0.0344,0.0442,0.0047,0.0798,0.0134,0.1744,-3.9551,1.2535,9.0848,0.0004,0.0006,0.0001,1.0000,-0.0988,0.0312,0.2272
78402,Left,2,0.0087,0.1829,-0.3305,0.9259,0.0107,0.0458,0.0168,0.0498,0.0059,-0.0591,-3.3239,-0.9848,9.1168,0.0001,0.0006,0.0002,1.0000,-0.0830,-0.0247,0.2280
78402,Pelvis,2,-0.4830,-0.4503,-0.5349,0.5271,-0.0524,-0.4331,-0.0507,0.2922,0.4160,0.2694,9.9388,-0.0072,1.7683,-0.0007,-0.0054,-0.0006,1.0000,0.2482,-0.0003,0.0456
78403,Right,2,0.1954,0.0791,-0.7614,0.6131,0.0337,0.0364,0.0048,0.0435,0.0318,0.1726,-3.9726,1.2211,9.0794,0.0004,0.0005,0.0001,1.0000,-0.0992,0.0304,0.2270
78403,Left,2,0.0090,0.1834,-0.3316,0.9254,0.0105,0.0456,0.0138,-0.0240,0.0083,-0.0391,-3.3947,-1.0327,9.1068,0.0001,0.0006,0.0002,1.0000,-0.0847,-0.0259,0.2277
78403,Pelvis,2,-0.4860,-0.4524,-0.5335,0.5240,-0.1044,-0.3799,-0.0443,0.2663,0.4847,0.4244,10.1011,-0.0314,1.7528,-0.0013,-0.0047,-0.0006,1.0000,0.2523,-0.0009,0.0450
78404,Right,2,0.1957,0.0790,-0.7613,0.6131,0.0276,0.0204,0.0044,0.0315,0.0705,0.1770,-4.0125,1.2074,9.0687,0.0003,0.0003,0.0001,1.0000,-0.1003,0.0301,0.2268
78404,Left,2,0.0093,0.1837,-0.3325,0.9250,0.0186,0.0333,0.0148,-0.0083,0.0207,-0.0161,-3.4073,-1.0164,9.1286,0.0002,0.0004,0.0002,1.0000,-0.0851,-0.0255,0.2282
78404,Pelvis,2,-0.4889,-0.4540,-0.5324,0.5209,-0.1398,-0.3443,-0.0485,0.0072,0.4567,0.3459,10.0364,-0.2803,1.6120,-0.0017,-0.0043,-0.0006,1.0000,0.2507,-0.0071,0.0414
78405,Right,2,0.1958,0.0788,-0.7612,0.6132,0.0201,-0.0006,0.0074,0.0184,0.0589,0.1529,-3.9913,1.1992,9.0525,0.0003,-0.0000,0.0001,1.0000,-0.0998,0.0299,0.2263
78405,Left,2,0.0095,0.1838,-0.3324,0.9250,0.0210,0.0158,0.0101,0.0037,0.0252,-0.0232,-3.4030,-1.0019,9.1241,0.0003,0.0002,0.0001,1.0000,-0.0850,-0.0251,0.2281
78405,Pelvis,2,-0.4912,-0.4554,-0.5318,0.5182,-0.1283,-0.2787,-0.0629,-0.0947,0.4601,0.2243,9.9258,-0.3705,1.5180,-0.0016,-0.0035,-0.0008,1.0000,0.2480,-0.0094,0.0388
78406,Right,2,0.1958,0.0785,-0.7612,0.6133,0.0216,-0.0095,0.0139,0.0122,0.0307,0.1410,-3.9576,1.2029,9.0536,0.0003,-0.0001,0.0002,1.0000,-0.0990,0.0300,0.2263
78406,Left,2,0.0096,0.1837,-0.3326,0.9249,0.0239,0.0033,0.0057,-0.0173,0.0193,-0.0484,-3.4064,-1.0153,9.0943,0.0003,0.0000,0.0001,1.0000,-0.0851,-0.0255,0.2274
78406,Pelvis,2,-0.4929,-0.4564,-0.5316,0.5158,-0.1157,-0.2047,-0.0718,-0.0688,0.5576,0.1625,9.8646,-0.3356,1.5485,-0.0014,-0.0026,-0.0009,1.0000,0.2465,-0.0086,0.0394
78407,Right,2,0.1959,0.0782,-0.7611,0.6134,0.0291,-0.0083,0.0161,0.0450,0.0020,0.1448,-3.9352,1.2482,9.0615,0.0004,-0.0001,0.0002,1.0000,-0.0984,0.0311,0.2265
78407,Left,2,0.0098,0.1837,-0.3330,0.9248,0.0288,0.0054,0.0047,0.0246,-0.0556,-0.1281,-3.3030,-1.0373,9.0449,0.0004,0.0001,0.0001,1.0000,-0.0826,-0.0260,0.2261
78407,Pelvis,2,-0.4942,-0.4570,-0.5316,0.5141,-0.1035,-0.1411,-0.0511,-0.0366,0.5676,0.2251,9.9337,-0.2944,1.5222,-0.0013,-0.0018,-0.0006,1.0000,0.2483,-0.0075,0.0385
78408,Right,2,0.1960,0.0778,-0.7610,0.6136,0.0299,-0.0052,0.0174,0.0512,-0.0334,0.0778,-3.8748,1.2609,9.0123,0.0004,-0.0001,0.0002,1.0000,-0.0969,0.0314,0.2253
78408,Left,2,0.0100,0.1836,-0.3329,0.9249,0.0275,0.0113,0.0122,0.0187,0.0140,-0.0474,-3.3779,-0.9905,9.1088,0.0003,0.0001,0.0002,1.0000,-0.0844,-0.0249,0.2277
78408,Pelvis,2,-0.4951,-0.4574,-0.5319,0.5126,-0.0901,-0.1021,-0.0562,-0.1969,0.5831,0.2139,9.9234,-0.4452,1.4963,-0.0011,-0.0013,-0.0007,1.0000,0.2480,-0.0113,0.0377
78409,Right,2,0.1962,0.0775,-0.7609,0.6136,0.0383,0.0055,0.0126,0.0198,-0.0151,0.0891,-3.8889,1.2355,9.0220,0.0005,0.0001,0.0002,1.0000,-0.0972,0.0308,0.2256
78409,Left,2,0.0103,0.1835,-0.3325,0.9250,0.0255,0.0108,0.0086,0.0310,0.0162,-0.0638,-3.3646,-0.9732,9.0980,0.0003,0.0001,0.0001,1.0000,-0.0841,-0.0244,0.2275
78409,Pelvis,2,-0.4957,-0.4581,-0.5320,0.5113,-0.0548,-0.0948,-0.0627,-0.1470,0.5935,0.2461,9.9596,-0.3846,1.4869,-0.0007,-0.0012,-0.0008,1.0000,0.2489,-0.0098,0.0375
78410,Right,2,0.1965,0.0771,-0.7608,0.6137,0.0420,0.0068,0.0150,0.0586,0.0003,0.1420,-3.9300,1.2848,9.0556,0.0005,0.0001,0.0002,1.0000,-0.0982,0.0320,0.2264
78410,Left,2,0.0104,0.1835,-0.3329,0.9249,0.0227,0.0066,0.0069,0.0308,0.0221,-0.0545,-3.3727,-0.9685,9.1055,0.0003,0.0001,0.0001,1.0000,-0.0843,-0.0243,0.2276
78410,Pelvis,2,-0.4958,-0.4585,-0.5324,0.5104,-0.0387,-0.0337,-0.0669,0.0865,0.2457,0.4702,10.2200,-0.1211,1.1580,-0.0005,-0.0004,-0.0008,1.0000,0.2555,-0.0032,0.0291
78411,Right,2,0.1967,0.0769,-0.7607,0.6137,0.0293,0.0048,0.0113,0.0139,0.0167,0.1506,-3.9405,1.2468,9.0657,0.0004,0.0001,0.0001,1.0000,-0.0985,0.0311,0.2267
78411,Left,2,0.0104,0.1835,-0.3328,0.9249,0.0181,0.0049,0.0013,0.0244,0.0140,-0.0547,-3.3719,-0.9772,9.1046,0.0002,0.0001,0.0000,1.0000,-0.0843,-0.0245,0.2276
78411,Pelvis,2,-0.4948,-0.4577,-0.5340,0.5104,-0.0577,0.1430,-0.0726,0.0342,0.2125,0.3987,10.1499,-0.1537,1.1290,-0.0007,0.0018,-0.0009,1.0000,0.2538,-0.0041,0.0278
78412,Right,2,0.1970,0.0767,-0.7607,0.6138,0.0320,0.0118,0.0107,0.0422,-0.0150,0.0759,-3.8877,1.2787,9.0021,0.0004,0.0001,0.0001,1.0000,-0.0972,0.0319,0.2251
78412,Left,2,0.0105,0.1835,-0.3334,0.9247,0.0153,0.0015,0.0051,0.0012,-0.0223,-0.0762,-3.3585,-1.0183,9.0820,0.0002,0.0000,0.0001,1.0000,-0.0840,-0.0255,0.2270
78412,Pelvis,2,-0.4934,-0.4565,-0.5358,0.5109,-0.0402,0.1993,-0.0595,0.0485,0.3018,0.0076,9.7476,-0.1234,1.2249,-0.0005,0.0025,-0.0007,1.0000,0.2438,-0.0033,0.0300
78413,Right,2,0.1973,0.0766,-0.7606,0.6137,0.0241,0.0192,0.0029,0.0477,-0.0156,0.1254,-3.9098,1.2966,9.0444,0.0003,0.0002,0.0000,1.0000,-0.0977,0.0323,0.2261
78413,Left,2,0.0106,0.1834,-0.3337,0.9246,0.0155,0.0031,0.0064,0.0314,-0.0207,-0.0677,-3.3398,-0.9984,9.1002,0.0002,0.0000,0.0001,1.0000,-0.0835,-0.0250,0.2275
78413,Pelvis,2,-0.4928,-0.4558,-0.5369,0.5111,-0.0452,0.1064,-0.0274,0.0179,0.2047,-0.0272,9.7177,-0.1381,1.1599,-0.0006,0.0013,-0.0003,1.0000,0.2430,-0.0035,0.0287
78414,Right,2,0.1975,0.0766,-0.7606,0.6137,0.0195,0.0198,0.0002,0.0299,0.0108,0.1319,-3.9364,1.2782,9.0425,0.0002,0.0002,0.0000,1.0000,-0.0984,0.0319,0.2261
78414,Left,2,0.0106,0.1834,-0.3343,0.9244,0.0123,0.0049,0.0029,0.0636,0.0212,-0.0650,-3.3433,-0.9466,9.1076,0.0002,0.0001,0.0000,1.0000,-0.0836,-0.0237,0.2277
78414,Pelvis,2,-0.4923,-0.4549,-0.5379,0.5113,-0.0493,0.1069,-0.0160,0.0495,0.1254,-0.0570,9.6932,-0.0973,1.1058,-0.0006,0.0013,-0.0002,1.0000,0.2424,-0.0025,0.0273
78415,Right,2,0.1977,0.0765,-0.7606,0.6136,0.0156,0.0184,0.0010,0.0427,0.0304,0.1353,-3.9607,1.2888,9.0342,0.0002,0.0002,0.0000,1.0000,-0.0990,0.0322,0.2259
78415,Left,2,0.0106,0.1835,-0.3347,0.9242,0.0083,0.0078,0.0003,0.0605,-0.0119,-0.0914,-3.3161,-0.9731,9.0865,0.0001,0.0001,0.0000,1.0000,-0.0829,-0.0244,0.2272
78415,Pelvis,2,-0.4919,-0.4539,-0.5389,0.5114,-0.0680,0.1023,-0.0105,-0.0816,0.0561,-0.0901,9.6637,-0.2216,1.0500,-0.0009,0.0013,-0.0001,1.0000,0.2416,-0.0055,0.0259
78416,Right,2,0.1979,0.0766,-0.7606,0.6136,0.0112,0.0186,0.0008,0.0246,0.0171,0.1347,-3.9485,1.2767,9.0405,0.0001,0.0002,0.0000,1.0000,-0.0987,0.0319,0.2260
78416,Left,2,0.0106,0.1835,-0.3350,0.9241,0.0094,0.0098,0.0005,0.0080,-0.0160,-0.0742,-3.3572,-1.0125,9.0853,0.0001,0.0001,0.0000,1.0000,-0.0839,-0.0253,0.2271
78416,Pelvis,2,-0.4914,-0.4527,-0.5402,0.5117,-0.0649,0.1337,-0.0109,0.1195,-0.0093,0.0191,9.7776,-0.0174,1.0379,-0.0008,0.0017,-0.0001,1.0000,0.2445,-0.0004,0.0255
78417,Right,2,0.1981,0.0766,-0.7605,0.6136,0.0120,0.0161,0.0017,0.0033,0.0098,0.1135,-3.9327,1.2564,9.0268,0.0001,0.0002,0.0000,1.0000,-0.0983,0.0314,0.2257
78417,Left,2,0.0107,0.1835,-0.3353,0.9240,0.0140,0.0095,0.0038,0.0035,-0.0096,-0.0556,-3.3713,-1.0126,9.1000,0.0002,0.0001,0.0000,1.0000,-0.0843,-0.0254,0.2275
78417,Pelvis,2,-0.4917,-0.4516,-0.5412,0.5113,-0.1189,0.0578,-0.0091,0.3308,0.0308,-0.0395,9.7139,0.1916,1.1091,-0.0015,0.0007,-0.0001,1.0000,0.2429,0.0048,0.0275
78418,Right,2,0.1982,0.0766,-0.7605,0.6136,0.0157,0.0138,0.0025,0.0245,0.0295,0.1430,-3.9680,1.2784,9.0409,0.0002,0.0002,0.0000,1.0000,-0.0992,0.0319,0.2260
78418,Left,2,0.0108,0.1835,-0.3355,0.9239,0.0188,0.0112,0.0057,0.0018,-0.0208,-0.0744,-3.3597,-1.0191,9.0834,0.0002,0.0001,0.0001,1.0000,-0.0840,-0.0255,0.2271
78418,Pelvis,2,-0.4925,-0.4505,-0.5423,0.5103,-0.1601,0.0176,-0.0187,0.1170,-0.0101,-0.1012,9.6546,-0.0183,1.0559,-0.0020,0.0002,-0.0002,1.0000,0.2414,-0.0005,0.0263
78419,Right,2,0.1984,0.0765,-0.7605,0.6136,0.0169,0.0104,0.0033,0.0196,-0.0199,0.1015,-3.9077,1.2830,9.0209,0.0002,0.0001,0.0000,1.0000,-0.0977,0.0320,0.2255
78419,Left,2,0.0110,0.1836,-0.3363,0.9236,0.0210,0.0103,0.0071,0.0211,0.0059,-0.0833,-3.3608,-0.9854,9.0771,0.0003,0.0001,0.0001,1.0000,-0.0840,-0.0247,0.2269
78419,Pelvis,2,-0.4931,-0.4493,-0.5438,0.5092,-0.1694,0.0406,-0.0365,-0.0017,-0.0472,-0.0984,9.6601,-0.1314,1.0171,-0.0021,0.0005,-0.0005,1.0000,0.2415,-0.0033,0.0253
78420,Right,2,0.1986,0.0764,-0.7604,0.6136,0.0168,0.0150,0.0007,0.0112,0.0128,0.1265,-3.9475,1.2737,9.0323,0.0002,0.0002,0.0000,1.0000,-0.0986,0.0318,0.2258
78420,Left,2,0.0113,0.1836,-0.3367,0.9235,0.0228,0.0164,0.0079,0.0256,-0.0092,-0.0794,-3.3511,-0.9922,9.0843,0.0003,0.0002,0.0001,1.0000,-0.0837,-0.0249,0.2271
78420,Pelvis,2,-0.4935,-0.4481,-0.5454,0.5081,-0.1781,0.0615,-0.0525,-0.1626,0.0003,0.0532,9.8037,-0.2913,1.0794,-0.0022,0.0008,-0.0007,1.0000,0.2451,-0.0074,0.0268
78421,Right,2,0.1988,0.0764,-0.7604,0.6136,0.0222,0.0153,0.0048,0.0226,-0.0118,0.0940,-3.9165,1.2899,9.0078,0.0003,0.0002,0.0001,1.0000,-0.0979,0.0322,0.2252
78421,Left,2,0.0115,0.1838,-0.3372,0.9233,0.0215,0.0206,0.0088,0.0274,0.0025,-0.0907,-3.3560,-0.9788,9.0718,0.0003,0.0003,0.0001,1.0000,-0.0838,-0.0245,0.2268
78421,Pelvis,2,-0.4932,-0.4466,-0.5475,0.5075,-0.1512,0.1332,-0.0617,-0.1671,0.0185,0.0040,9.7505,-0.2870,1.1139,-0.0019,0.0017,-0.0008,1.0000,0.2438,-0.0073,0.0275
78422,Right,2,0.1991,0.0762,-0.7603,0.6136,0.0247,0.0164,0.0059,0.0336,0.0351,0.1195,-3.9732,1.2977,9.0101,0.0003,0.0002,0.0001,1.0000,-0.0993,0.0324,0.2253
78422,Left,2,0.0116,0.1839,-0.3369,0.9233,0.0230,0.0196,0.0091,0.0294,0.0051,-0.0493,-3.3738,-0.9775,9.1097,0.0003,0.0002,0.0001,1.0000,-0.0843,-0.0245,0.2278
78422,Pelvis,2,-0.4927,-0.4449,-0.5497,0.5070,-0.1567,0.1623,-0.0596,-0.1183,0.0564,-0.0893,9.6497,-0.2304,1.1794,-0.0020,0.0020,-0.0007,1.0000,0.2413,-0.0059,0.0290
78423,Right,2,0.1994,0.0761,-0.7603,0.6135,0.0296,0.0160,0.0054,0.0329,-0.0204,0.0987,-3.9171,1.3128,9.0094,0.0004,0.0002,0.0001,1.0000,-0.0979,0.0327,0.2253
78423,Left,2,0.0118,0.1840,-0.3369,0.9233,0.0227,0.0184,0.0103,0.0245,-0.0125,-0.0474,-3.3696,-0.9913,9.1117,0.0003,0.0002,0.0001,1.0000,-0.0842,-0.0249,0.2278
78423,Pelvis,2,-0.4923,-0.4432,-0.5518,0.5067,-0.1495,0.1575,-0.0479,-0.2199,0.0801,-0.0194,9.7119,-0.3259,1.2393,-0.0019,0.0020,-0.0006,1.0000,0.2429,-0.0082,0.0305
78424,Right,2,0.1998,0.0759,-0.7603,0.6134,0.0320,0.0222,0.0054,0.0143,-0.0064,0.1203,-3.9382,1.3004,9.0257,0.0004,0.0003,0.0001,1.0000,-0.0984,0.0324,0.2257
78424,Left,2,0.0121,0.1841,-0.3377,0.9230,0.0212,0.0184,0.0088,0.0456,0.0121,-0.0658,-3.3666,-0.9555,9.0971,0.0003,0.0002,0.0001,1.0000,-0.0841,-0.0240,0.2274
78424,Pelvis,2,-0.4913,-0.4418,-0.5538,0.5067,-0.0951,0.1785,-0.0626,-0.0694,0.0626,0.0110,9.7391,-0.1653,1.2798,-0.0012,0.0022,-0.0008,1.0000,0.2435,-0.0043,0.0315
78425,Right,2,0.2002,0.0758,-0.7603,0.6133,0.0298,0.0234,0.0022,0.0400,0.0151,0.1263,-3.9682,1.3272,9.0154,0.0004,0.0003,0.0000,1.0000,-0.0991,0.0331,0.2254
78425,Left,2,0.0123,0.1841,-0.3380,0.9229,0.0196,0.0164,0.0089,0.0210,0.0231,-0.0535,-3.3977,-0.9615,9.0981,0.0002,0.0002,0.0001,1.0000,-0.0849,-0.0241,0.2275
78425,Pelvis,2,-0.4910,-0.4405,-0.5555,0.5062,-0.1302,0.1174,-0.0506,0.1788,0.1189,0.1274,9.8416,0.0854,1.4099,-0.0016,0.0015,-0.0006,1.0000,0.2461,0.0020,0.0349
78426,Right,2,0.2006,0.0757,-0.7602,0.6133,0.0353,0.0243,0.0068,-0.0025,0.0148,0.1343,-3.9681,1.2939,9.0289,0.0004,0.0003,0.0001,1.0000,-0.0991,0.0322,0.2258
78426,Left,2,0.0125,0.1842,-0.3382,0.9228,0.0233,0.0139,0.0067,0.0162,0.0055,-0.0516,-3.3926,-0.9758,9.1004,0.0003,0.0002,0.0001,1.0000,-0.0848,-0.0245,0.2275
78426,Pelvis,2,-0.4909,-0.4390,-0.5571,0.5059,-0.1354,0.1205,-0.0270,0.0419,0.0204,0.0029,9.7276,-0.0349,1.3119,-0.0017,0.0015,-0.0003,1.0000,0.2432,-0.0009,0.0324
78427,Right,2,0.2010,0.0754,-0.7601,0.6133,0.0400,0.0179,0.0090,0.0188,0.0027,0.1127,-3.9556,1.3230,9.0065,0.0005,0.0002,0.0001,1.0000,-0.0988,0.0330,0.2252
78427,Left,2,0.0127,0.1842,-0.3384,0.9227,0.0217,0.0109,0.0056,0.0318,0.0088,-0.0681,-3.3795,-0.9599,9.0893,0.0003,0.0001,0.0001,1.0000,-0.0845,-0.0241,0.2272
78427,Pelvis,2,-0.4900,-0.4375,-0.5590,0.5060,-0.0964,0.1815,-0.0406,-0.2468,0.0775,-0.3263,9.3908,-0.3213,1.3300,-0.0012,0.0023,-0.0005,1.0000,0.2348,-0.0081,0.0327
78428,Right,2,0.2014,0.0751,-0.7601,0.6133,0.0444,0.0172,0.0128,0.0176,0.0601,0.1204,-4.0127,1.3191,8.9905,0.0006,0.0002,0.0002,1.0000,-0.1003,0.0328,0.2248
78428,Left,2,0.0128,0.1842,-0.3384,0.9227,0.0209,0.0112,0.0068,0.0360,0.0177,-0.0473,-3.3897,-0.9500,9.1089,0.0003,0.0001,0.0001,1.0000,-0.0847,-0.0238,0.2277
78428,Pelvis,2,-0.4896,-0.4364,-0.5607,0.5055,-0.1135,0.1067,-0.0595,-0.0493,0.1561,-0.0792,9.6185,-0.1265,1.4953,-0.0014,0.0013,-0.0007,1.0000,0.2405,-0.0033,0.0371
78429,Right,2,0.2018,0.0747,-0.7599,0.6133,0.0461,0.0131,0.0176,0.0095,0.0134,0.1314,-3.9755,1.3342,9.0167,0.0006,0.0002,0.0002,1.0000,-0.0994,0.0332,0.2255
78429,Left,2,0.0130,0.1842,-0.3393,0.9224,0.0206,0.0079,0.0042,0.0265,0.0211,-0.0402,-3.4022,-0.9536,9.1115,0.0003,0.0001,0.0001,1.0000,-0.0850,-0.0239,0.2278
78429,Pelvis,2,-0.4890,-0.4354,-0.5624,0.5050,-0.0886,0.1203,-0.0752,0.0914,0.0474,-0.0617,9.6456,0.0379,1.4329,-0.0011,0.0015,-0.0009,1.0000,0.2412,0.0008,0.0355
78430,Right,2,0.2022,0.0743,-0.7598,0.6134,0.0441,0.0087,0.0191,0.0281,0.0102,0.1547,-3.9857,1.3669,9.0330,0.0006,0.0001,0.0002,1.0000,-0.0996,0.0340,0.2259
78430,Left,2,0.0131,0.1841,-0.3394,0.9224,0.0221,0.0035,0.0038,0.0277,0.0325,-0.0515,-3.4041,-0.9408,9.1000,0.0003,0.0000,0.0000,1.0000,-0.0851,-0.0236,0.2275
78430,Pelvis,2,-0.4886,-0.4349,-0.5638,0.5042,-0.0937,0.0680,-0.0832,0.0476,0.1353,-0.1015,9.5908,0.0004,1.5312,-0.0012,0.0009,-0.0010,1.0000,0.2398,-0.0002,0.0381
78431,Right,2,0.2024,0.0740,-0.7597,0.6135,0.0374,0.0049,0.0189,0.0122,0.0091,0.1390,-3.9756,1.3591,9.0213,0.0005,0.0001,0.0002,1.0000,-0.0994,0.0338,0.2256
78431,Left,2,0.0131,0.1839,-0.3389,0.9226,0.0226,-0.0019,0.0043,0.0146,0.0029,-0.0497,-3.3936,-0.9688,9.1028,0.0003,-0.0000,0.0001,1.0000,-0.0848,-0.0243,0.2276
78431,Pelvis,2,-0.4886,-0.4343,-0.5649,0.5035,-0.0881,0.0457,-0.0547,0.1275,0.1186,0.1950,9.8832,0.0943,1.5801,-0.0011,0.0006,-0.0007,1.0000,0.2471,0.0022,0.0394
78432,Right,2,0.2027,0.0736,-0.7596,0.6136,0.0331,0.0022,0.0198,0.0099,0.0207,0.1473,-3.9881,1.3646,9.0241,0.0004,0.0000,0.0002,1.0000,-0.0997,0.0340,0.2256
78432,Left,2,0.0132,0.1838,-0.3391,0.9225,0.0239,-0.0013,0.0025,0.0311,0.0381,-0.0608,-3.3982,-0.9284,9.0935,0.0003,-0.0000,0.0000,1.0000,-0.0850,-0.0233,0.2273
78432,Pelvis,2,-0.4890,-0.4339,-0.5657,0.5027,-0.0930,0.0028,-0.0373,0.1328,0.1396,0.1265,9.8113,0.1053,1.5973,-0.0012,0.0000,-0.0005,1.0000,0.2453,0.0026,0.0399
78433,Right,2,0.2028,0.0734,-0.7594,0.6138,0.0267,-0.0004,0.0196,0.0066,0.0153,0.1418,-3.9789,1.3691,9.0214,0.0003,-0.0000,0.0002,1.0000,-0.0995,0.0341,0.2255
78433,Left,2,0.0133,0.1836,-0.3394,0.9225,0.0256,-0.0120,-0.0005,0.0253,0.0228,-0.0496,-3.3940,-0.9439,9.1054,0.0003,-0.0002,-0.0000,1.0000,-0.0849,-0.0237,0.2276
78433,Pelvis,2,-0.4897,-0.4336,-0.5661,0.5017,-0.0905,-0.0428,-0.0201,0.0981,0.1031,0.1530,9.8441,0.0788,1.5563,-0.0011,-0.0005,-0.0003,1.0000,0.2461,0.0020,0.0390
78434,Right,2,0.2028,0.0730,-0.7594,0.6139,0.0241,-0.0130,0.0197,0.0322,0.0368,0.1478,-4.0016,1.3962,9.0140,0.0003,-0.0002,0.0002,1.0000,-0.1001,0.0348,0.2253
78434,Left,2,0.0133,0.1832,-0.3392,0.9226,0.0290,-0.0226,-0.0044,0.0230,0.0441,-0.0123,-3.4159,-0.9298,9.1388,0.0004,-0.0003,-0.0001,1.0000,-0.0855,-0.0233,0.2284
78434,Pelvis,2,-0.4905,-0.4332,-0.5665,0.5008,-0.0935,-0.0332,-0.0121,0.0054,0.0663,-0.0983,9.6038,-0.0078,1.4632,-0.0012,-0.0004,-0.0002,1.0000,0.2401,-0.0002,0.0367
78435,Right,2,0.2027,0.0726,-0.7594,0.6140,0.0219,-0.0175,0.0160,0.0207,0.0024,0.1306,-3.9567,1.3966,9.0147,0.0003,-0.0002,0.0002,1.0000,-0.0990,0.0348,0.2254
78435,Left,2,0.0133,0.1826,-0.3398,0.9225,0.0327,-0.0394,-0.0093,0.0103,0.0324,-0.0238,-3.4048,-0.9430,9.1291,0.0004,-0.0005,-0.0001,1.0000,-0.0852,-0.0237,0.2282
78435,Pelvis,2,-0.4914,-0.4328,-0.5669,0.4998,-0.1002,-0.0419,-0.0160,-0.1042,0.0682,-0.0803,9.6247,-0.1167,1.4447,-0.0013,-0.0005,-0.0002,1.0000,0.2406,-0.0029,0.0362
78436,Right,2,0.2027,0.0723,-0.7593,0.6141,0.0179,-0.0144,0.0152,0.0253,-0.0072,0.1223,-3.9402,1.4070,9.0111,0.0002,-0.0002,0.0002,1.0000,-0.0986,0.0351,0.2253
78436,Left,2,0.0134,0.1819,-0.3403,0.9225,0.0318,-0.0430,-0.0074,0.0382,-0.0138,-0.0902,-3.3219,-0.9501,9.0880,0.0004,-0.0005,-0.0001,1.0000,-0.0832,-0.0238,0.2271
78436,Pelvis,2,-0.4921,-0.4328,-0.5673,0.4988,-0.0806,-0.0475,-0.0338,0.2648,0.0161,0.1079,9.8134,0.2589,1.4553,-0.0010,-0.0006,-0.0004,1.0000,0.2453,0.0064,0.0365
78437,Right,2,0.2026,0.0720,-0.7593,0.6142,0.0166,-0.0100,0.0123,0.0098,0.0025,0.1280,-3.9444,1.3951,9.0174,0.0002,-0.0001,0.0002,1.0000,-0.0986,0.0348,0.2254
78437,Left,2,0.0134,0.1813,-0.3408,0.9224,0.0256,-0.0372,-0.0092,0.0822,0.0283,-0.0950,-3.3047,-0.8872,9.0958,0.0003,-0.0005,-0.0001,1.0000,-0.0827,-0.0222,0.2273
78437,Pelvis,2,-0.4929,-0.4320,-0.5680,0.4977,-0.1307,-0.0090,-0.0215,0.1518,-0.0123,0.0107,9.7241,0.1535,1.3925,-0.0016,-0.0001,-0.0003,1.0000,0.2431,0.0038,0.0348
78438,Right,2,0.2026,0.0718,-0.7592,0.6143,0.0169,-0.0094,0.0117,0.0307,0.0176,0.1285,-3.9580,1.4152,9.0089,0.0002,-0.0001,0.0001,1.0000,-0.0990,0.0353,0.2252
78438,Left,2,0.0134,0.1808,-0.3419,0.9221,0.0199,-0.0323,-0.0072,0.0387,-0.0208,-0.1089,-3.2905,-0.9507,9.0794,0.0002,-0.0004,-0.0001,1.0000,-0.0824,-0.0238,0.2269
78438,Pelvis,2,-0.4940,-0.4312,-0.5686,0.4967,-0.1550,-0.0361,-0.0014,-0.5698,0.0128,0.0279,9.7519,-0.5675,1.3194,-0.0019,-0.0005,-0.0000,1.0000,0.2438,-0.0141,0.0331
78439,Right,2,0.2026,0.0715,-0.7592,0.6143,0.0171,-0.0072,0.0106,0.0273,0.0123,0.1231,-3.9471,1.4159,9.0075,0.0002,-0.0001,0.0001,1.0000,-0.0987,0.0353,0.2252
78439,Left,2,0.0134,0.1804,-0.3423,0.9220,0.0231,-0.0301,-0.0043,0.0323,-0.0124,-0.0810,-3.3010,-0.9503,9.1054,0.0003,-0.0004,-0.0001,1.0000,-0.0826,-0.0238,0.2276
78439,Pelvis,2,-0.4950,-0.4309,-0.5689,0.4957,-0.0955,-0.0540,-0.0063,-0.1104,-0.0538,0.1368,9.8620,-0.1061,1.3180,-0.0012,-0.0007,-0.0001,1.0000,0.2465,-0.0026,0.0331
78440,Right,2,0.2025,0.0713,-0.7592,0.6144,0.0131,-0.0071,0.0109,0.0343,-0.0141,0.1140,-3.9177,1.4309,9.0080,0.0002,-0.0001,0.0001,1.0000,-0.0980,0.0357,0.2252
78440,Left,2,0.0134,0.1799,-0.3427,0.9220,0.0243,-0.0300,-0.0049,0.0346,0.0057,-0.0623,-3.3080,-0.9344,9.1245,0.0003,-0.0004,-0.0001,1.0000,-0.0828,-0.0234,0.2281
78440,Pelvis,2,-0.4959,-0.4305,-0.5690,0.4949,-0.0794,-0.0440,0.0088,0.1345,-0.0477,0.0067,9.7294,0.1330,1.3270,-0.0010,-0.0005,0.0001,1.0000,0.2432,0.0034,0.0333
78441,Right,2,0.2025,0.0712,-0.7592,0.6145,0.0100,-0.0070,0.0084,0.0230,-0.0089,0.1038,-3.9135,1.4197,9.0003,0.0001,-0.0001,0.0001,1.0000,-0.0979,0.0355,0.2250
78441,Left,2,0.0135,0.1794,-0.3432,0.9219,0.0250,-0.0249,-0.0032,0.0511,-0.0010,-0.0767,-3.2791,-0.9251,9.1205,0.0003,-0.0003,-0.0000,1.0000,-0.0820,-0.0232,0.2280
78441,Pelvis,2,-0.4972,-0.4299,-0.5689,0.4943,-0.0996,-0.0590,0.0456,0.1002,-0.0841,0.0332,9.7630,0.0944,1.2774,-0.0012,-0.0007,0.0006,1.0000,0.2441,0.0025,0.0321
78442,Right,2,0.2024,0.0711,-0.7592,0.6145,0.0062,-0.0017,0.0065,0.0299,-0.0018,0.1093,-3.9209,1.4265,9.0021,0.0001,-0.0000,0.0001,1.0000,-0.0980,0.0356,0.2251
78442,Left,2,0.0134,0.1791,-0.3430,0.9220,0.0202,-0.0147,-0.0018,0.0610,-0.0204,-0.1419,-3.2310,-0.9244,9.0683,0.0003,-0.0002,-0.0000,1.0000,-0.0808,-0.0232,0.2267
78442,Pelvis,2,-0.4971,-0.4290,-0.5696,0.4944,-0.0497,0.0735,0.0129,-0.2516,-0.1414,-0.1367,9.6084,-0.2540,1.1500,-0.0006,0.0009,0.0002,1.0000,0.2402,-0.0063,0.0285
78443,Right,2,0.2024,0.0710,-0.7591,0.6146,0.0068,-0.0003,0.0043,0.0235,0.0097,0.1045,-3.9269,1.4180,8.9956,0.0001,-0.0000,0.0001,1.0000,-0.0982,0.0354,0.2249
78443,Left,2,0.0132,0.1789,-0.3422,0.9223,0.0128,-0.0056,-0.0023,0.0442,0.0092,-0.0995,-3.2711,-0.9152,9.1000,0.0002,-0.0001,-0.0000,1.0000,-0.0818,-0.0229,0.2275
78443,Pelvis,2,-0.4968,-0.4288,-0.5700,0.4944,-0.0257,0.0407,-0.0213,0.1338,-0.1114,-0.0226,9.7090,0.1225,1.2631,-0.0003,0.0005,-0.0003,1.0000,0.2427,0.0030,0.0315
78444,Right,2,0.2024,0.0709,-0.7591,0.6146,0.0120,0.0005,0.0048,0.0246,0.0107,0.1045,-3.9267,1.4206,8.9953,0.0002,0.0000,0.0001,1.0000,-0.0982,0.0355,0.2249
78444,Left,2,0.0132,0.1788,-0.3424,0.9223,0.0068,-0.0019,-0.0007,0.0441,0.0048,-0.0881,-3.2696,-0.9206,9.1121,0.0001,-0.0000,-0.0000,1.0000,-0.0817,-0.0230,0.2278
78444,Pelvis,2,-0.4966,-0.4286,-0.5705,0.4942,-0.0227,0.0304,-0.0276,-0.0716,-0.2065,-0.0333,9.7141,-0.0616,1.1475,-0.0003,0.0004,-0.0003,1.0000,0.2429,-0.0016,0.0286
78445,Right,2,0.2025,0.0708,-0.7591,0.6146,0.0106,0.0063,0.0024,0.0274,-0.0111,0.1114,-3.9097,1.4316,9.0085,0.0001,0.0001,0.0000,1.0000,-0.0977,0.0358,0.2252
78445,Left,2,0.0131,0.1788,-0.3424,0.9223,0.0041,0.0049,0.0013,0.0549,-0.0394,-0.1285,-3.2188,-0.9447,9.0848,0.0001,0.0001,0.0000,1.0000,-0.0805,-0.0236,0.2271
78445,Pelvis,2,-0.4970,-0.4294,-0.5702,0.4935,-0.0016,-0.0850,-0.0380,0.1726,0.3845,-0.5412,9.1264,0.1029,1.6842,-0.0000,-0.0011,-0.0005,1.0000,0.2281,0.0025,0.0423
78446,Right,2,0.2026,0.0709,-0.7591,0.6146,0.0088,0.0129,0.0012,0.0257,0.0005,0.1197,-3.9242,1.4297,9.0116,0.0001,0.0002,0.0000,1.0000,-0.0981,0.0357,0.2253
78446,Left,2,0.0131,0.1789,-0.3422,0.9223,0.0067,0.0173,0.0063,0.0411,-0.0112,-0.0954,-3.2580,-0.9362,9.1069,0.0001,0.0002,0.0001,1.0000,-0.0814,-0.0234,0.2277
78446,Pelvis,2,-0.5051,-0.4348,-0.5652,0.4861,-0.1903,-1.0326,-0.0738,0.3257,0.6562,-0.6712,8.9840,0.2233,1.8292,-0.0024,-0.0129,-0.0009,0.9999,0.2240,0.0055,0.0486
78447,Right,2,0.2027,0.0709,-0.7591,0.6146,0.0092,0.0127,0.0016,0.0148,0.0041,0.1460,-3.9378,1.4228,9.0358,0.0001,0.0002,0.0000,1.0000,-0.0984,0.0355,0.2259
78447,Left,2,0.0130,0.1791,-0.3423,0.9223,0.0015,0.0177,0.0048,0.0623,0.0193,-0.0839,-3.2681,-0.9014,9.1192,0.0000,0.0002,0.0001,1.0000,-0.0817,-0.0225,0.2280
78447,Pelvis,2,-0.5236,-0.4459,-0.5530,0.4704,-0.3847,-2.3065,-0.0363,0.4388,1.2250,-1.5028,8.1764,0.2474,1.9627,-0.0048,-0.0288,-0.0005,0.9996,0.2029,0.0063,0.0549
78448,Right,2,0.2028,0.0709,-0.7590,0.6146,0.0058,0.0120,0.0008,0.0123,0.0110,0.1254,-3.9372,1.4165,9.0143,0.0001,0.0001,0.0000,1.0000,-0.0984,0.0354,0.2254
78448,Left,2,0.0131,0.1792,-0.3426,0.9221,0.0022,0.0203,0.0055,0.0118,-0.0110,-0.0510,-3.2982,-0.9617,9.1371,0.0000,0.0003,0.0001,1.0000,-0.0824,-0.0241,0.2284
78448,Pelvis,2,-0.5541,-0.4576,-0.5345,0.4448,-1.0529,-3.4755,0.1635,0.0764,0.5263,-0.0752,9.7343,-0.0347,0.6355,-0.0132,-0.0434,0.0020,0.9990,0.2424,-0.0001,0.0264
78449,Right,2,0.2028,0.0710,-0.7590,0.6146,0.0041,0.0089,0.0022,0.0203,0.0289,0.1522,-3.9664,1.4240,9.0299,0.0001,0.0001,0.0000,1.0000,-0.0991,0.0356,0.2258
78449,Left,2,0.0130,0.1793,-0.3424,0.9222,0.0059,0.0166,0.0064,-0.0033,0.0104,-0.0480,-3.3257,-0.9568,9.1309,0.0001,0.0002,0.0001,1.0000,-0.0831,-0.0239,0.2283
78449,Pelvis,2,-0.5627,-0.4672,-0.5245,0.4358,0.0506,-1.4867,-0.1396,-1.8680,-3.6474,6.8230,16.4109,-1.1971,-4.7771,0.0006,-0.0186,-0.0017,0.9998,0.4123,-0.0306,-0.1118
78450,Right,2,0.2028,0.0709,-0.7589,0.6147,0.0055,0.0031,0.0045,-0.0031,0.0429,0.1607,-3.9788,1.3997,9.0377,0.0001,0.0000,0.0001,1.0000,-0.0995,0.0350,0.2259
78450,Left,2,0.0130,0.1794,-0.3426,0.9221,0.0090,0.0081,0.0029,0.0305,0.0421,-0.0437,-3.3244,-0.9125,9.1406,0.0001,0.0001,0.0000,1.0000,-0.0831,-0.0228,0.2285
78450,Pelvis,2,-0.4926,-0.4217,-0.5764,0.4973,1.3236,9.1812,0.1991,-2.1853,-4.0933,4.5761,14.6003,-1.5224,-3.7561,0.0165,0.1145,0.0025,0.9933,0.3511,-0.0352,-0.1354
78451,Right,2,0.2027,0.0708,-0.7589,0.6148,0.0057,-0.0072,0.0057,0.0051,0.0288,0.1365,-3.9561,1.4081,9.0196,0.0001,-0.0001,0.0001,1.0000,-0.0989,0.0352,0.2255
78451,Left,2,0.0129,0.1793,-0.3425,0.9222,0.0099,0.0001,0.0007,0.0210,0.0189,-0.0624,-3.3092,-0.9348,9.1238,0.0001,0.0000,0.0000,1.0000,-0.0827,-0.0234,0.2281
78451,Pelvis,2,-0.4889,-0.4228,-0.5770,0.4993,0.2433,0.2182,-0.1026,5.0530,10.5581,-12.3315,-4.2887,3.4533,10.6317,0.0030,0.0027,-0.0013,1.0000,-0.1064,0.0857,0.2663
78452,Right,2,0.2026,0.0706,-0.7589,0.6148,0.0120,-0.0088,0.0112,0.0127,0.0024,0.1275,-3.9267,1.4214,9.0204,0.0002,-0.0001,0.0001,1.0000,-0.0982,0.0355,0.2255
78452,Left,2,0.0129,0.1791,-0.3428,0.9221,0.0113,-0.0036,-0.0015,0.0138,0.0105,-0.0624,-3.3066,-0.9460,9.1236,0.0001,-0.0000,-0.0000,1.0000,-0.0827,-0.0237,0.2281
78452,Pelvis,2,-0.5292,-0.4421,-0.5541,0.4664,-1.2370,-4.6477,0.0031,-2.4927,-3.9245,3.9800,14.1740,-1.8732,-2.7737,-0.0155,-0.0581,0.0000,0.9982,0.3576,-0.0477,-0.0479
78453,Right,2,0.2026,0.0705,-0.7589,0.6149,0.0102,-0.0022,0.0099,0.0423,-0.0142,0.1030,-3.9042,1.4530,8.9983,0.0001,-0.0000,0.0001,1.0000,-0.0976,0.0363,0.2250
78453,Left,2,0.0128,0.1790,-0.3424,0.9223,0.0099,-0.0045,-0.0025,0.0274,0.0052,-0.0675,-3.2890,-0.9411,9.1250,0.0001,-0.0001,-0.0000,1.0000,-0.0822,-0.0236,0.2281
78453,Pelvis,2,-0.5009,-0.4280,-0.5708,0.4900,0.8243,3.3267,0.0191,-0.3359,-2.9809,2.0528,12.0919,0.1178,-1.9098,0.0103,0.0416,0.0002,0.9991,0.3000,0.0036,-0.0602
78454,Right,2,0.2026,0.0704,-0.7588,0.6149,0.0068,0.0034,0.0100,0.0255,-0.0151,0.0874,-3.8931,1.4368,8.9885,0.0001,0.0000,0.0001,1.0000,-0.0973,0.0359,0.2247
78454,Left,2,0.0128,0.1788,-0.3424,0.9223,0.0152,-0.0008,-0.0002,-0.0010,-0.0229,-0.0904,-3.2807,-0.9779,9.0997,0.0002,-0.0000,-0.0000,1.0000,-0.0820,-0.0245,0.2275
78454,Pelvis,2,-0.5005,-0.4275,-0.5717,0.4898,-0.0478,0.0666,-0.0386,2.8903,4.2637,-3.4196,5.7226,2.1867,5.4658,-0.0006,0.0008,-0.0005,1.0000,0.1432,0.0547,0.1365
78455,Right,2,0.2026,0.0704,-0.7588,0.6150,0.0030,0.0025,0.0061,0.0087,0.0158,0.1228,-3.9316,1.4193,9.0134,0.0000,0.0000,0.0001,1.0000,-0.0983,0.0355,0.2253
78455,Left,2,0.0130,0.1788,-0.3431,0.9220,0.0227,0.0035,0.0034,0.0242,-0.0173,-0.1048,-3.2606,-0.9559,9.0939,0.0003,0.0000,0.0000,1.0000,-0.0815,-0.0240,0.2273
78455,Pelvis,2,-0.5145,-0.4305,-0.5671,0.4778,-0.7331,-1.3510,-0.0118,-1.0443,-1.5977,1.7126,11.6491,-0.7973,-0.3904,-0.0092,-0.0169,-0.0001,0.9998,0.2913,-0.0200,-0.0047
78456,Right,2,0.2025,0.0704,-0.7587,0.6151,0.0052,-0.0018,0.0041,0.0257,0.0355,0.1391,-3.9574,1.4336,9.0180,0.0001,-0.0000,0.0001,1.0000,-0.0989,0.0358,0.2254
78456,Left,2,0.0131,0.1787,-0.3431,0.9220,0.0200,0.0078,0.0044,0.0491,0.0108,-0.0612,-3.2750,-0.9199,9.1390,0.0002,0.0001,0.0001,1.0000,-0.0819,-0.0231,0.2285
78456,Pelvis,2,-0.5068,-0.4289,-0.5704,0.4836,0.3470,0.7449,-0.0583,-0.8853,0.5143,-0.7755,8.9422,-0.9786,1.3418,0.0043,0.0093,-0.0007,0.9999,0.2238,-0.0248,0.0314
78457,Right,2,0.2025,0.0703,-0.7587,0.6152,0.0096,0.0021,0.0053,0.0155,0.0117,0.1434,-3.9347,1.4310,9.0329,0.0001,0.0000,0.0001,1.0000,-0.0984,0.0357,0.2258
78457,Left,2,0.0133,0.1787,-0.3436,0.9219,0.0175,0.0097,0.0020,0.0138,-0.0048,-0.0675,-3.2877,-0.9514,9.1243,0.0002,0.0001,0.0000,1.0000,-0.0822,-0.0238,0.2281
78457,Pelvis,2,-0.5082,-0.4295,-0.5701,0.4819,-0.0891,-0.1544,-0.0402,0.1585,-0.0235,0.3007,10.0443,0.1548,1.1809,-0.0011,-0.0019,-0.0005,1.0000,0.2511,0.0038,0.0300
78458,Right,2,0.2025,0.0702,-0.7587,0.6152,0.0079,-0.0037,0.0052,0.0286,-0.0024,0.1322,-3.9182,1.4463,9.0254,0.0001,-0.0000,0.0001,1.0000,-0.0980,0.0361,0.2256
78458,Left,2,0.0135,0.1787,-0.3439,0.9217,0.0195,0.0117,0.0040,0.0442,0.0040,-0.0705,-3.2715,-0.9232,9.1300,0.0002,0.0001,0.0000,1.0000,-0.0818,-0.0231,0.2283
78458,Pelvis,2,-0.5075,-0.4287,-0.5713,0.4820,-0.0514,0.1196,-0.0314,0.1811,-0.1537,0.2242,9.9831,0.2058,1.0440,-0.0006,0.0015,-0.0004,1.0000,0.2496,0.0051,0.0257
78459,Right,2,0.2023,0.0702,-0.7587,0.6152,0.0008,-0.0062,0.0015,0.0144,0.0134,0.1303,-3.9271,1.4286,9.0223,0.0000,-0.0001,0.0000,1.0000,-0.0982,0.0357,0.2255
78459,Left,2,0.0136,0.1787,-0.3437,0.9218,0.0170,0.0098,0.0038,0.0395,0.0180,-0.0634,-3.2864,-0.9139,9.1332,0.0002,0.0001,0.0000,1.0000,-0.0821,-0.0229,0.2283
78459,Pelvis,2,-0.5076,-0.4286,-0.5719,0.4812,-0.0620,-0.0101,-0.0551,0.0495,0.2335,-0.1250,9.5928,0.0199,1.3737,-0.0008,-0.0001,-0.0007,1.0000,0.2398,0.0004,0.0344
78460,Right,2,0.2021,0.0701,-0.7587,0.6153,-0.0052,-0.0105,0.0043,0.0212,0.0267,0.1282,-3.9364,1.4307,9.0155,-0.0001,-0.0001,0.0001,1.0000,-0.0984,0.0358,0.2254
78460,Left,2,0.0136,0.1786,-0.3437,0.9218,0.0173,0.0053,0.0040,0.0265,0.0376,-0.0697,-3.3055,-0.9049,9.1205,0.0002,0.0001,0.0001,1.0000,-0.0826,-0.0227,0.2280
78460,Pelvis,2,-0.5080,-0.4295,-0.5715,0.4805,0.0004,-0.0909,-0.0447,-0.1632,0.1219,-0.1717,9.5654,-0.1601,1.2109,0.0000,-0.0011,-0.0006,1.0000,0.2391,-0.0041,0.0305
78461,Right,2,0.2018,0.0700,-0.7587,0.6154,-0.0049,-0.0196,0.0075,0.0064,0.0349,0.1704,-3.9533,1.4189,9.0566,-0.0001,-0.0002,0.0001,1.0000,-0.0989,0.0355,0.2264
78461,Left,2,0.0137,0.1784,-0.3440,0.9218,0.0178,-0.0033,-0.0003,0.0264,0.0334,-0.0583,-3.3052,-0.9081,9.1324,0.0002,-0.0000,-0.0000,1.0000,-0.0826,-0.0228,0.2283
78461,Pelvis,2,-0.5085,-0.4300,-0.5714,0.4796,-0.0328,-0.0783,-0.0378,-0.2649,0.2050,-0.3609,9.3732,-0.2656,1.2333,-0.0004,-0.0010,-0.0005,1.0000,0.2343,-0.0067,0.0311
78462,Right,2,0.2014,0.0698,-0.7587,0.6155,-0.0065,-0.0273,0.0115,0.0105,0.0589,0.1766,-3.9712,1.4167,9.0560,-0.0001,-0.0003,0.0001,1.0000,-0.0994,0.0354,0.2264
78462,Left,2,0.0137,0.1783,-0.3445,0.9216,0.0160,-0.0093,0.0004,0.0316,0.0351,-0.0262,-3.3107,-0.9068,9.1649,0.0002,-0.0001,0.0000,1.0000,-0.0828,-0.0227,0.2291
78462,Pelvis,2,-0.5090,-0.4319,-0.5702,0.4788,0.0704,-0.1678,-0.0484,-0.4731,-0.2121,-0.0776,9.7089,-0.3880,0.7923,0.0009,-0.0021,-0.0006,1.0000,0.2427,-0.0099,0.0203
78463,Right,2,0.2009,0.0696,-0.7587,0.6158,-0.0110,-0.0395,0.0147,-0.0104,0.0499,0.1920,-3.9567,1.3985,9.0822,-0.0001,-0.0005,0.0002,1.0000,-0.0990,0.0350,0.2270
78463,Left,2,0.0135,0.1780,-0.3437,0.9220,0.0140,-0.0117,-0.0002,0.0344,0.0027,-0.0498,-3.2754,-0.9254,9.1504,0.0002,-0.0001,-0.0000,1.0000,-0.0819,-0.0232,0.2287
78463,Pelvis,2,-0.5083,-0.4336,-0.5690,0.4794,0.1588,-0.0643,-0.0233,-0.3417,0.2200,0.2806,10.0189,-0.3175,1.2493,0.0020,-0.0008,-0.0003,1.0000,0.2504,-0.0081,0.0314
78464,Right,2,0.2002,0.0694,-0.7588,0.6159,-0.0230,-0.0497,0.0136,0.0116,0.0056,0.1194,-3.8800,1.4157,9.0326,-0.0003,-0.0006,0.0002,1.0000,-0.0971,0.0354,0.2257
78464,Left,2,0.0135,0.1776,-0.3439,0.9220,0.0186,-0.0163,-0.0029,0.0239,0.0207,-0.0655,-3.2835,-0.9157,9.1318,0.0002,-0.0002,-0.0000,1.0000,-0.0821,-0.0229,0.2283
78464,Pelvis,2,-0.5084,-0.4352,-0.5674,0.4798,0.1456,-0.1089,0.0172,-0.0879,0.1164,0.3323,10.0779,-0.0441,1.1732,0.0018,-0.0014,0.0002,1.0000,0.2519,-0.0011,0.0297
78465,Right,2,0.1994,0.0691,-0.7588,0.6162,-0.0203,-0.0605,0.0163,-0.0008,0.0382,0.1313,-3.8982,1.3933,9.0415,-0.0003,-0.0008,0.0002,1.0000,-0.0976,0.0349,0.2260
78465,Left,2,0.0135,0.1772,-0.3441,0.9220,0.0204,-0.0244,-0.0034,0.0237,0.0165,-0.0540,-3.2782,-0.9189,9.1455,0.0003,-0.0003,-0.0000,1.0000,-0.0820,-0.0230,0.2286
78465,Pelvis,2,-0.5085,-0.4364,-0.5661,0.4802,0.1028,-0.0919,0.0234,0.1394,-0.1961,-0.2546,9.5236,0.2249,0.8164,0.0013,-0.0011,0.0003,1.0000,0.2381,0.0057,0.0207
78466,Right,2,0.1987,0.0688,-0.7587,0.6165,-0.0123,-0.0548,0.0202,0.0301,-0.0074,0.1213,-3.8432,1.4293,9.0483,-0.0002,-0.0007,0.0003,1.0000,-0.0962,0.0357,0.2261
78466,Left,2,0.0134,0.1768,-0.3437,0.9222,0.0236,-0.0244,-0.0043,0.0336,0.0372,-0.0748,-3.2694,-0.8919,9.1293,0.0003,-0.0003,-0.0001,1.0000,-0.0818,-0.0224,0.2282
78466,Pelvis,2,-0.5091,-0.4373,-0.5652,0.4797,0.0253,-0.1172,-0.0051,0.0387,-0.2245,-0.1223,9.6623,0.1300,0.7607,0.0003,-0.0015,-0.0001,1.0000,0.2415,0.0032,0.0194
78467,Right,2,0.1981,0.0685,-0.7587,0.6167,-0.0063,-0.0438,0.0158,0.0251,-0.0234,0.0945,-3.8046,1.4226,9.0364,-0.0001,-0.0005,0.0002,1.0000,-0.0952,0.0356,0.2259
78467,Left,2,0.0134,0.1764,-0.3438,0.9222,0.0217,-0.0202,-0.0032,0.0424,-0.0307,-0.0806,-3.2113,-0.9349,9.1395,0.0003,-0.0003,-0.0000,1.0000,-0.0803,-0.0234,0.2285
78467,Pelvis,2,-0.5085,-0.4377,-0.5651,0.4802,0.0586,0.0270,-0.0127,0.0710,-0.3524,0.4111,10.2056,0.1881,0.6819,0.0007,0.0003,-0.0002,1.0000,0.2551,0.0047,0.0170
78468,Right,2,0.1976,0.0682,-0.7587,0.6169,-0.0079,-0.0371,0.0124,0.0265,-0.0225,0.0945,-3.7949,1.4223,9.0405,-0.0001,-0.0005,0.0002,1.0000,-0.0950,0.0356,0.2260
78468,Left,2,0.0136,0.1762,-0.3446,0.9220,0.0227,-0.0104,-0.0006,0.0302,-0.0348,-0.1033,-3.2046,-0.9424,9.1168,0.0003,-0.0001,-0.0000,1.0000,-0.0801,-0.0236,0.2279
78468,Pelvis,2,-0.5082,-0.4382,-0.5649,0.4803,0.0438,-0.0112,-0.0116,-0.0437,-0.1763,0.3129,10.0931,0.0510,0.8291,0.0005,-0.0001,-0.0001,1.0000,0.2523,0.0012,0.0208
78469,Right,2,0.1973,0.0680,-0.7588,0.6171,-0.0060,-0.0297,0.0098,0.0221,-0.0262,0.0526,-3.7657,1.4117,9.0084,-0.0001,-0.0004,0.0001,1.0000,-0.0942,0.0353,0.2252
78469,Left,2,0.0136,0.1760,-0.3452,0.9218,0.0202,-0.0074,-0.0018,0.0373,0.0069,-0.0777,-3.2311,-0.9080,9.1382,0.0003,-0.0001,-0.0000,1.0000,-0.0808,-0.0228,0.2284
78469,Pelvis,2,-0.5074,-0.4384,-0.5648,0.4811,0.0689,0.0538,-0.0019,-0.0541,-0.3048,0.1452,9.9386,0.0621,0.6894,0.0009,0.0007,-0.0000,1.0000,0.2485,0.0015,0.0171
78470,Right,2,0.1971,0.0679,-0.7588,0.6170,0.0018,-0.0092,0.0049,0.0490,-0.0657,0.0219,-3.7165,1.4417,8.9909,0.0000,-0.0001,0.0001,1.0000,-0.0929,0.0360,0.2248
78470,Left,2,0.0137,0.1758,-0.3455,0.9217,0.0165,-0.0070,-0.0019,0.0385,0.0181,-0.0891,-3.2300,-0.8966,9.1276,0.0002,-0.0001,-0.0000,1.0000,-0.0808,-0.0225,0.2282
78470,Pelvis,2,-0.5067,-0.4386,-0.5646,0.4818,0.0719,0.0401,0.0064,-0.0578,-0.2507,-0.1660,9.6229,0.0489,0.7219,0.0009,0.0005,0.0001,1.0000,0.2406,0.0012,0.0179
78471,Right,2,0.1971,0.0680,-0.7588,0.6171,0.0025,0.0078,-0.0016,0.0516,-0.0205,0.0577,-3.7705,1.4383,9.0079,0.0000,0.0001,-0.0000,1.0000,-0.0942,0.0360,0.2252
78471,Left,2,0.0136,0.1756,-0.3455,0.9218,0.0140,-0.0093,-0.0007,0.0493,0.0141,-0.0849,-3.2173,-0.8918,9.1371,0.0002,-0.0001,-0.0000,1.0000,-0.0805,-0.0223,0.2284
78471,Pelvis,2,-0.5060,-0.4391,-0.5642,0.4825,0.0834,0.0222,0.0011,-0.0610,-0.2622,-0.2339,9.5561,0.0473,0.7101,0.0010,0.0003,0.0000,1.0000,0.2389,0.0012,0.0177
78472,Right,2,0.1972,0.0680,-0.7588,0.6170,0.0046,0.0091,-0.0010,0.0079,0.0389,0.1389,-3.8495,1.3937,9.0705,0.0001,0.0001,-0.0000,1.0000,-0.0962,0.0348,0.2268
78472,Left,2,0.0135,0.1753,-0.3453,0.9219,0.0131,-0.0093,-0.0024,0.0368,0.0089,-0.0662,-3.2248,-0.9050,9.1529,0.0002,-0.0001,-0.0000,1.0000,-0.0806,-0.0227,0.2288
78472,Pelvis,2,-0.5054,-0.4399,-0.5636,0.4831,0.0852,-0.0053,-0.0034,-0.0102,-0.1749,-0.1409,9.6386,0.0864,0.8148,0.0011,-0.0001,-0.0000,1.0000,0.2410,0.0021,0.0204
78473,Right,2,0.1971,0.0680,-0.7588,0.6170,0.0036,0.0034,0.0023,0.0037,0.0275,0.1411,-3.8395,1.3923,9.0773,0.0000,0.0000,0.0000,1.0000,-0.0960,0.0348,0.2269
78473,Left,2,0.0135,0.1752,-0.3455,0.9218,0.0119,-0.0048,0.0014,0.0368,-0.0046,-0.0941,-3.2033,-0.9121,9.1302,0.0001,-0.0001,0.0000,1.0000,-0.0801,-0.0228,0.2282
78473,Pelvis,2,-0.5049,-0.4409,-0.5628,0.4836,0.0959,-0.0259,-0.0067,0.0173,-0.1424,0.1006,9.8754,0.1133,0.8708,0.0012,-0.0003,-0.0001,1.0000,0.2469,0.0028,0.0219
78474,Right,2,0.1971,0.0680,-0.7588,0.6171,0.0012,0.0034,0.0044,0.0461,0.0005,0.1343,-3.8187,1.4378,9.0716,0.0000,0.0000,0.0001,1.0000,-0.0955,0.0359,0.2268
78474,Left,2,0.0136,0.1751,-0.3453,0.9219,0.0106,0.0040,-0.0003,0.0314,-0.0160,-0.0619,-3.2079,-0.9254,9.1615,0.0001,0.0001,-0.0000,1.0000,-0.0802,-0.0232,0.2290
78474,Pelvis,2,-0.5042,-0.4418,-0.5621,0.4844,0.1171,-0.0045,-0.0020,-0.0409,-0.0030,0.1254,9.8878,0.0394,0.9981,0.0015,-0.0001,-0.0000,1.0000,0.2472,0.0009,0.0250
78475,Right,2,0.1970,0.0680,-0.7589,0.6170,-0.0024,0.0052,0.0010,0.0308,-0.0219,0.0891,-3.7784,1.4210,9.0416,-0.0000,0.0001,0.0000,1.0000,-0.0944,0.0355,0.2260
78475,Left,2,0.0136,0.1751,-0.3455,0.9219,0.0112,0.0087,0.0027,0.0346,-0.0067,-0.0826,-3.2041,-0.9142,9.1419,0.0001,0.0001,0.0000,1.0000,-0.0801,-0.0229,0.2286
78475,Pelvis,2,-0.5034,-0.4430,-0.5612,0.4851,0.1308,-0.0175,-0.0115,-0.1976,-0.0134,0.0874,9.8548,-0.1103,0.9595,0.0016,-0.0002,-0.0001,1.0000,0.2464,-0.0028,0.0240
78476,Right,2,0.1970,0.0682,-0.7588,0.6170,-0.0053,0.0080,-0.0010,0.0306,0.0005,0.1187,-3.8104,1.4179,9.0611,-0.0001,0.0001,-0.0000,1.0000,-0.0952,0.0355,0.2265
78476,Left,2,0.0136,0.1751,-0.3455,0.9219,0.0116,0.0129,0.0012,0.0304,0.0003,-0.0640,-3.2184,-0.9140,9.1567,0.0001,0.0002,0.0000,1.0000,-0.0804,-0.0229,0.2289
78476,Pelvis,2,-0.5023,-0.4444,-0.5604,0.4860,0.1717,-0.0061,-0.0241,-0.3218,-0.1084,0.0641,9.8442,-0.2125,0.8443,0.0021,-0.0001,-0.0003,1.0000,0.2461,-0.0054,0.0211
78477,Right,2,0.1971,0.0683,-0.7588,0.6170,0.0023,0.0160,-0.0027,0.0264,-0.0033,0.0768,-3.7919,1.4073,9.0246,0.0000,0.0002,-0.0000,1.0000,-0.0948,0.0352,0.2256
78477,Left,2,0.0136,0.1752,-0.3454,0.9219,0.0091,0.0120,0.0022,0.0334,0.0094,-0.0848,-3.2160,-0.9029,9.1365,0.0001,0.0002,0.0000,1.0000,-0.0804,-0.0226,0.2284
78477,Pelvis,2,-0.5005,-0.4460,-0.5595,0.4874,0.2216,0.0319,-0.0300,-0.2817,-0.1250,0.0525,9.8332,-0.1602,0.8357,0.0028,0.0004,-0.0004,1.0000,0.2458,-0.0042,0.0208
78478,Right,2,0.1972,0.0684,-0.7588,0.6170,0.0063,0.0211,-0.0051,-0.0235,0.0054,0.1168,-3.8104,1.3623,9.0676,0.0001,0.0003,-0.0001,1.0000,-0.0952,0.0340,0.2267
78478,Left,2,0.0136,0.1752,-0.3454,0.9219,0.0072,0.0104,0.0032,0.0222,-0.0045,-0.1053,-3.2089,-0.9195,9.1154,0.0001,0.0001,0.0000,1.0000,-0.0802,-0.0230,0.2279
78478,Pelvis,2,-0.4985,-0.4477,-0.5582,0.4893,0.2487,0.0348,-0.0115,-0.1681,-0.0982,0.0055,9.7805,-0.0422,0.8804,0.0031,0.0004,-0.0001,1.0000,0.2445,-0.0012,0.0219
78479,Right,2,0.1974,0.0685,-0.7588,0.6169,0.0097,0.0232,-0.0038,0.0154,0.0226,0.1327,-3.8425,1.3981,9.0660,0.0001,0.0003,-0.0000,1.0000,-0.0960,0.0349,0.2267
78479,Left,2,0.0135,0.1754,-0.3456,0.9217,0.0038,0.0166,0.0052,0.0192,0.0104,-0.0982,-3.2244,-0.9130,9.1181,0.0000,0.0002,0.0001,1.0000,-0.0806,-0.0228,0.2280
78479,Pelvis,2,-0.4968,-0.4493,-0.5569,0.4912,0.2642,0.0348,0.0138,-0.1132,-0.0545,0.0007,9.7693,0.0130,0.9379,0.0033,0.0004,0.0002,1.0000,0.2442,0.0003,0.0233
78480,Right,2,0.1976,0.0686,-0.7588,0.6168,0.0110,0.0225,-0.0025,0.0214,0.0252,0.1092,-3.8409,1.4005,9.0406,0.0001,0.0003,-0.0000,1.0000,-0.0960,0.0350,0.2260
78480,Left,2,0.0135,0.1755,-0.3455,0.9218,0.0039,0.0181,0.0050,0.0164,0.0078,-0.0775,-3.2338,-0.9203,9.1362,0.0000,0.0002,0.0001,1.0000,-0.0808,-0.0230,0.2284
78480,Pelvis,2,-0.4949,-0.4510,-0.5552,0.4933,0.2762,0.0250,0.0235,-0.1740,0.0267,0.0357,9.7966,-0.0541,1.0226,0.0035,0.0003,0.0003,1.0000,0.2449,-0.0014,0.0255
78481,Right,2,0.1979,0.0687,-0.7589,0.6167,0.0069,0.0241,-0.0017,0.0127,0.0122,0.1349,-3.8419,1.3995,9.0684,0.0001,0.0003,-0.0000,1.0000,-0.0960,0.0350,0.2267
78481,Left,2,0.0134,0.1757,-0.3453,0.9218,0.0036,0.0192,0.0042,0.0297,0.0189,-0.0547,-3.2414,-0.9065,9.1592,0.0000,0.0002,0.0001,1.0000,-0.0810,-0.0227,0.2290
78481,Pelvis,2,-0.4926,-0.4528,-0.5535,0.4960,0.3078,0.0585,0.0235,-0.1610,0.0588,0.0715,9.8275,-0.0431,1.0702,0.0038,0.0007,0.0003,1.0000,0.2457,-0.0011,0.0266
78482,Right,2,0.1980,0.0689,-0.7589,0.6166,0.0043,0.0230,-0.0016,0.0194,0.0195,0.1403,-3.8558,1.4050,9.0676,0.0001,0.0003,-0.0000,1.0000,-0.0963,0.0351,0.2267
78482,Left,2,0.0134,0.1758,-0.3450,0.9219,0.0034,0.0172,0.0057,0.0169,-0.0032,-0.0638,-3.2354,-0.9313,9.1491,0.0000,0.0002,0.0001,1.0000,-0.0808,-0.0233,0.2287
78482,Pelvis,2,-0.4904,-0.4546,-0.5517,0.4984,0.3242,0.0408,0.0245,0.0044,0.1183,0.0120,9.7571,0.1182,1.1505,0.0041,0.0005,0.0003,1.0000,0.2439,0.0029,0.0286
78483,Right,2,0.1981,0.0690,-0.7588,0.6166,0.0004,0.0216,-0.0008,0.0320,0.0452,0.1359,-3.8836,1.4102,9.0503,0.0000,0.0003,-0.0000,1.0000,-0.0970,0.0353,0.2263
78483,Left,2,0.0134,0.1759,-0.3451,0.9218,0.0044,0.0190,0.0044,0.0156,0.0096,-0.0660,-3.2461,-0.9239,9.1437,0.0001,0.0002,0.0001,1.0000,-0.0811,-0.0231,0.2286
78483,Pelvis,2,-0.4882,-0.4564,-0.5499,0.5009,0.3153,0.0478,0.0304,0.1573,0.1410,-0.0151,9.7233,0.2704,1.1926,0.0039,0.0006,0.0004,1.0000,0.2431,0.0067,0.0297
78484,Right,2,0.1982,0.0692,-0.7587,0.6167,-0.0015,0.0130,-0.0014,0.0089,0.0256,0.1302,-3.8627,1.3904,9.0558,-0.0000,0.0002,-0.0000,1.0000,-0.0965,0.0348,0.2264
78484,Left,2,0.0133,0.1761,-0.3448,0.9219,0.0061,0.0173,0.0065,0.0113,0.0071,-0.0867,-3.2429,-0.9273,9.1225,0.0001,0.0002,0.0001,1.0000,-0.0810,-0.0232,0.2281
78484,Pelvis,2,-0.4863,-0.4582,-0.5482,0.5031,0.2842,0.0276,0.0255,0.2172,0.2230,-0.1013,9.6268,0.3244,1.2760,0.0036,0.0003,0.0003,1.0000,0.2407,0.0081,0.0318
78485,Right,2,0.1982,0.0693,-0.7587,0.6166,-0.0005,0.0095,0.0005,-0.0100,0.0337,0.1595,-3.8798,1.3726,9.0834,-0.0000,0.0001,0.0000,1.0000,-0.0970,0.0343,0.2271
78485,Left,2,0.0133,0.1761,-0.3449,0.9219,0.0074,0.0144,0.0040,0.0236,0.0031,-0.0410,-3.2487,-0.9274,9.1691,0.0001,0.0002,0.0001,1.0000,-0.0812,-0.0232,0.2292
78485,Pelvis,2,-0.4848,-0.4596,-0.5468,0.5047,0.2296,0.0133,0.0133,0.3192,0.2399,0.0676,9.7903,0.4307,1.3204,0.0029,0.0002,0.0002,1.0000,0.2448,0.0107,0.0330
78486,Right,2,0.1981,0.0693,-0.7587,0.6167,0.0020,0.0039,0.0032,-0.0078,0.0407,0.1518,-3.8839,1.3711,9.0735,0.0000,0.0000,0.0000,1.0000,-0.0971,0.0343,0.2268
78486,Left,2,0.0133,0.1762,-0.3447,0.9219,0.0092,0.0137,0.0035,0.0123,0.0131,-0.0453,-3.2628,-0.9267,9.1596,0.0001,0.0002,0.0000,1.0000,-0.0815,-0.0232,0.2290
78486,Pelvis,2,-0.4836,-0.4604,-0.5461,0.5059,0.1622,0.0394,0.0077,0.4271,0.2694,0.0682,9.7849,0.5407,1.3608,0.0020,0.0005,0.0001,1.0000,0.2446,0.0135,0.0339
78487,Right,2,0.1980,0.0693,-0.7587,0.6168,0.0023,-0.0021,0.0042,-0.0037,0.0248,0.1512,-3.8690,1.3781,9.0781,0.0000,-0.0000,0.0001,1.0000,-0.0967,0.0344,0.2269
78487,Left,2,0.0133,0.1763,-0.3447,0.9219,0.0112,0.0112,0.0037,0.0160,-0.0015,-0.0823,-3.2399,-0.9328,9.1277,0.0001,0.0001,0.0000,1.0000,-0.0810,-0.0234,0.2282
78487,Pelvis,2,-0.4828,-0.4610,-0.5456,0.5066,0.0697,0.0166,-0.0103,0.4428,0.2967,-0.1479,9.5658,0.5554,1.3704,0.0009,0.0002,-0.0001,1.0000,0.2392,0.0138,0.0342
78488,Right,2,0.1979,0.0691,-0.7587,0.6168,0.0051,-0.0122,0.0074,-0.0114,0.0255,0.1251,-3.8553,1.3670,9.0570,0.0001,-0.0002,0.0001,1.0000,-0.0964,0.0342,0.2264
78488,Left,2,0.0134,0.1762,-0.3447,0.9219,0.0149,0.0073,0.0032,-0.0031,0.0062,-0.0472,-3.2700,-0.9419,9.1534,0.0002,0.0001,0.0000,1.0000,-0.0817,-0.0236,0.2288
78488,Pelvis,2,-0.4830,-0.4611,-0.5458,0.5062,-0.0340,-0.0165,-0.0244,0.3860,0.2145,-0.0855,9.6377,0.5091,1.2913,-0.0004,-0.0002,-0.0003,1.0000,0.2409,0.0127,0.0323
78489,Right,2,0.1976,0.0689,-0.7586,0.6170,0.0045,-0.0209,0.0097,0.0018,0.0497,0.1572,-3.8867,1.3796,9.0770,0.0001,-0.0003,0.0001,1.0000,-0.0972,0.0345,0.2269
78489,Left,2,0.0135,0.1762,-0.3452,0.9217,0.0178,0.0062,0.0034,0.0152,0.0075,-0.0730,-3.2496,-0.9267,9.1347,0.0002,0.0001,0.0000,1.0000,-0.0812,-0.0232,0.2284
78489,Pelvis,2,-0.4833,-0.4604,-0.5467,0.5055,-0.0878,0.0256,-0.0267,0.2679,0.1206,0.0480,9.7826,0.4037,1.2068,-0.0011,0.0003,-0.0003,1.0000,0.2446,0.0100,0.0301
78490,Right,2,0.1973,0.0686,-0.7586,0.6171,0.0029,-0.0286,0.0137,-0.0078,0.0320,0.1540,-3.8608,1.3748,9.0852,0.0000,-0.0004,0.0002,1.0000,-0.0966,0.0343,0.2271
78490,Left,2,0.0136,0.1762,-0.3455,0.9216,0.0206,0.0069,0.0044,0.0133,0.0055,-0.0522,-3.2566,-0.9305,9.1540,0.0003,0.0001,0.0001,1.0000,-0.0814,-0.0233,0.2289
78490,Pelvis,2,-0.4837,-0.4593,-0.5481,0.5047,-0.1558,0.0512,-0.0284,0.1613,0.1979,0.1632,9.8897,0.2973,1.2998,-0.0019,0.0006,-0.0004,1.0000,0.2473,0.0074,0.0323
78491,Right,2,0.1969,0.0683,-0.7586,0.6173,-0.0005,-0.0391,0.0166,0.0150,0.0244,0.1613,-3.8510,1.3999,9.0935,-0.0000,-0.0005,0.0002,1.0000,-0.0964,0.0350,0.2273
78491,Left,2,0.0137,0.1761,-0.3454,0.9217,0.0216,0.0074,0.0048,0.0230,-0.0056,-0.0779,-3.2341,-0.9278,9.1350,0.0003,0.0001,0.0001,1.0000,-0.0808,-0.0233,0.2284
78491,Pelvis,2,-0.4842,-0.4575,-0.5502,0.5036,-0.1942,0.0960,-0.0373,0.0740,0.2042,0.1791,9.9041,0.2136,1.3210,-0.0024,0.0012,-0.0005,1.0000,0.2476,0.0053,0.0327
78492,Right,2,0.1964,0.0680,-0.7585,0.6176,-0.0016,-0.0372,0.0163,0.0397,0.0014,0.1313,-3.8123,1.4248,9.0731,-0.0000,-0.0005,0.0002,1.0000,-0.0954,0.0356,0.2268
78492,Left,2,0.0139,0.1760,-0.3452,0.9218,0.0256,0.0068,0.0069,0.0185,0.0085,-0.0708,-3.2482,-0.9171,9.1385,0.0003,0.0001,0.0001,1.0000,-0.0812,-0.0230,0.2285
78492,Pelvis,2,-0.4846,-0.4555,-0.5524,0.5025,-0.2214,0.1076,-0.0455,-0.0565,0.0633,0.1011,9.8422,0.0966,1.1884,-0.0028,0.0013,-0.0006,1.0000,0.2461,0.0024,0.0294
78493,Right,2,0.1960,0.0678,-0.7586,0.6177,-0.0044,-0.0364,0.0121,0.0282,0.0066,0.1212,-3.8013,1.4107,9.0688,-0.0001,-0.0005,0.0002,1.0000,-0.0951,0.0353,0.2267
78493,Left,2,0.0140,0.1760,-0.3453,0.9217,0.0239,0.0051,0.0042,0.0379,0.0169,-0.0667,-3.2411,-0.8959,9.1476,0.0003,0.0001,0.0001,1.0000,-0.0810,-0.0225,0.2287
78493,Pelvis,2,-0.4840,-0.4533,-0.5552,0.5020,-0.2028,0.2088,-0.0721,0.0092,0.0209,-0.0153,9.7250,0.1712,1.1768,-0.0025,0.0026,-0.0009,1.0000,0.2432,0.0041,0.0288
78494,Right,2,0.1956,0.0675,-0.7586,0.6179,-0.0023,-0.0314,0.0122,-0.0083,-0.0149,0.1130,-3.7636,1.3785,9.0804,-0.0000,-0.0004,0.0002,1.0000,-0.0942,0.0345,0.2270
78494,Left,2,0.0141,0.1759,-0.3452,0.9218,0.0247,0.0048,0.0030,0.0142,0.0115,-0.0407,-3.2623,-0.9148,9.1658,0.0003,0.0001,0.0000,1.0000,-0.0815,-0.0229,0.2291
78494,Pelvis,2,-0.4837,-0.4509,-0.5582,0.5012,-0.2456,0.1994,-0.0811,-0.0702,0.0448,0.1207,9.8528,0.1043,1.2609,-0.0031,0.0025,-0.0010,1.0000,0.2464,0.0025,0.0309
78495,Right,2,0.1953,0.0673,-0.7585,0.6181,0.0031,-0.0280,0.0131,0.0181,0.0127,0.1111,-3.7839,1.3976,9.0670,0.0000,-0.0003,0.0002,1.0000,-0.0947,0.0349,0.2266
78495,Left,2,0.0142,0.1757,-0.3453,0.9218,0.0236,0.0013,0.0029,0.0069,0.0030,-0.0406,-3.2609,-0.9226,9.1657,0.0003,0.0000,0.0000,1.0000,-0.0815,-0.0231,0.2291
78495,Pelvis,2,-0.4828,-0.4479,-0.5615,0.5009,-0.2357,0.2757,-0.0611,-0.3625,-0.0303,0.3255,10.0667,-0.1661,1.2456,-0.0029,0.0034,-0.0008,1.0000,0.2518,-0.0043,0.0303
78496,Right,2,0.1950,0.0670,-0.7585,0.6182,0.0066,-0.0273,0.0139,0.0362,0.0049,0.1053,-3.7697,1.4170,9.0636,0.0001,-0.0003,0.0002,1.0000,-0.0943,0.0354,0.2266
78496,Left,2,0.0144,0.1756,-0.3453,0.9218,0.0261,-0.0025,0.0045,0.0222,0.0130,-0.0686,-3.2452,-0.8995,9.1437,0.0003,-0.0000,0.0001,1.0000,-0.0811,-0.0226,0.2286
78496,Pelvis,2,-0.4808,-0.4446,-0.5654,0.5015,-0.1650,0.3984,-0.0705,-0.1365,-0.0904,-0.0077,9.7267,0.0686,1.2451,-0.0021,0.0050,-0.0009,1.0000,0.2433,0.0016,0.0299
78497,Right,2,0.1947,0.0666,-0.7585,0.6183,0.0085,-0.0287,0.0130,0.0172,0.0130,0.1346,-3.7772,1.4026,9.0947,0.0001,-0.0004,0.0002,1.0000,-0.0945,0.0350,0.2273
78497,Left,2,0.0145,0.1753,-0.3453,0.9219,0.0252,-0.0064,0.0035,0.0126,0.0135,-0.0707,-3.2485,-0.9008,9.1402,0.0003,-0.0001,0.0000,1.0000,-0.0812,-0.0226,0.2285
78497,Pelvis,2,-0.4777,-0.4420,-0.5695,0.5021,-0.0908,0.4300,-0.1374,1.3503,0.1710,-0.2435,9.3872,1.5367,1.7153,-0.0011,0.0054,-0.0017,1.0000,0.2350,0.0381,0.0416
78498,Right,2,0.1945,0.0662,-0.7586,0.6183,0.0148,-0.0263,0.0132,-0.0214,0.0144,0.1195,-3.7588,1.3659,9.0914,0.0002,-0.0003,0.0002,1.0000,-0.0940,0.0341,0.2273
78498,Left,2,0.0146,0.1752,-0.3454,0.9218,0.0255,-0.0013,0.0016,-0.0007,0.0014,-0.0818,-3.2439,-0.9148,9.1285,0.0003,-0.0000,0.0000,1.0000,-0.0811,-0.0229,0.2282
78498,Pelvis,2,-0.4807,-0.4386,-0.5730,0.4982,-0.5288,-0.0025,-0.0749,0.7319,0.2373,-0.0023,9.6269,0.9324,1.8131,-0.0066,-0.0000,-0.0009,1.0000,0.2407,0.0234,0.0452
78499,Right,2,0.1943,0.0659,-0.7586,0.6183,0.0160,-0.0235,0.0098,0.0574,-0.0011,0.0995,-3.7426,1.4455,9.0641,0.0002,-0.0003,0.0001,1.0000,-0.0936,0.0361,0.2266
78499,Left,2,0.0147,0.1749,-0.3455,0.9219,0.0276,-0.0070,0.0042,-0.0121,0.0041,-0.0746,-3.2532,-0.9172,9.1327,0.0003,-0.0001,0.0001,1.0000,-0.0813,-0.0230,0.2283
78499,Pelvis,2,-0.4796,-0.4336,-0.5788,0.4969,-0.4221,0.4322,-0.1313,-0.7273,-0.1733,0.0382,9.7819,-0.4587,1.3055,-0.0053,0.0054,-0.0016,1.0000,0.2447,-0.0117,0.0314
78500,Right,2,0.1942,0.0656,-0.7587,0.6184,0.0158,-0.0226,0.0088,-0.0179,0.0162,0.1195,-3.7471,1.3749,9.0949,0.0002,-0.0003,0.0001,1.0000,-0.0937,0.0343,0.2274
78500,Left,2,0.0149,0.1747,-0.3455,0.9219,0.0296,-0.0071,0.0038,0.0251,0.0168,-0.0664,-3.2345,-0.8802,9.1517,0.0004,-0.0001,0.0000,1.0000,-0.0809,-0.0221,0.2288
78500,Pelvis,2,-0.4791,-0.4294,-0.5840,0.4950,-0.4279,0.3247,-0.1540,-0.7227,0.1958,0.1187,9.7897,-0.4817,1.7673,-0.0053,0.0041,-0.0019,1.0000,0.2449,-0.0123,0.0433
78501,Right,2,0.1940,0.0652,-0.7587,0.6185,0.0194,-0.0208,0.0116,-0.0119,0.0173,0.1325,-3.7476,1.3862,9.1071,0.0002,-0.0003,0.0001,1.0000,-0.0938,0.0346,0.2277
78501,Left,2,0.0150,0.1743,-0.3452,0.9221,0.0282,-0.0119,0.0035,0.0205,0.0310,-0.0594,-3.2448,-0.8683,9.1567,0.0004,-0.0001,0.0000,1.0000,-0.0812,-0.0218,0.2289
78501,Pelvis,2,-0.4776,-0.4252,-0.5892,0.4940,-0.3010,0.4055,-0.1218,-0.4804,-0.2296,0.1878,9.9031,-0.1586,1.4822,-0.0038,0.0051,-0.0015,1.0000,0.2478,-0.0042,0.0358
78502,Right,2,0.1939,0.0649,-0.7587,0.6185,0.0148,-0.0128,0.0089,0.0426,-0.0125,0.0992,-3.7113,1.4444,9.0767,0.0002,-0.0002,0.0001,1.0000,-0.0928,0.0361,0.2269
78502,Left,2,0.0151,0.1740,-0.3452,0.9221,0.0280,-0.0139,0.0050,0.0166,0.0036,-0.0547,-3.2269,-0.8874,9.1662,0.0003,-0.0002,0.0001,1.0000,-0.0807,-0.0223,0.2291
78502,Pelvis,2,-0.4767,-0.4216,-0.5931,0.4932,-0.2233,0.3109,-0.0642,0.1007,-0.0171,-0.0404,9.5945,0.3920,1.8170,-0.0028,0.0039,-0.0008,1.0000,0.2400,0.0097,0.0445
78503,Right,2,0.1939,0.0648,-0.7587,0.6185,0.0050,-0.0046,0.0037,0.0698,-0.0199,0.1194,-3.7131,1.4769,9.0930,0.0001,-0.0001,0.0000,1.0000,-0.0928,0.0369,0.2273
78503,Left,2,0.0152,0.1737,-0.3452,0.9222,0.0226,-0.0112,0.0052,0.0322,0.0057,-0.0298,-3.2209,-0.8744,9.1961,0.0003,-0.0001,0.0001,1.0000,-0.0806,-0.0219,0.2299
78503,Pelvis,2,-0.4759,-0.4193,-0.5956,0.4930,-0.1178,0.2262,-0.0219,0.3878,-0.1840,-0.0784,9.5581,0.7054,1.7568,-0.0015,0.0028,-0.0003,1.0000,0.2391,0.0176,0.0432
78504,Right,2,0.1938,0.0649,-0.7588,0.6185,-0.0031,0.0006,-0.0009,0.0233,-0.0142,0.1072,-3.7048,1.4281,9.0907,-0.0000,0.0000,-0.0000,1.0000,-0.0926,0.0357,0.2273
78504,Left,2,0.0150,0.1735,-0.3449,0.9223,0.0076,-0.0144,0.0066,0.0109,0.0227,0.0030,-3.2526,-0.8765,9.2196,0.0001,-0.0002,0.0001,1.0000,-0.0814,-0.0219,0.2305
78504,Pelvis,2,-0.4762,-0.4174,-0.5971,0.4925,-0.0781,0.1129,0.0290,0.5448,-0.0346,-0.1182,9.4736,0.8325,1.9593,-0.0010,0.0014,0.0004,1.0000,0.2369,0.0209,0.0486
78505,Right,2,0.1937,0.0650,-0.7588,0.6184,-0.0035,0.0081,-0.0014,0.0222,0.0035,0.1079,-3.7210,1.4212,9.0858,-0.0000,0.0001,-0.0000,1.0000,-0.0930,0.0355,0.2272
78505,Left,2,0.0147,0.1730,-0.3449,0.9224,-0.0089,-0.0335,0.0100,-0.0138,0.0336,0.0566,-3.2871,-0.8904,9.2632,-0.0001,-0.0004,0.0001,1.0000,-0.0823,-0.0222,0.2315
78505,Pelvis,2,-0.4760,-0.4160,-0.5982,0.4925,-0.0257,0.1173,0.0274,-0.0262,-0.0250,-0.3674,9.2579,0.2535,1.8551,-0.0003,0.0015,0.0003,1.0000,0.2315,0.0064,0.0460
78506,Right,2,0.1936,0.0650,-0.7588,0.6185,-0.0046,0.0007,-0.0027,-0.0035,0.0343,0.1172,-3.7484,1.3884,9.0899,-0.0001,0.0000,-0.0000,1.0000,-0.0937,0.0347,0.2272
78506,Left,2,0.0141,0.1726,-0.3447,0.9226,-0.0193,-0.0366,0.0061,0.0717,0.0040,-0.1506,-3.1302,-0.8441,9.1023,-0.0002,-0.0005,0.0001,1.0000,-0.0784,-0.0211,0.2275
78506,Pelvis,2,-0.4761,-0.4153,-0.5987,0.4923,0.0004,0.0413,0.0136,-0.2282,-0.0548,-0.3965,9.2444,0.0553,1.8045,0.0000,0.0005,0.0002,1.0000,0.2311,0.0014,0.0450
78507,Right,2,0.1935,0.0648,-0.7589,0.6184,0.0147,-0.0109,0.0048,-0.0312,0.0743,0.1714,-3.7985,1.3599,9.1329,0.0002,-0.0001,0.0001,1.0000,-0.0950,0.0339,0.2283
78507,Left,2,0.0136,0.1724,-0.3447,0.9226,-0.0254,-0.0233,-0.0002,0.0317,0.0160,-0.1219,-3.1665,-0.8701,9.1175,-0.0003,-0.0003,-0.0000,1.0000,-0.0792,-0.0217,0.2279
78507,Pelvis,2,-0.4763,-0.4151,-0.5990,0.4919,0.0247,0.0035,0.0138,-0.1122,-0.0717,-0.2685,9.3652,0.1760,1.8361,0.0003,0.0000,0.0002,1.0000,0.2341,0.0044,0.0459
78508,Right,2,0.1937,0.0640,-0.7588,0.6185,0.0632,-0.0263,0.0158,-0.0150,0.0408,0.2326,-3.7877,1.4006,9.1979,0.0008,-0.0003,0.0002,1.0000,-0.0948,0.0348,0.2299
78508,Left,2,0.0129,0.1722,-0.3445,0.9228,-0.0316,-0.0281,-0.0010,-0.0215,0.0148,-0.0122,-3.2315,-0.9253,9.2061,-0.0004,-0.0004,-0.0000,1.0000,-0.0809,-0.0230,0.2301
78508,Pelvis,2,-0.4772,-0.4153,-0.5989,0.4911,0.0131,-0.0726,0.0108,-0.0835,-0.1497,-0.0255,9.6184,0.2252,1.8042,0.0002,-0.0009,0.0001,1.0000,0.2404,0.0057,0.0453
78509,Right,2,0.1941,0.0628,-0.7589,0.6185,0.0954,-0.0324,0.0219,0.0155,0.0040,0.1419,-3.7166,1.4441,9.1212,0.0012,-0.0004,0.0003,1.0000,-0.0930,0.0358,0.2280
78509,Left,2,0.0123,0.1719,-0.3445,0.9228,-0.0244,-0.0369,0.0006,-0.0141,-0.0188,-0.0446,-3.1853,-0.9529,9.1849,-0.0003,-0.0005,0.0000,1.0000,-0.0797,-0.0238,0.2296
78509,Pelvis,2,-0.4782,-0.4155,-0.5986,0.4903,0.0188,-0.0854,0.0196,-0.1018,-0.0943,0.0628,9.6993,0.2000,1.8515,0.0002,-0.0011,0.0002,1.0000,0.2424,0.0050,0.0465
78510,Right,2,0.1946,0.0615,-0.7588,0.6185,0.1101,-0.0258,0.0233,0.0264,0.0052,0.1679,-3.7206,1.4824,9.1418,0.0014,-0.0003,0.0003,1.0000,-0.0931,0.0367,0.2286
78510,Left,2,0.0119,0.1714,-0.3445,0.9229,-0.0053,-0.0372,0.0052,0.0153,-0.0272,-0.1167,-3.1255,-0.9393,9.1303,-0.0001,-0.0005,0.0001,1.0000,-0.0782,-0.0235,0.2282
78510,Pelvis,2,-0.4795,-0.4161,-0.5976,0.4897,0.0073,-0.1327,0.0398,-0.0579,-0.0821,0.0824,9.7189,0.2357,1.8469,0.0001,-0.0017,0.0005,1.0000,0.2429,0.0060,0.0466
78511,Right,2,0.1950,0.0601,-0.7589,0.6184,0.1113,-0.0412,0.0174,0.1063,0.0081,0.1249,-3.7104,1.5783,9.0834,0.0014,-0.0005,0.0002,1.0000,-0.0929,0.0391,0.2271
78511,Left,2,0.0117,0.1711,-0.3445,0.9230,-0.0013,-0.0232,0.0056,0.0468,-0.0107,-0.1314,-3.1004,-0.9086,9.1265,-0.0000,-0.0003,0.0001,1.0000,-0.0776,-0.0227,0.2281
78511,Pelvis,2,-0.4810,-0.4164,-0.5969,0.4889,0.0152,-0.1326,0.0487,-0.1291,-0.1306,0.0543,9.7112,0.1653,1.7483,0.0002,-0.0017,0.0006,1.0000,0.2427,0.0043,0.0441
78512,Right,2,0.1953,0.0586,-0.7590,0.6184,0.1129,-0.0521,0.0228,-0.0346,0.0268,0.1539,-3.7034,1.4689,9.1358,0.0014,-0.0007,0.0003,1.0000,-0.0927,0.0364,0.2284
78512,Left,2,0.0114,0.1709,-0.3445,0.9231,-0.0010,-0.0152,0.0056,0.0323,-0.0067,-0.1149,-3.1122,-0.9183,9.1389,-0.0000,-0.0002,0.0001,1.0000,-0.0778,-0.0230,0.2285
78512,Pelvis,2,-0.4823,-0.4170,-0.5958,0.4884,0.0337,-0.1307,0.0508,-0.0843,-0.1199,-0.0100,9.6497,0.1958,1.7204,0.0004,-0.0016,0.0006,1.0000,0.2412,0.0050,0.0434
78513,Right,2,0.1956,0.0572,-0.7590,0.6184,0.1052,-0.0435,0.0253,0.0284,-0.0013,0.1101,-3.6586,1.5553,9.0916,0.0013,-0.0005,0.0003,1.0000,-0.0916,0.0386,0.2273
78513,Left,2,0.0113,0.1707,-0.3443,0.9231,0.0049,-0.0074,0.0026,0.0148,-0.0083,-0.0775,-3.1311,-0.9358,9.1703,0.0001,-0.0001,0.0000,1.0000,-0.0783,-0.0234,0.2292
78513,Pelvis,2,-0.4835,-0.4177,-0.5945,0.4881,0.0493,-0.1434,0.0642,-0.1292,-0.1410,-0.0009,9.6712,0.1450,1.6598,0.0006,-0.0018,0.0008,1.0000,0.2417,0.0038,0.0419
78514,Right,2,0.1960,0.0558,-0.7590,0.6184,0.1048,-0.0401,0.0278,-0.0116,0.0154,0.1322,-3.6641,1.5413,9.1160,0.0013,-0.0005,0.0003,1.0000,-0.0917,0.0382,0.2279
78514,Left,2,0.0112,0.1706,-0.3442,0.9232,0.0052,-0.0051,0.0041,0.0313,0.0088,-0.0757,-3.1275,-0.9132,9.1757,0.0001,-0.0001,0.0001,1.0000,-0.0782,-0.0228,0.2294
78514,Pelvis,2,-0.4846,-0.4182,-0.5935,0.4879,0.0848,-0.1125,0.0738,-0.1548,-0.1273,-0.0356,9.6418,0.1067,1.6299,0.0011,-0.0014,0.0009,1.0000,0.2410,0.0028,0.0411
78515,Right,2,0.1963,0.0547,-0.7590,0.6184,0.0806,-0.0325,0.0246,0.0320,-0.0196,0.0440,-3.5962,1.5998,9.0368,0.0010,-0.0004,0.0003,1.0000,-0.0900,0.0397,0.2259
78515,Left,2,0.0111,0.1705,-0.3442,0.9232,0.0045,-0.0029,0.0024,0.0230,0.0002,-0.1169,-3.1119,-0.9223,9.1364,0.0001,-0.0000,0.0000,1.0000,-0.0778,-0.0231,0.2284
78515,Pelvis,2,-0.4851,-0.4190,-0.5921,0.4885,0.1069,-0.0823,0.0675,-0.0967,-0.0436,-0.0743,9.5905,0.1347,1.6885,0.0013,-0.0010,0.0008,1.0000,0.2397,0.0035,0.0425
78516,Right,2,0.1964,0.0540,-0.7589,0.6185,0.0554,-0.0195,0.0155,0.0076,-0.0177,0.0680,-3.5951,1.5958,9.0640,0.0007,-0.0002,0.0002,1.0000,-0.0899,0.0397,0.2266
78516,Left,2,0.0109,0.1704,-0.3443,0.9232,0.0053,-0.0046,0.0028,0.0157,0.0017,-0.0775,-3.1281,-0.9317,9.1717,0.0001,-0.0001,0.0000,1.0000,-0.0782,-0.0233,0.2293
78516,Pelvis,2,-0.4854,-0.4199,-0.5909,0.4888,0.1054,-0.0842,0.0497,0.0443,0.0036,-0.0633,9.5898,0.2579,1.7385,0.0013,-0.0011,0.0006,1.0000,0.2397,0.0065,0.0437
78517,Right,2,0.1966,0.0535,-0.7589,0.6185,0.0428,-0.0124,0.0124,0.0096,0.0217,0.1112,-3.6421,1.6073,9.0904,0.0005,-0.0002,0.0002,1.0000,-0.0911,0.0400,0.2273
78517,Left,2,0.0109,0.1703,-0.3443,0.9232,0.0080,-0.0030,0.0034,-0.0029,-0.0071,-0.0701,-3.1354,-0.9523,9.1751,0.0001,-0.0000,0.0000,1.0000,-0.0784,-0.0238,0.2294
78517,Pelvis,2,-0.4857,-0.4206,-0.5902,0.4887,0.0848,-0.0692,0.0302,0.1499,0.0550,-0.0596,9.5830,0.3509,1.7866,0.0011,-0.0009,0.0004,1.0000,0.2395,0.0088,0.0449
78518,Right,2,0.1967,0.0530,-0.7589,0.6186,0.0418,-0.0084,0.0131,0.0241,0.0184,0.1212,-3.6411,1.6331,9.0972,0.0005,-0.0001,0.0002,1.0000,-0.0911,0.0407,0.2274
78518,Left,2,0.0108,0.1701,-0.3443,0.9233,0.0121,-0.0017,0.0025,0.0007,-0.0151,-0.1184,-3.1099,-0.9515,9.1325,0.0002,-0.0000,0.0000,1.0000,-0.0778,-0.0238,0.2283
78518,Pelvis,2,-0.4861,-0.4211,-0.5896,0.4886,0.0411,-0.0597,0.0187,0.0669,0.0525,0.0211,9.6702,0.2692,1.7681,0.0005,-0.0007,0.0002,1.0000,0.2417,0.0068,0.0444
78519,Right,2,0.1969,0.0525,-0.7588,0.6186,0.0444,-0.0088,0.0135,-0.0096,0.0200,0.1192,-3.6329,1.6099,9.1024,0.0006,-0.0001,0.0002,1.0000,-0.0909,0.0401,0.2276
78519,Left,2,0.0108,0.1700,-0.3445,0.9232,0.0102,-0.0007,-0.0012,0.0277,0.0047,-0.0732,-3.1157,-0.9233,9.1814,0.0001,-0.0000,-0.0000,1.0000,-0.0779,-0.0231,0.2295
78519,Pelvis,2,-0.4865,-0.4211,-0.5895,0.4884,0.0141,-0.0241,0.0117,0.0972,-0.0194,0.0677,9.7286,0.3109,1.6999,0.0002,-0.0003,0.0001,1.0000,0.2432,0.0078,0.0426
78520,Right,2,0.1971,0.0521,-0.7588,0.6186,0.0387,-0.0062,0.0117,0.0039,0.0120,0.1004,-3.6174,1.6307,9.0843,0.0005,-0.0001,0.0001,1.0000,-0.0905,0.0406,0.2271
78520,Left,2,0.0107,0.1699,-0.3445,0.9232,0.0081,-0.0013,-0.0011,-0.0028,-0.0049,-0.0585,-3.1338,-0.9523,9.1879,0.0001,-0.0000,-0.0000,1.0000,-0.0783,-0.0238,0.2297
78520,Pelvis,2,-0.4872,-0.4210,-0.5895,0.4878,-0.0466,-0.0481,0.0135,0.1389,-0.0575,0.2340,9.8983,0.3595,1.6892,-0.0006,-0.0006,0.0002,1.0000,0.2474,0.0091,0.0424
78521,Right,2,0.1972,0.0518,-0.7587,0.6187,0.0306,-0.0004,0.0097,-0.0164,0.0154,0.1009,-3.6153,1.6182,9.0879,0.0004,-0.0000,0.0001,1.0000,-0.0904,0.0404,0.2272
78521,Left,2,0.0107,0.1698,-0.3444,0.9233,0.0087,-0.0011,0.0001,0.0047,0.0101,-0.0587,-3.1356,-0.9368,9.1886,0.0001,-0.0000,0.0000,1.0000,-0.0784,-0.0234,0.2297
78521,Pelvis,2,-0.4876,-0.4200,-0.5904,0.4871,-0.0624,0.0412,0.0062,-0.0664,0.0101,-0.0568,9.6111,0.1381,1.6698,-0.0008,0.0005,0.0001,1.0000,0.2403,0.0035,0.0416
78522,Right,2,0.1974,0.0514,-0.7587,0.6187,0.0335,-0.0053,0.0097,-0.0008,0.0230,0.1322,-3.6341,1.6441,9.1100,0.0004,-0.0001,0.0001,1.0000,-0.0909,0.0410,0.2278
78522,Left,2,0.0106,0.1697,-0.3443,0.9233,0.0124,-0.0029,0.0019,-0.0029,-0.0160,-0.0860,-3.1133,-0.9581,9.1650,0.0002,-0.0000,0.0000,1.0000,-0.0778,-0.0240,0.2291
78522,Pelvis,2,-0.4883,-0.4194,-0.5906,0.4867,-0.1060,-0.0192,0.0124,0.0888,0.1353,-0.0044,9.6339,0.2641,1.8295,-0.0013,-0.0002,0.0002,1.0000,0.2408,0.0067,0.0458
78523,Right,2,0.1975,0.0510,-0.7587,0.6187,0.0369,-0.0084,0.0110,-0.0084,0.0236,0.1063,-3.6208,1.6398,9.0877,0.0005,-0.0001,0.0001,1.0000,-0.0905,0.0409,0.2272
78523,Left,2,0.0107,0.1695,-0.3444,0.9233,0.0173,-0.0040,0.0033,0.0280,0.0001,-0.1007,-3.0943,-0.9235,9.1594,0.0002,-0.0001,0.0000,1.0000,-0.0774,-0.0231,0.2290
78523,Pelvis,2,-0.4896,-0.4183,-0.5911,0.4858,-0.1320,-0.0253,0.0282,0.0431,0.0885,-0.1186,9.5327,0.2154,1.7513,-0.0017,-0.0003,0.0004,1.0000,0.2383,0.0055,0.0438
78524,Right,2,0.1976,0.0506,-0.7586,0.6188,0.0339,-0.0092,0.0107,0.0225,0.0115,0.1105,-3.6126,1.6807,9.0881,0.0004,-0.0001,0.0001,1.0000,-0.0903,0.0419,0.2272
78524,Left,2,0.0108,0.1694,-0.3445,0.9233,0.0180,-0.0025,0.0028,0.0020,0.0038,-0.0770,-3.1199,-0.9378,9.1744,0.0002,-0.0000,0.0000,1.0000,-0.0780,-0.0235,0.2294
78524,Pelvis,2,-0.4911,-0.4174,-0.5915,0.4845,-0.1500,-0.0599,0.0158,-0.2574,0.1060,-0.2439,9.4230,-0.0965,1.6845,-0.0019,-0.0007,0.0002,1.0000,0.2355,-0.0023,0.0423
78525,Right,2,0.1977,0.0503,-0.7586,0.6188,0.0302,-0.0059,0.0078,0.0448,-0.0022,0.1253,-3.6056,1.7144,9.1008,0.0004,-0.0001,0.0001,1.0000,-0.0902,0.0428,0.2275
78525,Left,2,0.0108,0.1693,-0.3447,0.9233,0.0142,-0.0016,0.0037,0.0091,0.0042,-0.0541,-3.1204,-0.9346,9.1989,0.0002,-0.0000,0.0000,1.0000,-0.0780,-0.0234,0.2300
78525,Pelvis,2,-0.4922,-0.4169,-0.5917,0.4835,-0.1254,-0.0553,0.0010,-0.3900,0.0456,0.0113,9.6931,-0.2191,1.6312,-0.0016,-0.0007,0.0000,1.0000,0.2423,-0.0054,0.0410
78526,Right,2,0.1978,0.0500,-0.7586,0.6188,0.0248,-0.0041,0.0059,0.0242,0.0013,0.1257,-3.6033,1.7000,9.1049,0.0003,-0.0001,0.0001,1.0000,-0.0901,0.0424,0.2276
78526,Left,2,0.0107,0.1692,-0.3447,0.9233,0.0102,0.0013,0.0010,0.0360,0.0144,-0.0895,-3.0947,-0.9059,9.1730,0.0001,0.0000,0.0000,1.0000,-0.0774,-0.0227,0.2293
78526,Pelvis,2,-0.4929,-0.4161,-0.5922,0.4828,-0.0791,-0.0089,0.0110,-0.3731,-0.0058,0.2922,9.9790,-0.1916,1.6225,-0.0010,-0.0001,0.0001,1.0000,0.2495,-0.0047,0.0406
78527,Right,2,0.1978,0.0498,-0.7586,0.6188,0.0165,-0.0010,0.0035,0.0243,-0.0026,0.0969,-3.5875,1.7002,9.0796,0.0002,-0.0000,0.0000,1.0000,-0.0897,0.0425,0.2270
78527,Left,2,0.0107,0.1692,-0.3447,0.9233,0.0108,0.0058,0.0025,0.0170,-0.0017,-0.0703,-3.1031,-0.9329,9.1877,0.0001,0.0001,0.0000,1.0000,-0.0776,-0.0234,0.2297
78527,Pelvis,2,-0.4933,-0.4155,-0.5925,0.4826,-0.0260,0.0145,0.0284,-0.2911,-0.0427,0.2218,9.9116,-0.1109,1.5891,-0.0003,0.0002,0.0004,1.0000,0.2478,-0.0027,0.0397
78528,Right,2,0.1978,0.0498,-0.7586,0.6188,0.0021,0.0049,-0.0001,0.0341,-0.0060,0.0939,-3.5840,1.7109,9.0758,0.0000,0.0001,-0.0000,1.0000,-0.0896,0.0428,0.2269
78528,Left,2,0.0106,0.1692,-0.3447,0.9233,0.0076,0.0069,0.0045,0.0194,-0.0075,-0.0680,-3.0981,-0.9366,9.1915,0.0001,0.0001,0.0001,1.0000,-0.0774,-0.0234,0.2298
78528,Pelvis,2,-0.4935,-0.4151,-0.5926,0.4826,0.0210,0.0182,0.0386,-0.2372,-0.0270,0.0098,9.6971,-0.0700,1.5811,0.0003,0.0002,0.0005,1.0000,0.2424,-0.0016,0.0395
78529,Right,2,0.1978,0.0501,-0.7586,0.6188,-0.0090,0.0182,-0.0035,0.0306,-0.0053,0.0810,-3.5811,1.7033,9.0642,-0.0001,0.0002,-0.0000,1.0000,-0.0895,0.0426,0.2266
78529,Left,2,0.0106,0.1692,-0.3448,0.9233,0.0045,0.0077,0.0013,0.0230,0.0016,-0.0889,-3.0946,-0.9267,9.1716,0.0001,0.0001,0.0000,1.0000,-0.0773,-0.0232,0.2293
78529,Pelvis,2,-0.4935,-0.4150,-0.5925,0.4829,0.0523,0.0093,0.0389,-0.1577,-0.0238,-0.1310,9.5537,-0.0007,1.5774,0.0007,0.0001,0.0005,1.0000,0.2388,0.0001,0.0394
78530,Right,2,0.1978,0.0504,-0.7586,0.6188,-0.0185,0.0189,-0.0060,0.0127,0.0077,0.1392,-3.6147,1.6883,9.1172,-0.0002,0.0002,-0.0001,1.0000,-0.0903,0.0423,0.2279
78530,Left,2,0.0105,0.1693,-0.3448,0.9232,0.0060,0.0101,0.0022,0.0053,0.0074,-0.1045,-3.1060,-0.9332,9.1504,0.0001,0.0001,0.0000,1.0000,-0.0776,-0.0234,0.2288
78530,Pelvis,2,-0.4934,-0.4151,-0.5921,0.4833,0.0651,0.0069,0.0311,-0.0576,-0.0582,-0.0876,9.5973,0.0994,1.5706,0.0008,0.0001,0.0004,1.0000,0.2399,0.0025,0.0392
78531,Right,2,0.1977,0.0508,-0.7586,0.6188,-0.0238,0.0197,-0.0059,-0.0032,0.0126,0.1162,-3.6119,1.6612,9.0982,-0.0003,0.0002,-0.0001,1.0000,-0.0902,0.0416,0.2275
78531,Left,2,0.0105,0.1693,-0.3447,0.9232,0.0087,0.0102,0.0031,0.0116,-0.0169,-0.0975,-3.0890,-0.9496,9.1620,0.0001,0.0001,0.0000,1.0000,-0.0772,-0.0238,0.2291
78531,Pelvis,2,-0.4931,-0.4156,-0.5915,0.4840,0.0733,-0.0014,0.0319,-0.0160,-0.0342,-0.0126,9.6653,0.1329,1.6148,0.0009,-0.0000,0.0004,1.0000,0.2416,0.0034,0.0404
78532,Right,2,0.1976,0.0512,-0.7586,0.6188,-0.0199,0.0180,-0.0057,0.0006,0.0305,0.1298,-3.6373,1.6563,9.1039,-0.0002,0.0002,-0.0001,1.0000,-0.0909,0.0415,0.2276
78532,Left,2,0.0105,0.1694,-0.3449,0.9232,0.0068,0.0158,0.0025,0.0093,0.0054,-0.0608,-3.1176,-0.9384,9.1924,0.0001,0.0002,0.0000,1.0000,-0.0779,-0.0235,0.2298
78532,Pelvis,2,-0.4931,-0.4159,-0.5909,0.4844,0.0863,-0.0196,0.0414,-0.0587,-0.0320,-0.0246,9.6558,0.0857,1.6031,0.0011,-0.0002,0.0005,1.0000,0.2414,0.0022,0.0401
78533,Right,2,0.1975,0.0514,-0.7586,0.6188,-0.0124,0.0139,-0.0047,0.0049,0.0207,0.1215,-3.6288,1.6560,9.0982,-0.0002,0.0002,-0.0001,1.0000,-0.0907,0.0414,0.2275
78533,Left,2,0.0105,0.1695,-0.3447,0.9232,0.0097,0.0170,0.0022,0.0095,0.0086,-0.0608,-3.1215,-0.9364,9.1913,0.0001,0.0002,0.0000,1.0000,-0.0780,-0.0234,0.2298
78533,Pelvis,2,-0.4933,-0.4163,-0.5902,0.4847,0.1064,-0.0385,0.0500,-0.0794,-0.0132,-0.0674,9.6130,0.0560,1.6016,0.0013,-0.0005,0.0006,1.0000,0.2403,0.0015,0.0402
78534,Right,2,0.1975,0.0517,-0.7586,0.6188,-0.0115,0.0155,-0.0029,0.0114,0.0218,0.1345,-3.6379,1.6596,9.1081,-0.0001,0.0002,-0.0000,1.0000,-0.0909,0.0415,0.2277
78534,Left,2,0.0105,0.1695,-0.3446,0.9232,0.0083,0.0098,0.0024,-0.0053,0.0056,-0.0327,-3.1401,-0.9511,9.2132,0.0001,0.0001,0.0000,1.0000,-0.0785,-0.0238,0.2303
78534,Pelvis,2,-0.4935,-0.4170,-0.5892,0.4852,0.1209,-0.0499,0.0502,-0.0641,0.0132,-0.0712,9.6064,0.0589,1.6168,0.0015,-0.0006,0.0006,1.0000,0.2401,0.0016,0.0406
78535,Right,2,0.1975,0.0520,-0.7586,0.6187,-0.0173,0.0181,-0.0037,0.0319,0.0034,0.1204,-3.6220,1.6768,9.0959,-0.0002,0.0002,-0.0000,1.0000,-0.0905,0.0420,0.2274
78535,Left,2,0.0105,0.1696,-0.3447,0.9232,0.0095,0.0102,0.0048,-0.0020,-0.0099,-0.0694,-3.1168,-0.9580,9.1815,0.0001,0.0001,0.0001,1.0000,-0.0779,-0.0240,0.2295
78535,Pelvis,2,-0.4933,-0.4181,-0.5878,0.4861,0.1366,-0.0577,0.0436,-0.0666,0.0086,-0.0632,9.6175,0.0515,1.5998,0.0017,-0.0007,0.0005,1.0000,0.2404,0.0013,0.0402
78536,Right,2,0.1974,0.0523,-0.7586,0.6187,-0.0168,0.0179,-0.0044,0.0143,0.0298,0.1268,-3.6490,1.6496,9.0972,-0.0002,0.0002,-0.0001,1.0000,-0.0912,0.0413,0.2274
78536,Left,2,0.0105,0.1696,-0.3445,0.9233,0.0147,0.0135,0.0041,0.0019,0.0064,-0.1019,-3.1149,-0.9393,9.1496,0.0002,0.0002,0.0001,1.0000,-0.0778,-0.0235,0.2287
78536,Pelvis,2,-0.4933,-0.4193,-0.5866,0.4866,0.1461,-0.0734,0.0368,-0.0252,0.0036,-0.0067,9.6751,0.0912,1.5945,0.0018,-0.0009,0.0005,1.0000,0.2418,0.0023,0.0401
78537,Right,2,0.1974,0.0526,-0.7586,0.6187,-0.0163,0.0156,-0.0049,0.0050,0.0183,0.1162,-3.6360,1.6365,9.0931,-0.0002,0.0002,-0.0001,1.0000,-0.0909,0.0410,0.2273
78537,Left,2,0.0106,0.1697,-0.3445,0.9233,0.0126,0.0144,0.0041,0.0142,0.0031,-0.0561,-3.1202,-0.9374,9.1966,0.0002,0.0002,0.0001,1.0000,-0.0780,-0.0235,0.2299
78537,Pelvis,2,-0.4933,-0.4205,-0.5852,0.4872,0.1492,-0.0776,0.0384,0.0189,-0.0151,-0.0054,9.6807,0.1354,1.5645,0.0019,-0.0010,0.0005,1.0000,0.2420,0.0034,0.0394
78538,Right,2,0.1973,0.0529,-0.7586,0.6187,-0.0159,0.0133,-0.0055,0.0257,0.0334,0.1163,-3.6556,1.6475,9.0834,-0.0002,0.0002,-0.0001,1.0000,-0.0913,0.0412,0.2271
78538,Left,2,0.0106,0.1697,-0.3444,0.9233,0.0135,0.0108,0.0037,-0.0029,0.0338,-0.0559,-3.1528,-0.9245,9.1870,0.0002,0.0001,0.0000,1.0000,-0.0788,-0.0232,0.2297
78538,Pelvis,2,-0.4934,-0.4218,-0.5837,0.4877,0.1432,-0.0937,0.0474,-0.0111,-0.0411,-0.0188,9.6763,0.1069,1.5103,0.0018,-0.0012,0.0006,1.0000,0.2419,0.0027,0.0380
78539,Right,2,0.1972,0.0531,-0.7586,0.6187,-0.0151,0.0127,-0.0036,-0.0081,0.0276,0.1585,-3.6625,1.6185,9.1319,-0.0002,0.0002,-0.0000,1.0000,-0.0915,0.0405,0.2283
78539,Left,2,0.0106,0.1698,-0.3444,0.9233,0.0106,0.0111,0.0039,0.0221,-0.0029,-0.0723,-3.1075,-0.9349,9.1840,0.0001,0.0001,0.0000,1.0000,-0.0777,-0.0234,0.2296
78539,Pelvis,2,-0.4934,-0.4229,-0.5824,0.4884,0.1388,-0.0677,0.0393,0.0508,-0.0542,-0.0322,9.6660,0.1656,1.4850,0.0017,-0.0008,0.0005,1.0000,0.2416,0.0042,0.0373
78540,Right,2,0.1972,0.0533,-0.7586,0.6187,-0.0083,0.0109,0.0001,0.0039,0.0147,0.1108,-3.6369,1.6211,9.0896,-0.0001,0.0001,0.0000,1.0000,-0.0909,0.0406,0.2272
78540,Left,2,0.0106,0.1698,-0.3444,0.9233,0.0120,0.0110,0.0038,0.0019,-0.0197,-0.0944,-3.1049,-0.9586,9.1589,0.0002,0.0001,0.0000,1.0000,-0.0776,-0.0240,0.2290
78540,Pelvis,2,-0.4936,-0.4239,-0.5814,0.4885,0.1144,-0.0827,0.0300,0.0936,-0.0190,-0.0096,9.6845,0.2003,1.5100,0.0014,-0.0010,0.0004,1.0000,0.2421,0.0050,0.0380
78541,Right,2,0.1972,0.0534,-0.7586,0.6187,-0.0034,0.0108,0.0011,0.0194,0.0163,0.1497,-3.6563,1.6397,9.1210,-0.0000,0.0001,0.0000,1.0000,-0.0914,0.0410,0.2280
78541,Left,2,0.0107,0.1698,-0.3443,0.9233,0.0182,0.0134,0.0052,0.0019,0.0008,-0.0670,-3.1276,-0.9444,9.1817,0.0002,0.0002,0.0001,1.0000,-0.0782,-0.0237,0.2296
78541,Pelvis,2,-0.4938,-0.4249,-0.5802,0.4888,0.1085,-0.0794,0.0236,0.0852,-0.0079,0.0410,9.7365,0.1873,1.5058,0.0014,-0.0010,0.0003,1.0000,0.2434,0.0047,0.0379
78542,Right,2,0.1971,0.0535,-0.7585,0.6188,-0.0004,0.0065,0.0026,0.0082,0.0213,0.1397,-3.6564,1.6244,9.1128,-0.0000,0.0001,0.0000,1.0000,-0.0914,0.0406,0.2278
78542,Left,2,0.0108,0.1699,-0.3444,0.9233,0.0175,0.0143,0.0066,0.0252,-0.0021,-0.0699,-3.1099,-0.9297,9.1862,0.0002,0.0002,0.0001,1.0000,-0.0777,-0.0233,0.2297
78542,Pelvis,2,-0.4940,-0.4261,-0.5791,0.4889,0.0985,-0.0915,0.0157,0.0673,-0.0031,0.0032,9.7023,0.1692,1.4804,0.0012,-0.0011,0.0002,1.0000,0.2425,0.0042,0.0373
78543,Right,2,0.1971,0.0535,-0.7585,0.6188,-0.0019,0.0035,0.0019,0.0115,0.0068,0.1025,-3.6299,1.6234,9.0830,-0.0000,0.0000,0.0000,1.0000,-0.0907,0.0406,0.2271
78543,Left,2,0.0110,0.1699,-0.3444,0.9232,0.0210,0.0141,0.0062,-0.0021,0.0010,-0.0876,-3.1269,-0.9403,9.1606,0.0003,0.0002,0.0001,1.0000,-0.0781,-0.0236,0.2290
78543,Pelvis,2,-0.4943,-0.4272,-0.5781,0.4888,0.0950,-0.1033,0.0123,0.0885,-0.0051,-0.0747,9.6286,0.1911,1.4455,0.0012,-0.0013,0.0002,1.0000,0.2407,0.0048,0.0365
78544,Right,2,0.1970,0.0537,-0.7586,0.6188,-0.0097,0.0064,-0.0000,0.0173,0.0081,0.1155,-3.6367,1.6288,9.0935,-0.0001,0.0001,-0.0000,1.0000,-0.0909,0.0407,0.2273
78544,Left,2,0.0112,0.1699,-0.3444,0.9233,0.0251,0.0166,0.0080,0.0185,-0.0002,-0.0812,-3.1154,-0.9254,9.1728,0.0003,0.0002,0.0001,1.0000,-0.0778,-0.0232,0.2293
78544,Pelvis,2,-0.4947,-0.4285,-0.5770,0.4887,0.0873,-0.1117,0.0100,0.0357,-0.0285,-0.0102,9.7014,0.1457,1.3974,0.0011,-0.0014,0.0001,1.0000,0.2425,0.0036,0.0353
78545,Right,2,0.1968,0.0540,-0.7586,0.6188,-0.0222,0.0078,-0.0035,0.0203,-0.0125,0.0860,-3.6080,1.6263,9.0732,-0.0003,0.0001,-0.0000,1.0000,-0.0902,0.0407,0.2268
78545,Left,2,0.0114,0.1700,-0.3442,0.9233,0.0228,0.0183,0.0061,0.0191,0.0033,-0.0812,-3.1196,-0.9194,9.1720,0.0003,0.0002,0.0001,1.0000,-0.0779,-0.0231,0.2293
78545,Pelvis,2,-0.4948,-0.4298,-0.5757,0.4889,0.0913,-0.1001,0.0049,0.0183,-0.0147,0.1118,9.8245,0.1298,1.3999,0.0011,-0.0013,0.0001,1.0000,0.2456,0.0032,0.0353
78546,Right,2,0.1966,0.0544,-0.7587,0.6187,-0.0313,0.0171,-0.0063,0.0025,0.0078,0.1001,-3.6310,1.5990,9.0842,-0.0004,0.0002,-0.0001,1.0000,-0.0907,0.0401,0.2271
78546,Left,2,0.0116,0.1701,-0.3442,0.9233,0.0199,0.0193,0.0044,0.0305,-0.0003,-0.0768,-3.1132,-0.9126,9.1796,0.0002,0.0002,0.0001,1.0000,-0.0778,-0.0229,0.2295
78546,Pelvis,2,-0.4948,-0.4309,-0.5747,0.4890,0.0943,-0.0782,0.0103,-0.0725,-0.0556,0.1535,9.8775,0.0486,1.3294,0.0012,-0.0010,0.0001,1.0000,0.2469,0.0012,0.0335
78547,Right,2,0.1964,0.0550,-0.7587,0.6187,-0.0376,0.0214,-0.0081,-0.0172,0.0173,0.0930,-3.6375,1.5671,9.0795,-0.0005,0.0003,-0.0001,1.0000,-0.0909,0.0393,0.2270
78547,Left,2,0.0117,0.1702,-0.3442,0.9233,0.0227,0.0190,0.0043,0.0050,0.0111,-0.1061,-3.1318,-0.9158,9.1418,0.0003,0.0002,0.0001,1.0000,-0.0782,-0.0230,0.2286
78547,Pelvis,2,-0.4947,-0.4317,-0.5739,0.4894,0.0977,-0.0433,0.0143,-0.0692,-0.0699,0.0745,9.8031,0.0542,1.2893,0.0012,-0.0005,0.0002,1.0000,0.2451,0.0014,0.0324
78548,Right,2,0.1963,0.0556,-0.7587,0.6187,-0.0386,0.0270,-0.0091,0.0221,0.0009,0.0943,-3.6339,1.5979,9.0769,-0.0005,0.0003,-0.0001,1.0000,-0.0908,0.0401,0.2269
78548,Left,2,0.0119,0.1702,-0.3442,0.9232,0.0270,0.0177,0.0045,0.0139,0.0094,-0.0924,-3.1312,-0.9093,9.1571,0.0003,0.0002,0.0001,1.0000,-0.0782,-0.0228,0.2289
78548,Pelvis,2,-0.4942,-0.4324,-0.5731,0.4902,0.0961,-0.0041,0.0185,-0.0243,-0.0846,0.0314,9.7618,0.0984,1.2692,0.0012,-0.0001,0.0002,1.0000,0.2440,0.0025,0.0317
78549,Right,2,0.1962,0.0564,-0.7587,0.6187,-0.0499,0.0431,-0.0137,0.0085,-0.0710,-0.0019,-3.5378,1.5737,9.0147,-0.0006,0.0005,-0.0002,1.0000,-0.0883,0.0395,0.2254
78549,Left,2,0.0123,0.1703,-0.3444,0.9232,0.0364,0.0205,0.0036,-0.0035,-0.0090,-0.1238,-3.1244,-0.9274,9.1243,0.0005,0.0003,0.0000,1.0000,-0.0781,-0.0233,0.2281
78549,Pelvis,2,-0.4936,-0.4331,-0.5723,0.4911,0.0902,0.0007,0.0187,0.0227,-0.0232,-0.0116,9.7096,0.1327,1.3294,0.0011,0.0000,0.0002,1.0000,0.2427,0.0033,0.0332
78550,Right,2,0.1961,0.0578,-0.7586,0.6186,-0.0850,0.0728,-0.0231,0.0073,-0.0330,0.0647,-3.6096,1.5561,9.0617,-0.0011,0.0009,-0.0003,1.0000,-0.0900,0.0392,0.2266
78550,Left,2,0.0127,0.1704,-0.3445,0.9231,0.0428,0.0264,0.0033,0.0150,-0.0081,-0.1082,-3.1207,-0.9101,9.1439,0.0005,0.0003,0.0000,1.0000,-0.0779,-0.0229,0.2286
78550,Pelvis,2,-0.4931,-0.4337,-0.5716,0.4921,0.0843,0.0019,0.0241,0.0306,0.0216,-0.0173,9.6978,0.1313,1.3737,0.0011,0.0000,0.0003,1.0000,0.2424,0.0033,0.0343
78551,Right,2,0.1959,0.0597,-0.7585,0.6186,-0.1179,0.0878,-0.0283,0.0173,0.0297,0.1267,-3.7096,1.5346,9.0926,-0.0015,0.0011,-0.0004,1.0000,-0.0925,0.0387,0.2274
78551,Left,2,0.0131,0.1705,-0.3446,0.9230,0.0363,0.0285,0.0016,0.0233,0.0003,-0.0555,-3.1416,-0.8969,9.1940,0.0005,0.0004,0.0000,1.0000,-0.0785,-0.0225,0.2299
78551,Pelvis,2,-0.4928,-0.4341,-0.5709,0.4927,0.0677,-0.0063,0.0261,0.0846,0.0633,-0.0585,9.6500,0.1749,1.4151,0.0008,-0.0001,0.0003,1.0000,0.2412,0.0044,0.0354
78552,Right,2,0.1956,0.0613,-0.7585,0.6186,-0.1096,0.0644,-0.0283,0.0071,0.0720,0.1962,-3.7900,1.4965,9.1422,-0.0014,0.0008,-0.0004,1.0000,-0.0946,0.0378,0.2286
78552,Left,2,0.0134,0.1707,-0.3447,0.9230,0.0266,0.0281,-0.0001,-0.0045,-0.0109,-0.0498,-3.1607,-0.9194,9.1912,0.0003,0.0004,-0.0000,1.0000,-0.0789,-0.0231,0.2298
78552,Pelvis,2,-0.4928,-0.4345,-0.5701,0.4932,0.0437,-0.0270,0.0253,0.1094,0.1030,-0.0865,9.6170,0.1874,1.4489,0.0005,-0.0003,0.0003,1.0000,0.2404,0.0047,0.0363
78553,Right,2,0.1954,0.0624,-0.7585,0.6185,-0.0741,0.0454,-0.0191,-0.0072,0.0541,0.1802,-3.7778,1.4600,9.1356,-0.0009,0.0006,-0.0002,1.0000,-0.0943,0.0367,0.2284
78553,Left,2,0.0136,0.1708,-0.3447,0.9229,0.0242,0.0241,0.0018,-0.0020,0.0077,-0.0317,-3.1807,-0.9019,9.2053,0.0003,0.0003,0.0000,1.0000,-0.0794,-0.0226,0.2301
78553,Pelvis,2,-0.4932,-0.4350,-0.5695,0.4932,0.0217,-0.0619,0.0200,0.0854,0.1279,-0.1262,9.5768,0.1553,1.4533,0.0003,-0.0008,0.0002,1.0000,0.2394,0.0039,0.0365
78554,Right,2,0.1953,0.0630,-0.7585,0.6185,-0.0359,0.0275,-0.0089,-0.0241,0.0397,0.2167,-3.7832,1.4372,9.1767,-0.0004,0.0003,-0.0001,1.0000,-0.0945,0.0360,0.2294
78554,Left,2,0.0137,0.1709,-0.3448,0.9229,0.0229,0.0199,0.0016,-0.0055,0.0052,-0.0522,-3.1782,-0.9019,9.1843,0.0003,0.0002,0.0000,1.0000,-0.0794,-0.0226,0.2296
78554,Pelvis,2,-0.4940,-0.4357,-0.5686,0.4929,0.0090,-0.1078,0.0171,0.1133,0.1777,-0.1704,9.5290,0.1716,1.4793,0.0001,-0.0013,0.0002,1.0000,0.2382,0.0043,0.0373
78555,Right,2,0.1952,0.0634,-0.7585,0.6185,-0.0184,0.0199,-0.0062,-0.0001,0.0238,0.1425,-3.7494,1.4450,9.1083,-0.0002,0.0002,-0.0001,1.0000,-0.0937,0.0362,0.2277
78555,Left,2,0.0139,0.1710,-0.3449,0.9228,0.0211,0.0186,-0.0001,0.0005,-0.0194,-0.0450,-3.1634,-0.9150,9.1959,0.0003,0.0002,-0.0000,1.0000,-0.0790,-0.0229,0.2299
78555,Pelvis,2,-0.4952,-0.4365,-0.5675,0.4921,-0.0068,-0.1515,0.0209,0.1342,0.1839,-0.1486,9.5541,0.1875,1.4597,-0.0001,-0.0019,0.0003,1.0000,0.2388,0.0048,0.0369
78556,Right,2,0.1952,0.0637,-0.7585,0.6184,-0.0181,0.0175,-0.0058,0.0229,0.0223,0.1419,-3.7548,1.4616,9.1028,-0.0002,0.0002,-0.0001,1.0000,-0.0938,0.0366,0.2276
78556,Left,2,0.0141,0.1711,-0.3449,0.9228,0.0204,0.0170,0.0004,0.0040,-0.0105,-0.0659,-3.1620,-0.9021,9.1754,0.0003,0.0002,0.0000,1.0000,-0.0790,-0.0226,0.2294
78556,Pelvis,2,-0.4967,-0.4374,-0.5662,0.4913,-0.0223,-0.1855,0.0189,0.1008,0.1498,-0.0619,9.6514,0.1530,1.3920,-0.0003,-0.0023,0.0002,1.0000,0.2412,0.0039,0.0354
78557,Right,2,0.1951,0.0640,-0.7586,0.6184,-0.0163,0.0151,-0.0035,0.0298,0.0295,0.1472,-3.7672,1.4617,9.1035,-0.0002,0.0002,-0.0000,1.0000,-0.0941,0.0366,0.2276
78557,Left,2,0.0142,0.1711,-0.3449,0.9228,0.0188,0.0186,0.0025,-0.0088,0.0088,-0.0727,-3.1832,-0.8930,9.1617,0.0002,0.0002,0.0000,1.0000,-0.0795,-0.0224,0.2291
78557,Pelvis,2,-0.4982,-0.4385,-0.5648,0.4904,-0.0283,-0.1966,0.0155,-0.0085,0.0793,0.0156,9.7459,0.0488,1.2716,-0.0004,-0.0025,0.0002,1.0000,0.2436,0.0013,0.0324
78558,Right,2,0.1950,0.0643,-0.7585,0.6184,-0.0144,0.0142,-0.0029,0.0048,0.0327,0.1349,-3.7639,1.4301,9.0963,-0.0002,0.0002,-0.0000,1.0000,-0.0941,0.0358,0.2274
78558,Left,2,0.0143,0.1712,-0.3449,0.9228,0.0161,0.0170,0.0018,-0.0068,0.0027,-0.0703,-3.1809,-0.8949,9.1649,0.0002,0.0002,0.0000,1.0000,-0.0795,-0.0224,0.2291
78558,Pelvis,2,-0.4993,-0.4397,-0.5634,0.4898,-0.0088,-0.1824,0.0111,-0.0799,0.0663,0.0454,9.7845,-0.0250,1.2072,-0.0001,-0.0023,0.0001,1.0000,0.2445,-0.0006,0.0307
78559,Right,2,0.1949,0.0645,-0.7586,0.6184,-0.0132,0.0087,-0.0030,0.0087,0.0169,0.1343,-3.7515,1.4328,9.1003,-0.0002,0.0001,-0.0000,1.0000,-0.0938,0.0359,0.2275
78559,Left,2,0.0143,0.1713,-0.3450,0.9227,0.0118,0.0159,0.0022,0.0209,0.0061,-0.0527,-3.1714,-0.8758,9.1888,0.0001,0.0002,0.0000,1.0000,-0.0792,-0.0219,0.2297
78559,Pelvis,2,-0.5004,-0.4411,-0.5618,0.4893,0.0097,-0.1834,0.0109,-0.0949,0.0760,0.0233,9.7671,-0.0452,1.1681,0.0001,-0.0023,0.0001,1.0000,0.2441,-0.0011,0.0298
78560,Right,2,0.1948,0.0646,-0.7586,0.6184,-0.0116,0.0077,-0.0003,0.0323,0.0214,0.1260,-3.7571,1.4492,9.0864,-0.0001,0.0001,-0.0000,1.0000,-0.0939,0.0363,0.2272
78560,Left,2,0.0143,0.1714,-0.3450,0.9227,0.0077,0.0126,0.0008,0.0110,0.0239,-0.0688,-3.1858,-0.8680,9.1674,0.0001,0.0002,0.0000,1.0000,-0.0796,-0.0217,0.2292
78560,Pelvis,2,-0.5016,-0.4422,-0.5605,0.4885,0.0230,-0.1729,0.0160,-0.0919,0.0766,0.0597,9.8083,-0.0446,1.1288,0.0003,-0.0022,0.0002,1.0000,0.2451,-0.0011,0.0287
78561,Right,2,0.1947,0.0648,-0.7586,0.6184,-0.0120,0.0059,-0.0017,0.0377,0.0166,0.1466,-3.7618,1.4548,9.1061,-0.0002,0.0001,-0.0000,1.0000,-0.0940,0.0364,0.2277
78561,Left,2,0.0142,0.1715,-0.3451,0.9227,0.0039,0.0099,-0.0004,-0.0132,-0.0060,-0.0582,-3.1881,-0.9086,9.1739,0.0000,0.0001,-0.0000,1.0000,-0.0797,-0.0227,0.2294
78561,Pelvis,2,-0.5025,-0.4432,-0.5593,0.4881,0.0316,-0.1433,0.0238,-0.0408,0.1082,0.0710,9.8197,-0.0014,1.1290,0.0004,-0.0018,0.0003,1.0000,0.2454,0.0000,0.0287
78562,Right,2,0.1946,0.0650,-0.7586,0.6184,-0.0119,0.0065,-0.0012,-0.0086,0.0223,0.1348,-3.7555,1.4028,9.1039,-0.0001,0.0001,-0.0000,1.0000,-0.0939,0.0351,0.2276
78562,Left,2,0.0142,0.1715,-0.3451,0.9226,0.0055,0.0085,-0.0011,-0.0082,-0.0137,-0.0650,-3.1778,-0.9126,9.1698,0.0001,0.0001,-0.0000,1.0000,-0.0794,-0.0228,0.2293
78562,Pelvis,2,-0.5032,-0.4442,-0.5580,0.4879,0.0302,-0.1307,0.0300,-0.0335,0.0876,0.0728,9.8272,0.0036,1.0768,0.0004,-0.0016,0.0004,1.0000,0.2456,0.0002,0.0273
78563,Right,2,0.1945,0.0651,-0.7586,0.6184,-0.0102,0.0086,-0.0006,0.0205,-0.0006,0.1178,-3.7335,1.4298,9.0902,-0.0001,0.0001,-0.0000,1.0000,-0.0933,0.0358,0.2273
78563,Left,2,0.0141,0.1715,-0.3451,0.9226,0.0070,0.0085,0.0003,-0.0011,-0.0061,-0.0538,-3.1814,-0.9046,9.1813,0.0001,0.0001,0.0000,1.0000,-0.0795,-0.0226,0.2295
78563,Pelvis,2,-0.5039,-0.4451,-0.5566,0.4880,0.0233,-0.1220,0.0376,-0.0492,0.1096,0.0822,9.8379,-0.0226,1.0671,0.0003,-0.0015,0.0005,1.0000,0.2459,-0.0005,0.0271
78564,Right,2,0.1944,0.0653,-0.7586,0.6184,-0.0065,0.0063,0.0002,0.0085,0.0321,0.1295,-3.7665,1.4092,9.0927,-0.0001,0.0001,0.0000,1.0000,-0.0941,0.0352,0.2273
78564,Left,2,0.0140,0.1715,-0.3451,0.9226,0.0043,0.0055,0.0014,-0.0011,-0.0099,-0.0421,-3.1826,-0.9102,9.1928,0.0001,0.0001,0.0000,1.0000,-0.0795,-0.0228,0.2298
78564,Pelvis,2,-0.5043,-0.4461,-0.5552,0.4883,0.0257,-0.1078,0.0315,-0.0536,0.0283,0.1139,9.8800,-0.0261,0.9621,0.0003,-0.0013,0.0004,1.0000,0.2470,-0.0006,0.0244
78565,Right,2,0.1944,0.0653,-0.7586,0.6184,-0.0007,0.0022,0.0027,-0.0001,0.0265,0.1113,-3.7530,1.3977,9.0801,-0.0000,0.0000,0.0000,1.0000,-0.0938,0.0349,0.2270
78565,Left,2,0.0139,0.1715,-0.3450,0.9227,-0.0003,0.0033,0.0029,-0.0054,0.0044,-0.0353,-3.1961,-0.9046,9.1959,-0.0000,0.0000,0.0000,1.0000,-0.0799,-0.0226,0.2299
78565,Pelvis,2,-0.5042,-0.4470,-0.5540,0.4890,0.0322,-0.0616,0.0198,-0.0347,0.0263,0.0835,9.8515,-0.0142,0.9404,0.0004,-0.0008,0.0002,1.0000,0.2463,-0.0003,0.0237
78566,Right,2,0.1943,0.0653,-0.7586,0.6185,0.0016,0.0011,0.0038,0.0162,-0.0055,0.1360,-3.7347,1.4231,9.1106,0.0000,0.0000,0.0000,1.0000,-0.0934,0.0356,0.2278
78566,Left,2,0.0137,0.1716,-0.3450,0.9227,-0.0042,0.0052,0.0048,0.0045,-0.0247,-0.0878,-3.1527,-0.9185,9.1537,-0.0001,0.0001,0.0001,1.0000,-0.0788,-0.0230,0.2288
78566,Pelvis,2,-0.5041,-0.4475,-0.5534,0.4892,0.0334,-0.0324,0.0076,0.0014,0.0933,0.1356,9.8979,0.0109,1.0041,0.0004,-0.0004,0.0001,1.0000,0.2474,0.0003,0.0252
78567,Right,2,0.1942,0.0653,-0.7587,0.6184,-0.0003,0.0035,0.0026,0.0052,0.0057,0.1183,-3.7358,1.4067,9.0934,-0.0000,0.0000,0.0000,1.0000,-0.0934,0.0352,0.2273
78567,Left,2,0.0135,0.1716,-0.3449,0.9227,0.0026,0.0071,0.0035,0.0148,0.0061,-0.0703,-3.1704,-0.8931,9.1687,0.0000,0.0001,0.0000,1.0000,-0.0792,-0.0223,0.2292
78567,Pelvis,2,-0.5037,-0.4481,-0.5528,0.4898,0.0189,-0.0159,0.0053,0.0016,0.0854,0.1199,9.8834,0.0105,0.9905,0.0002,-0.0002,0.0001,1.0000,0.2471,0.0003,0.0248
78568,Right,2,0.1942,0.0654,-0.7587,0.6184,-0.0020,0.0060,-0.0007,0.0014,0.0003,0.1130,-3.7283,1.4021,9.0914,-0.0000,0.0001,-0.0000,1.0000,-0.0932,0.0351,0.2273
78568,Left,2,0.0134,0.1716,-0.3450,0.9227,0.0051,0.0057,-0.0012,0.0059,0.0000,-0.0606,-3.1758,-0.9067,9.1758,0.0001,0.0001,-0.0000,1.0000,-0.0794,-0.0227,0.2294
78568,Pelvis,2,-0.5037,-0.4482,-0.5525,0.4901,0.0037,-0.0053,0.0154,0.0655,-0.0238,0.0353,9.8085,0.0845,0.8797,0.0000,-0.0001,0.0002,1.0000,0.2452,0.0022,0.0220
78569,Right,2,0.1941,0.0654,-0.7587,0.6184,-0.0025,0.0046,0.0005,0.0176,0.0153,0.1001,-3.7397,1.4105,9.0713,-0.0000,0.0001,0.0000,1.0000,-0.0935,0.0353,0.2268
78569,Left,2,0.0134,0.1716,-0.3450,0.9227,0.0087,0.0071,-0.0003,0.0154,-0.0119,-0.0858,-3.1528,-0.9083,9.1568,0.0001,0.0001,-0.0000,1.0000,-0.0788,-0.0227,0.2289
78569,Pelvis,2,-0.5040,-0.4481,-0.5523,0.4901,-0.0160,-0.0184,0.0202,0.0648,-0.0787,-0.0461,9.7327,0.0864,0.8152,-0.0002,-0.0002,0.0003,1.0000,0.2433,0.0022,0.0204
78570,Right,2,0.1941,0.0655,-0.7587,0.6183,-0.0007,0.0104,-0.0005,0.0215,-0.0209,0.0335,-3.6828,1.4117,9.0218,-0.0000,0.0001,-0.0000,1.0000,-0.0920,0.0353,0.2256
78570,Left,2,0.0134,0.1717,-0.3450,0.9227,0.0080,0.0161,0.0049,0.0567,-0.0632,-0.2078,-3.0525,-0.9105,9.0616,0.0001,0.0002,0.0001,1.0000,-0.0763,-0.0228,0.2266
