PacketId,Role,StatusWord,Qx,Qy,Qz,Qw,Gx,Gy,Gz,FreeAx,FreeAy,FreeAz,Ax,Ay,Az,DQx,DQy,DQz,DQw,DVx,DVy,DVz
56989,Pelvis,0,0.1140,-0.6808,-0.0343,0.7227,0.0024,-0.0047,0.0068,0.0000,0.0000,0.0150,9.5943,2.0782,0.4620,0.0000,-0.0001,0.0001,1.0000,0.2399,0.0520,0.0116
56989,Left,0,-0.0217,0.1979,-0.2849,0.9376,0.0110,0.0019,0.0038,0.0000,-0.0000,-0.0701,-3.4960,-1.4948,8.9701,0.0001,0.0000,0.0000,1.0000,-0.0874,-0.0374,0.2242
56989,Right,0,-0.0398,0.2366,0.4427,0.8640,-0.0010,0.0002,0.0085,-0.0000,-0.0000,-0.0020,-4.3570,1.3803,8.6811,-0.0000,0.0000,0.0001,1.0000,-0.1089,0.0345,0.2170
56990,Pelvis,0,0.1140,-0.6808,-0.0342,0.7227,0.0055,-0.0054,0.0072,0.0001,0.0203,0.0149,9.5901,2.0979,0.4593,0.0001,-0.0001,0.0001,1.0000,0.2397,0.0525,0.0115
56990,Left,0,-0.0216,0.1980,-0.2849,0.9377,0.0104,0.0040,0.0053,0.0102,-0.0125,-0.0829,-3.4771,-1.4979,8.9630,0.0001,0.0000,0.0001,1.0000,-0.0869,-0.0375,0.2241
56990,Right,0,-0.0398,0.2366,0.4427,0.8640,-0.0004,0.0011,0.0055,0.0080,0.0049,-0.0120,-4.3451,1.3754,8.6765,-0.0000,0.0000,0.0001,1.0000,-0.1086,0.0344,0.2169
56991,Pelvis,0,0.1139,-0.6809,-0.0340,0.7226,0.0079,-0.0067,0.0080,0.0142,0.0406,0.0215,9.5943,2.1139,0.4419,0.0001,-0.0001,0.0001,1.0000,0.2399,0.0529,0.0111
56991,Left,0,-0.0215,0.1980,-0.2848,0.9377,0.0101,0.0042,0.0045,0.0190,-0.0086,-0.0812,-3.4742,-1.4877,8.9677,0.0001,0.0001,0.0001,1.0000,-0.0868,-0.0372,0.2242
56991,Right,0,-0.0398,0.2366,0.4428,0.8639,-0.0009,0.0018,0.0062,-0.0118,0.0174,-0.0326,-4.3364,1.3957,8.6543,-0.0000,0.0000,0.0001,1.0000,-0.1084,0.0349,0.2164
56992,Pelvis,0,0.1138,-0.6810,-0.0339,0.7226,0.0077,-0.0101,0.0096,-0.0174,0.0360,0.0187,9.5911,2.1085,0.4715,0.0001,-0.0001,0.0001,1.0000,0.2398,0.0527,0.0118
56992,Left,0,-0.0213,0.1980,-0.2848,0.9377,0.0113,0.0044,0.0051,0.0073,-0.0280,-0.0889,-3.4710,-1.5060,8.9575,0.0001,0.0001,0.0001,1.0000,-0.0868,-0.0377,0.2239
56992,Right,0,-0.0398,0.2366,0.4429,0.8639,-0.0012,0.0002,0.0069,-0.0020,0.0136,-0.0071,-4.3458,1.3898,8.6795,-0.0000,0.0000,0.0001,1.0000,-0.1086,0.0347,0.2170
56993,Pelvis,0,0.1137,-0.6812,-0.0337,0.7225,0.0052,-0.0128,0.0107,-0.0298,0.0671,-0.0090,9.5578,2.1306,0.4760,0.0001,-0.0002,0.0001,1.0000,0.2389,0.0533,0.0119
56993,Left,0,-0.0212,0.1980,-0.2848,0.9377,0.0109,0.0027,0.0032,0.0158,-0.0051,-0.0726,-3.4836,-1.4821,8.9743,0.0001,0.0000,0.0000,1.0000,-0.0871,-0.0371,0.2244
56993,Right,0,-0.0398,0.2366,0.4429,0.8639,-0.0033,-0.0015,0.0052,-0.0141,-0.0016,-0.0047,-4.3638,1.3907,8.6730,-0.0000,-0.0000,0.0001,1.0000,-0.1091,0.0348,0.2168
56994,Pelvis,0,0.1135,-0.6813,-0.0336,0.7224,-0.0024,-0.0113,0.0114,-0.0201,0.0515,-0.0109,9.5608,2.1101,0.4655,-0.0000,-0.0001,0.0001,1.0000,0.2390,0.0528,0.0117
56994,Left,0,-0.0210,0.1980,-0.2848,0.9377,0.0100,0.0033,0.0058,0.0156,-0.0289,-0.0743,-3.4710,-1.4992,8.9745,0.0001,0.0000,0.0001,1.0000,-0.0868,-0.0375,0.2244
56994,Right,0,-0.0399,0.2365,0.4430,0.8638,-0.0062,-0.0057,0.0073,-0.0056,0.0026,-0.0148,-4.3509,1.3849,8.6690,-0.0001,-0.0001,0.0001,1.0000,-0.1088,0.0346,0.2167
56995,Pelvis,0,0.1133,-0.6814,-0.0336,0.7223,-0.0035,-0.0142,0.0074,0.0078,0.0544,0.0129,9.5862,2.1116,0.4360,-0.0000,-0.0002,0.0001,1.0000,0.2396,0.0528,0.0109
56995,Left,0,-0.0209,0.1979,-0.2848,0.9377,0.0114,0.0012,0.0025,0.0064,-0.0137,-0.0614,-3.4914,-1.4905,8.9820,0.0001,0.0000,0.0000,1.0000,-0.0873,-0.0373,0.2245
56995,Right,0,-0.0399,0.2364,0.4431,0.8638,-0.0057,-0.0076,0.0038,0.0053,0.0035,-0.0337,-4.3348,1.3736,8.6574,-0.0001,-0.0001,0.0000,1.0000,-0.1084,0.0344,0.2164
56996,Pelvis,0,0.1131,-0.6815,-0.0336,0.7222,-0.0107,-0.0113,0.0056,0.0303,0.0743,0.0576,9.6281,2.1354,0.4110,-0.0001,-0.0001,0.0001,1.0000,0.2407,0.0534,0.0103
56996,Left,0,-0.0208,0.1979,-0.2848,0.9377,0.0100,-0.0011,0.0022,-0.0025,-0.0173,-0.0632,-3.4955,-1.4954,8.9777,0.0001,-0.0000,0.0000,1.0000,-0.0874,-0.0374,0.2244
56996,Right,0,-0.0399,0.2363,0.4432,0.8638,-0.0048,-0.0077,0.0037,0.0078,0.0049,-0.0120,-4.3404,1.3748,8.6789,-0.0001,-0.0001,0.0000,1.0000,-0.1085,0.0344,0.2170
56997,Pelvis,0,0.1129,-0.6816,-0.0337,0.7222,-0.0125,-0.0087,0.0076,0.0328,0.0361,0.0177,9.5977,2.0869,0.4097,-0.0002,-0.0001,0.0001,1.0000,0.2399,0.0522,0.0103
56997,Left,0,-0.0206,0.1978,-0.2848,0.9377,0.0114,-0.0036,0.0017,0.0033,-0.0288,-0.0674,-3.4827,-1.4989,8.9775,0.0001,-0.0000,0.0000,1.0000,-0.0871,-0.0375,0.2244
56997,Right,0,-0.0398,0.2361,0.4433,0.8638,-0.0068,-0.0100,0.0066,0.0078,0.0048,-0.0120,-4.3383,1.3741,8.6801,-0.0001,-0.0001,0.0001,1.0000,-0.1085,0.0344,0.2170
56998,Pelvis,0,0.1127,-0.6817,-0.0337,0.7221,-0.0139,-0.0089,0.0100,-0.0087,0.0513,-0.0233,9.5524,2.0948,0.4458,-0.0002,-0.0001,0.0001,1.0000,0.2388,0.0524,0.0112
56998,Left,0,-0.0205,0.1977,-0.2848,0.9378,0.0141,-0.0058,0.0004,0.0210,-0.0398,-0.0785,-3.4580,-1.4944,8.9758,0.0002,-0.0001,0.0000,1.0000,-0.0865,-0.0374,0.2244
56998,Right,0,-0.0398,0.2359,0.4434,0.8638,-0.0085,-0.0139,0.0067,-0.0104,-0.0179,-0.0085,-4.3630,1.3743,8.6717,-0.0001,-0.0002,0.0001,1.0000,-0.1091,0.0344,0.2168
56999,Pelvis,0,0.1123,-0.6818,-0.0338,0.7221,-0.0200,-0.0127,0.0112,-0.0170,0.0909,-0.0120,9.5556,2.1332,0.4488,-0.0002,-0.0002,0.0001,1.0000,0.2389,0.0534,0.0112
56999,Left,0,-0.0204,0.1975,-0.2848,0.9378,0.0125,-0.0068,0.0016,0.0061,-0.0314,-0.0760,-3.4730,-1.4928,8.9729,0.0002,-0.0001,0.0000,1.0000,-0.0868,-0.0374,0.2243
56999,Right,0,-0.0398,0.2357,0.4435,0.8638,-0.0102,-0.0197,0.0068,-0.0153,0.0062,-0.0403,-4.3294,1.3870,8.6506,-0.0001,-0.0002,0.0001,1.0000,-0.1083,0.0347,0.2162
57000,Pelvis,0,0.1119,-0.6820,-0.0340,0.7220,-0.0316,-0.0144,0.0081,0.0123,0.0928,0.0213,9.5905,2.1363,0.4186,-0.0004,-0.0002,0.0001,1.0000,0.2398,0.0534,0.0105
57000,Left,0,-0.0203,0.1974,-0.2849,0.9378,0.0141,-0.0085,-0.0001,-0.0088,-0.0228,-0.0735,-3.4877,-1.4912,8.9702,0.0002,-0.0001,-0.0000,1.0000,-0.0872,-0.0373,0.2242
57000,Right,0,-0.0398,0.2354,0.4435,0.8639,-0.0105,-0.0199,0.0026,0.0115,0.0109,-0.0349,-4.3106,1.3678,8.6691,-0.0001,-0.0002,0.0000,1.0000,-0.1078,0.0342,0.2167
57001,Pelvis,0,0.1115,-0.6821,-0.0343,0.7219,-0.0397,-0.0147,0.0107,0.0273,0.0675,0.0185,9.5945,2.1069,0.4056,-0.0005,-0.0002,0.0001,1.0000,0.2399,0.0527,0.0102
57001,Left,0,-0.0202,0.1971,-0.2849,0.9378,0.0161,-0.0134,-0.0006,-0.0063,-0.0304,-0.0692,-3.4802,-1.4940,8.9774,0.0002,-0.0002,-0.0000,1.0000,-0.0870,-0.0374,0.2244
57001,Right,0,-0.0398,0.2352,0.4436,0.8639,-0.0089,-0.0176,0.0049,-0.0007,-0.0043,-0.0325,-4.3248,1.3669,8.6649,-0.0001,-0.0002,0.0001,1.0000,-0.1082,0.0342,0.2166
57002,Pelvis,0,0.1110,-0.6822,-0.0347,0.7218,-0.0438,-0.0167,0.0121,0.0326,0.0798,0.0271,9.6013,2.1181,0.3973,-0.0005,-0.0002,0.0002,1.0000,0.2400,0.0530,0.0100
57002,Left,0,-0.0201,0.1969,-0.2850,0.9379,0.0139,-0.0165,-0.0029,0.0023,-0.0497,-0.0691,-3.4593,-1.5031,8.9841,0.0002,-0.0002,-0.0000,1.0000,-0.0865,-0.0376,0.2246
57002,Right,0,-0.0398,0.2349,0.4437,0.8639,-0.0105,-0.0195,0.0058,-0.0005,0.0003,-0.0020,-4.3305,1.3724,8.6956,-0.0001,-0.0002,0.0001,1.0000,-0.1083,0.0343,0.2174
57003,Pelvis,0,0.1105,-0.6824,-0.0351,0.7218,-0.0462,-0.0154,0.0091,0.0059,0.0298,0.0339,9.6169,2.0709,0.4284,-0.0006,-0.0002,0.0001,1.0000,0.2404,0.0518,0.0107
57003,Left,0,-0.0201,0.1966,-0.2851,0.9379,0.0150,-0.0170,-0.0025,0.0146,-0.0434,-0.0888,-3.4418,-1.4861,8.9722,0.0002,-0.0002,-0.0000,1.0000,-0.0861,-0.0372,0.2243
57003,Right,0,-0.0398,0.2346,0.4438,0.8640,-0.0139,-0.0237,0.0028,-0.0079,0.0008,-0.0364,-4.3137,1.3715,8.6652,-0.0002,-0.0003,0.0000,1.0000,-0.1079,0.0343,0.2166
57004,Pelvis,0,0.1100,-0.6825,-0.0355,0.7217,-0.0469,-0.0163,0.0068,0.0093,0.0333,0.0130,9.5963,2.0681,0.4216,-0.0006,-0.0002,0.0001,1.0000,0.2399,0.0517,0.0106
57004,Left,0,-0.0200,0.1963,-0.2851,0.9380,0.0146,-0.0176,-0.0020,-0.0037,-0.0547,-0.0794,-3.4482,-1.5044,8.9770,0.0002,-0.0002,-0.0000,1.0000,-0.0863,-0.0376,0.2244
57004,Right,0,-0.0398,0.2342,0.4439,0.8640,-0.0150,-0.0271,0.0052,0.0140,0.0120,-0.0132,-4.2990,1.3616,8.7002,-0.0002,-0.0003,0.0001,1.0000,-0.1076,0.0341,0.2175
57005,Pelvis,0,0.1095,-0.6827,-0.0359,0.7216,-0.0500,-0.0147,0.0065,0.0180,0.0589,0.0205,9.5994,2.0928,0.4088,-0.0006,-0.0002,0.0001,1.0000,0.2400,0.0523,0.0102
57005,Left,0,-0.0200,0.1960,-0.2852,0.9380,0.0151,-0.0203,-0.0037,0.0017,-0.0460,-0.0691,-3.4471,-1.4938,8.9903,0.0002,-0.0003,-0.0000,1.0000,-0.0862,-0.0374,0.2247
57005,Right,0,-0.0398,0.2338,0.4440,0.8640,-0.0149,-0.0273,0.0044,0.0235,0.0033,-0.0182,-4.2923,1.3455,8.7005,-0.0002,-0.0003,0.0001,1.0000,-0.1074,0.0337,0.2175
57006,Pelvis,0,0.1090,-0.6827,-0.0364,0.7216,-0.0528,-0.0113,0.0057,0.0099,0.0437,0.0025,9.5844,2.0745,0.4167,-0.0007,-0.0001,0.0001,1.0000,0.2396,0.0519,0.0104
57006,Left,0,-0.0200,0.1956,-0.2853,0.9380,0.0173,-0.0231,-0.0045,0.0044,-0.0530,-0.0648,-3.4370,-1.4967,8.9984,0.0002,-0.0003,-0.0001,1.0000,-0.0860,-0.0375,0.2249
57006,Right,0,-0.0398,0.2334,0.4442,0.8641,-0.0158,-0.0299,0.0064,0.0112,-0.0118,-0.0158,-4.3043,1.3435,8.6975,-0.0002,-0.0004,0.0001,1.0000,-0.1077,0.0336,0.2174
57007,Pelvis,0,0.1085,-0.6829,-0.0369,0.7215,-0.0542,-0.0164,0.0062,0.0136,0.0386,-0.0385,9.5460,2.0595,0.4104,-0.0007,-0.0002,0.0001,1.0000,0.2386,0.0515,0.0103
57007,Left,0,-0.0199,0.1953,-0.2854,0.9381,0.0168,-0.0189,-0.0033,0.0204,-0.1064,-0.1368,-3.3642,-1.5199,8.9446,0.0002,-0.0002,-0.0000,1.0000,-0.0842,-0.0380,0.2236
57007,Right,0,-0.0398,0.2329,0.4443,0.8641,-0.0180,-0.0321,0.0076,0.0110,-0.0119,-0.0158,-4.2973,1.3406,8.7014,-0.0002,-0.0004,0.0001,1.0000,-0.1075,0.0336,0.2175
57008,Pelvis,0,0.1080,-0.6831,-0.0374,0.7213,-0.0536,-0.0207,0.0017,0.0434,0.0609,0.0043,9.5854,2.0872,0.3777,-0.0007,-0.0003,0.0000,1.0000,0.2396,0.0522,0.0095
57008,Left,0,-0.0198,0.1951,-0.2855,0.9381,0.0157,-0.0064,0.0010,0.0046,-0.0825,-0.1068,-3.3957,-1.5105,8.9666,0.0002,-0.0001,0.0000,1.0000,-0.0849,-0.0378,0.2241
57008,Right,0,-0.0397,0.2325,0.4445,0.8642,-0.0165,-0.0331,0.0061,0.0435,0.0225,-0.0306,-4.2414,1.3305,8.7138,-0.0002,-0.0004,0.0001,1.0000,-0.1061,0.0333,0.2178
57009,Pelvis,0,0.1074,-0.6833,-0.0380,0.7212,-0.0610,-0.0252,0.0011,0.0635,0.1098,0.0690,9.6402,2.1460,0.3524,-0.0008,-0.0003,0.0000,1.0000,0.2410,0.0537,0.0088
57009,Left,0,-0.0197,0.1950,-0.2855,0.9381,0.0155,-0.0037,0.0021,-0.0140,-0.0550,-0.0682,-3.4363,-1.5011,8.9943,0.0002,-0.0000,0.0000,1.0000,-0.0859,-0.0376,0.2248
57009,Right,0,-0.0397,0.2322,0.4446,0.8642,-0.0113,-0.0223,0.0070,0.0455,0.0192,-0.0395,-4.2326,1.3231,8.7093,-0.0001,-0.0003,0.0001,1.0000,-0.1059,0.0331,0.2177
57010,Pelvis,0,0.1067,-0.6836,-0.0388,0.7210,-0.0770,-0.0303,0.0041,0.0816,0.1173,0.0747,9.6453,2.1539,0.3301,-0.0010,-0.0004,0.0001,1.0000,0.2411,0.0539,0.0083
57010,Left,0,-0.0197,0.1948,-0.2856,0.9381,0.0146,-0.0060,0.0006,-0.0082,-0.0644,-0.0724,-3.4228,-1.5037,8.9944,0.0002,-0.0001,0.0000,1.0000,-0.0856,-0.0376,0.2248
57010,Right,0,-0.0397,0.2320,0.4447,0.8642,-0.0040,-0.0131,0.0075,0.0301,0.0026,-0.0588,-4.2398,1.3211,8.6844,-0.0000,-0.0002,0.0001,1.0000,-0.1060,0.0330,0.2171
57011,Pelvis,0,0.1060,-0.6838,-0.0396,0.7208,-0.0818,-0.0320,0.0061,0.0655,0.0313,0.0397,9.6276,2.0642,0.3500,-0.0010,-0.0004,0.0001,1.0000,0.2407,0.0516,0.0088
57011,Left,0,-0.0197,0.1946,-0.2856,0.9382,0.0148,-0.0073,0.0040,-0.0053,-0.0654,-0.0810,-3.4141,-1.5001,8.9891,0.0002,-0.0001,0.0001,1.0000,-0.0854,-0.0375,0.2247
57011,Right,0,-0.0397,0.2318,0.4448,0.8642,-0.0050,-0.0087,0.0101,0.0330,0.0179,-0.0206,-4.2402,1.3327,8.7253,-0.0001,-0.0001,0.0001,1.0000,-0.1060,0.0333,0.2181
57012,Pelvis,0,0.1053,-0.6841,-0.0403,0.7206,-0.0750,-0.0279,0.0061,0.0505,-0.0202,0.0036,9.6019,2.0080,0.3642,-0.0009,-0.0003,0.0001,1.0000,0.2400,0.0502,0.0091
57012,Left,0,-0.0196,0.1945,-0.2856,0.9382,0.0152,-0.0037,0.0027,-0.0047,-0.0771,-0.1084,-3.3951,-1.5038,8.9661,0.0002,-0.0000,0.0000,1.0000,-0.0849,-0.0376,0.2241
57012,Right,0,-0.0396,0.2317,0.4449,0.8642,-0.0028,-0.0095,0.0076,0.0066,0.0003,-0.0209,-4.2635,1.3423,8.7120,-0.0000,-0.0001,0.0001,1.0000,-0.1066,0.0336,0.2178
57013,Pelvis,0,0.1047,-0.6844,-0.0409,0.7204,-0.0612,-0.0314,0.0052,0.0341,-0.0399,-0.0126,9.5894,1.9860,0.3775,-0.0008,-0.0004,0.0001,1.0000,0.2397,0.0497,0.0095
57013,Left,0,-0.0195,0.1944,-0.2856,0.9382,0.0140,-0.0026,0.0030,0.0094,-0.0687,-0.0835,-3.3960,-1.4914,8.9947,0.0002,-0.0000,0.0000,1.0000,-0.0849,-0.0373,0.2249
57013,Right,0,-0.0396,0.2315,0.4450,0.8642,-0.0014,-0.0072,0.0082,0.0411,0.0090,-0.0255,-4.2353,1.3198,8.7241,-0.0000,-0.0001,0.0001,1.0000,-0.1059,0.0330,0.2181
57014,Pelvis,0,0.1043,-0.6846,-0.0413,0.7202,-0.0463,-0.0271,0.0071,0.0056,-0.0736,0.0341,9.6406,1.9647,0.4060,-0.0006,-0.0003,0.0001,1.0000,0.2410,0.0491,0.0102
57014,Left,0,-0.0195,0.1943,-0.2856,0.9382,0.0125,-0.0009,0.0047,-0.0084,-0.0502,-0.0853,-3.4172,-1.4835,8.9859,0.0002,-0.0000,0.0001,1.0000,-0.0854,-0.0371,0.2246
57014,Right,0,-0.0396,0.2315,0.4451,0.8641,-0.0005,-0.0023,0.0078,0.0379,0.0118,-0.0167,-4.2366,1.3255,8.7326,-0.0000,-0.0000,0.0001,1.0000,-0.1059,0.0331,0.2183
57015,Pelvis,0,0.1039,-0.6849,-0.0416,0.7200,-0.0351,-0.0224,0.0126,0.0427,-0.0422,0.0350,9.6378,1.9910,0.3606,-0.0004,-0.0003,0.0002,1.0000,0.2409,0.0498,0.0091
57015,Left,0,-0.0195,0.1942,-0.2856,0.9383,0.0102,0.0006,0.0047,0.0031,-0.0522,-0.0792,-3.4083,-1.4791,8.9966,0.0001,0.0000,0.0001,1.0000,-0.0852,-0.0370,0.2249
57015,Right,0,-0.0395,0.2314,0.4452,0.8641,0.0004,-0.0014,0.0082,0.0114,-0.0059,-0.0170,-4.2615,1.3359,8.7184,0.0000,-0.0000,0.0001,1.0000,-0.1065,0.0334,0.2180
57016,Pelvis,0,0.1035,-0.6851,-0.0418,0.7199,-0.0333,-0.0159,0.0098,0.0339,-0.0256,0.0464,9.6458,2.0076,0.3639,-0.0004,-0.0002,0.0001,1.0000,0.2411,0.0502,0.0091
57016,Left,0,-0.0195,0.1942,-0.2856,0.9383,0.0088,-0.0002,0.0039,0.0031,-0.0504,-0.0792,-3.4085,-1.4766,8.9970,0.0001,-0.0000,0.0000,1.0000,-0.0852,-0.0369,0.2249
57016,Right,0,-0.0395,0.2313,0.4453,0.8641,-0.0012,-0.0061,0.0103,0.0242,-0.0040,-0.0143,-4.2532,1.3280,8.7268,-0.0000,-0.0001,0.0001,1.0000,-0.1064,0.0332,0.2182
57017,Pelvis,0,0.1031,-0.6852,-0.0421,0.7198,-0.0338,-0.0082,0.0070,0.0696,-0.0155,0.0379,9.6379,2.0112,0.3238,-0.0004,-0.0001,0.0001,1.0000,0.2409,0.0503,0.0081
57017,Left,0,-0.0194,0.1942,-0.2856,0.9383,0.0082,0.0036,0.0036,-0.0112,-0.0593,-0.0912,-3.4098,-1.4895,8.9814,0.0001,0.0000,0.0000,1.0000,-0.0852,-0.0373,0.2245
57017,Right,0,-0.0395,0.2312,0.4454,0.8641,-0.0041,-0.0069,0.0084,0.0233,-0.0040,-0.0143,-4.2514,1.3284,8.7275,-0.0001,-0.0001,0.0001,1.0000,-0.1063,0.0332,0.2182
57018,Pelvis,0,0.1028,-0.6852,-0.0424,0.7198,-0.0300,-0.0049,0.0032,0.0804,-0.0194,0.0255,9.6275,2.0026,0.3128,-0.0004,-0.0001,0.0000,1.0000,0.2407,0.0501,0.0078
57018,Left,0,-0.0195,0.1941,-0.2856,0.9383,0.0080,-0.0025,0.0025,-0.0292,-0.0692,-0.0817,-3.4203,-1.5088,8.9845,0.0001,-0.0000,0.0000,1.0000,-0.0855,-0.0377,0.2246
57018,Right,0,-0.0395,0.2310,0.4455,0.8641,-0.0029,-0.0093,0.0084,0.0284,0.0036,-0.0155,-4.2402,1.3281,8.7317,-0.0000,-0.0001,0.0001,1.0000,-0.1060,0.0332,0.2183
57019,Pelvis,0,0.1026,-0.6853,-0.0426,0.7198,-0.0262,-0.0011,0.0036,0.0599,-0.0170,-0.0002,9.6008,2.0009,0.3315,-0.0003,-0.0000,0.0000,1.0000,0.2400,0.0500,0.0083
57019,Left,0,-0.0195,0.1940,-0.2857,0.9383,0.0087,-0.0037,-0.0002,-0.0093,-0.0732,-0.0610,-3.4088,-1.5040,9.0122,0.0001,-0.0000,-0.0000,1.0000,-0.0852,-0.0376,0.2253
57019,Right,0,-0.0394,0.2309,0.4457,0.8640,-0.0021,-0.0040,0.0112,0.0303,0.0268,-0.0128,-4.2205,1.3412,8.7423,-0.0000,-0.0001,0.0001,1.0000,-0.1055,0.0335,0.2186
57020,Pelvis,0,0.1024,-0.6853,-0.0427,0.7197,-0.0164,-0.0027,0.0044,0.0354,-0.0240,0.0350,9.6353,2.0033,0.3570,-0.0002,-0.0000,0.0001,1.0000,0.2409,0.0501,0.0089
57020,Left,0,-0.0195,0.1938,-0.2857,0.9383,0.0087,-0.0069,0.0021,0.0001,-0.0817,-0.0867,-3.3857,-1.5018,8.9935,0.0001,-0.0001,0.0000,1.0000,-0.0847,-0.0376,0.2248
57020,Right,0,-0.0394,0.2309,0.4458,0.8640,-0.0031,-0.0021,0.0097,0.0199,0.0080,-0.0194,-4.2354,1.3375,8.7283,-0.0000,-0.0000,0.0001,1.0000,-0.1059,0.0334,0.2182
57021,Pelvis,0,0.1023,-0.6854,-0.0428,0.7197,-0.0083,0.0020,0.0062,-0.0330,-0.0063,0.0397,9.6327,2.0256,0.4231,-0.0001,0.0000,0.0001,1.0000,0.2408,0.0507,0.0106
57021,Left,0,-0.0195,0.1937,-0.2857,0.9383,0.0099,-0.0050,0.0008,-0.0144,-0.0907,-0.0987,-3.3852,-1.5147,8.9787,0.0001,-0.0001,0.0000,1.0000,-0.0846,-0.0379,0.2245
57021,Right,0,-0.0394,0.2308,0.4459,0.8639,-0.0035,-0.0037,0.0087,0.0205,-0.0008,0.0162,-4.2553,1.3368,8.7586,-0.0000,-0.0000,0.0001,1.0000,-0.1064,0.0334,0.2190
57022,Pelvis,0,0.1023,-0.6853,-0.0427,0.7197,0.0008,0.0102,0.0087,-0.0326,-0.0024,0.0092,9.6024,2.0217,0.4212,0.0000,0.0001,0.0001,1.0000,0.2401,0.0506,0.0105
57022,Left,0,-0.0195,0.1936,-0.2857,0.9383,0.0119,-0.0002,0.0018,-0.0253,-0.0838,-0.1048,-3.3937,-1.5136,8.9690,0.0001,-0.0000,0.0000,1.0000,-0.0848,-0.0379,0.2242
57022,Right,0,-0.0394,0.2306,0.4461,0.8639,-0.0055,-0.0070,0.0111,0.0492,-0.0042,-0.0177,-4.2273,1.3073,8.7387,-0.0001,-0.0001,0.0001,1.0000,-0.1057,0.0327,0.2185
57023,Pelvis,0,0.1023,-0.6852,-0.0426,0.7199,0.0054,0.0138,0.0085,0.0095,0.0476,-0.0308,9.5557,2.0574,0.3762,0.0001,0.0002,0.0001,1.0000,0.2389,0.0515,0.0094
57023,Left,0,-0.0195,0.1936,-0.2858,0.9383,0.0114,0.0010,0.0039,0.0039,-0.0778,-0.0952,-3.3767,-1.4941,8.9889,0.0001,0.0000,0.0000,1.0000,-0.0844,-0.0374,0.2247
57023,Right,0,-0.0394,0.2305,0.4462,0.8638,-0.0042,-0.0047,0.0100,0.0260,0.0114,-0.0294,-4.2195,1.3323,8.7255,-0.0001,-0.0001,0.0001,1.0000,-0.1055,0.0333,0.2181
57024,Pelvis,0,0.1022,-0.6852,-0.0425,0.7199,0.0007,0.0120,0.0149,0.0297,0.1217,0.0034,9.5757,2.1338,0.3528,0.0000,0.0002,0.0002,1.0000,0.2394,0.0534,0.0088
57024,Left,0,-0.0195,0.1935,-0.2858,0.9383,0.0110,0.0034,0.0034,-0.0143,-0.0867,-0.0857,-3.3877,-1.5126,8.9921,0.0001,0.0000,0.0000,1.0000,-0.0847,-0.0379,0.2248
57024,Right,0,-0.0395,0.2304,0.4463,0.8638,-0.0051,-0.0009,0.0086,0.0120,0.0228,-0.0156,-4.2217,1.3508,8.7371,-0.0001,-0.0000,0.0001,1.0000,-0.1055,0.0338,0.2184
57025,Pelvis,0,0.1020,-0.6851,-0.0425,0.7200,-0.0137,0.0053,0.0138,0.0310,0.2005,0.0119,9.5689,2.2089,0.3468,-0.0002,0.0001,0.0002,1.0000,0.2392,0.0553,0.0086
57025,Left,0,-0.0194,0.1934,-0.2858,0.9384,0.0125,0.0048,0.0043,-0.0185,-0.0811,-0.0771,-3.3961,-1.5097,8.9987,0.0002,0.0001,0.0001,1.0000,-0.0849,-0.0378,0.2250
57025,Right,0,-0.0395,0.2302,0.4465,0.8638,-0.0045,-0.0038,0.0063,0.0295,-0.0050,-0.0115,-4.2337,1.3209,8.7404,-0.0001,-0.0000,0.0001,1.0000,-0.1059,0.0330,0.2185
57026,Pelvis,0,0.1016,-0.6852,-0.0428,0.7200,-0.0353,-0.0036,0.0076,0.0161,0.1236,0.0063,9.5782,2.1327,0.3695,-0.0004,-0.0000,0.0001,1.0000,0.2395,0.0533,0.0092
57026,Left,0,-0.0193,0.1934,-0.2858,0.9384,0.0146,0.0033,0.0049,-0.0206,-0.0948,-0.0830,-3.3888,-1.5200,8.9934,0.0002,0.0000,0.0001,1.0000,-0.0847,-0.0380,0.2248
57026,Right,0,-0.0395,0.2301,0.4465,0.8638,-0.0082,-0.0103,0.0068,0.0360,-0.0101,-0.0076,-4.2340,1.3119,8.7460,-0.0001,-0.0001,0.0001,1.0000,-0.1059,0.0328,0.2186
57027,Pelvis,0,0.1012,-0.6851,-0.0432,0.7201,-0.0466,0.0068,0.0004,0.0264,0.0229,0.0454,9.6374,2.0410,0.3723,-0.0006,0.0001,0.0000,1.0000,0.2409,0.0510,0.0093
57027,Left,0,-0.0193,0.1934,-0.2858,0.9384,0.0114,0.0038,0.0043,-0.0234,-0.0834,-0.0873,-3.3949,-1.5105,8.9879,0.0001,0.0000,0.0001,1.0000,-0.0849,-0.0378,0.2247
57027,Right,0,-0.0395,0.2298,0.4467,0.8638,-0.0084,-0.0129,0.0071,0.0323,-0.0118,-0.0293,-4.2241,1.3090,8.7270,-0.0001,-0.0002,0.0001,1.0000,-0.1056,0.0327,0.2182
57028,Pelvis,0,0.1007,-0.6850,-0.0437,0.7202,-0.0483,0.0130,0.0001,0.0444,0.0633,0.0807,9.6648,2.0858,0.3562,-0.0006,0.0002,0.0000,1.0000,0.2416,0.0522,0.0088
57028,Left,0,-0.0192,0.1934,-0.2858,0.9384,0.0131,0.0046,0.0045,0.0010,-0.0861,-0.0881,-3.3755,-1.4983,8.9965,0.0002,0.0001,0.0001,1.0000,-0.0844,-0.0375,0.2249
57028,Right,0,-0.0395,0.2297,0.4468,0.8638,-0.0053,-0.0085,0.0091,0.0345,0.0120,-0.0267,-4.2036,1.3209,8.7380,-0.0001,-0.0001,0.0001,1.0000,-0.1051,0.0330,0.2184
57029,Pelvis,0,0.1003,-0.6849,-0.0442,0.7204,-0.0549,0.0130,0.0017,0.0448,0.0052,0.0912,9.6865,2.0318,0.3661,-0.0007,0.0002,0.0000,1.0000,0.2422,0.0508,0.0091
57029,Left,0,-0.0191,0.1934,-0.2858,0.9384,0.0124,0.0069,0.0046,0.0031,-0.0772,-0.0563,-3.3898,-1.4936,9.0261,0.0002,0.0001,0.0001,1.0000,-0.0847,-0.0374,0.2257
57029,Right,0,-0.0395,0.2296,0.4469,0.8637,-0.0026,-0.0009,0.0075,0.0351,0.0257,-0.0101,-4.1981,1.3306,8.7578,-0.0000,-0.0000,0.0001,1.0000,-0.1050,0.0333,0.2189
57030,Pelvis,0,0.0997,-0.6847,-0.0446,0.7206,-0.0559,0.0152,0.0054,0.0316,-0.0535,0.0350,9.6423,1.9636,0.3883,-0.0007,0.0002,0.0001,1.0000,0.2411,0.0491,0.0096
57030,Left,0,-0.0191,0.1933,-0.2858,0.9384,0.0116,0.0055,0.0068,-0.0001,-0.0800,-0.0880,-3.3786,-1.4918,8.9964,0.0001,0.0001,0.0001,1.0000,-0.0844,-0.0373,0.2249
57030,Right,0,-0.0395,0.2295,0.4470,0.8637,0.0003,0.0023,0.0050,0.0281,-0.0005,-0.0343,-4.2089,1.3166,8.7275,0.0000,0.0000,0.0001,1.0000,-0.1052,0.0329,0.2182
57031,Pelvis,0,0.0992,-0.6846,-0.0450,0.7207,-0.0517,0.0132,0.0103,0.0090,-0.0297,0.0092,9.6112,1.9818,0.4118,-0.0006,0.0002,0.0001,1.0000,0.2403,0.0496,0.0102
57031,Left,0,-0.0190,0.1933,-0.2858,0.9384,0.0143,0.0048,0.0051,-0.0091,-0.0866,-0.0768,-3.3863,-1.5022,9.0040,0.0002,0.0001,0.0001,1.0000,-0.0846,-0.0376,0.2251
57031,Right,0,-0.0395,0.2295,0.4470,0.8637,-0.0005,0.0027,0.0015,0.0225,0.0285,-0.0356,-4.1894,1.3378,8.7322,-0.0000,0.0000,0.0000,1.0000,-0.1047,0.0334,0.2183
57032,Pelvis,0,0.0986,-0.6845,-0.0453,0.7209,-0.0484,0.0157,0.0123,0.0228,-0.0461,0.0264,9.6325,1.9648,0.4061,-0.0006,0.0002,0.0002,1.0000,0.2408,0.0492,0.0101
57032,Left,0,-0.0190,0.1933,-0.2859,0.9384,0.0137,0.0023,0.0044,-0.0107,-0.0999,-0.0827,-3.3789,-1.5123,8.9988,0.0002,0.0000,0.0001,1.0000,-0.0845,-0.0379,0.2250
57032,Right,0,-0.0395,0.2296,0.4470,0.8637,0.0014,0.0059,0.0051,0.0496,-0.0066,-0.0366,-4.2025,1.2952,8.7314,0.0000,0.0001,0.0001,1.0000,-0.1050,0.0324,0.2183
57033,Pelvis,0,0.0982,-0.6843,-0.0456,0.7211,-0.0407,0.0226,0.0098,0.0218,-0.0555,0.0064,9.6151,1.9490,0.4122,-0.0005,0.0003,0.0001,1.0000,0.2404,0.0488,0.0102
57033,Left,0,-0.0189,0.1933,-0.2858,0.9384,0.0129,0.0056,0.0074,-0.0103,-0.0926,-0.0956,-3.3778,-1.5027,8.9868,0.0002,0.0001,0.0001,1.0000,-0.0844,-0.0376,0.2247
57033,Right,0,-0.0395,0.2296,0.4471,0.8636,0.0021,0.0068,0.0038,0.0166,0.0074,-0.0294,-4.2119,1.3316,8.7293,0.0000,0.0001,0.0000,1.0000,-0.1053,0.0333,0.2182
57034,Pelvis,0,0.0978,-0.6841,-0.0458,0.7214,-0.0282,0.0225,0.0088,0.0180,-0.0162,0.0369,9.6370,1.9912,0.4220,-0.0004,0.0003,0.0001,1.0000,0.2409,0.0498,0.0105
57034,Left,0,-0.0188,0.1934,-0.2858,0.9384,0.0139,0.0067,0.0074,-0.0012,-0.0922,-0.0809,-3.3777,-1.4976,9.0036,0.0002,0.0001,0.0001,1.0000,-0.0844,-0.0375,0.2251
57034,Right,0,-0.0396,0.2297,0.4471,0.8636,-0.0001,0.0074,0.0038,0.0387,0.0063,-0.0011,-4.2153,1.3170,8.7616,-0.0000,0.0001,0.0000,1.0000,-0.1054,0.0329,0.2191
57035,Pelvis,0,0.0975,-0.6839,-0.0458,0.7216,-0.0263,0.0212,0.0199,0.0181,0.0264,0.0464,9.6380,2.0321,0.4261,-0.0003,0.0003,0.0002,1.0000,0.2409,0.0509,0.0106
57035,Left,0,-0.0187,0.1934,-0.2858,0.9384,0.0135,0.0063,0.0064,-0.0032,-0.0865,-0.0723,-3.3867,-1.4939,9.0100,0.0002,0.0001,0.0001,1.0000,-0.0846,-0.0374,0.2253
57035,Right,0,-0.0397,0.2298,0.4471,0.8636,0.0022,0.0115,0.0027,0.0295,-0.0022,-0.0216,-4.2194,1.3162,8.7368,0.0000,0.0001,0.0000,1.0000,-0.1055,0.0329,0.2184
57036,Pelvis,0,0.0969,-0.6836,-0.0459,0.7219,-0.0348,0.0255,0.0298,0.0595,0.1069,0.0264,9.6058,2.0982,0.3861,-0.0004,0.0003,0.0004,1.0000,0.2401,0.0525,0.0096
57036,Left,0,-0.0186,0.1934,-0.2858,0.9384,0.0138,0.0063,0.0058,-0.0205,-0.1054,-0.1031,-3.3785,-1.5131,8.9768,0.0002,0.0001,0.0001,1.0000,-0.0844,-0.0379,0.2244
57036,Right,0,-0.0397,0.2299,0.4471,0.8635,0.0018,0.0119,0.0025,0.0230,0.0160,-0.0089,-4.2156,1.3349,8.7499,0.0000,0.0001,0.0000,1.0000,-0.1054,0.0334,0.2188
57037,Pelvis,0,0.0961,-0.6834,-0.0461,0.7222,-0.0551,0.0243,0.0295,0.0411,0.1236,-0.0098,9.5673,2.1006,0.4094,-0.0007,0.0003,0.0004,1.0000,0.2392,0.0526,0.0101
57037,Left,0,-0.0186,0.1935,-0.2859,0.9383,0.0121,0.0074,0.0073,-0.0276,-0.0689,-0.0759,-3.4156,-1.4899,8.9958,0.0002,0.0001,0.0001,1.0000,-0.0854,-0.0373,0.2249
57037,Right,0,-0.0398,0.2301,0.4471,0.8635,-0.0010,0.0140,0.0011,0.0326,0.0088,-0.0138,-4.2179,1.3218,8.7453,-0.0000,0.0002,0.0000,1.0000,-0.1054,0.0330,0.2187
57038,Pelvis,0,0.0953,-0.6833,-0.0464,0.7224,-0.0658,0.0132,0.0274,0.0624,0.0807,-0.0241,9.5644,2.0474,0.3979,-0.0008,0.0002,0.0003,1.0000,0.2391,0.0513,0.0099
57038,Left,0,-0.0185,0.1935,-0.2859,0.9384,0.0125,0.0034,0.0048,-0.0197,-0.0960,-0.0498,-3.4042,-1.5110,9.0250,0.0002,0.0000,0.0001,1.0000,-0.0851,-0.0378,0.2256
57038,Right,0,-0.0399,0.2302,0.4471,0.8635,-0.0029,0.0160,-0.0003,0.0381,-0.0109,-0.0265,-4.2274,1.3034,8.7293,-0.0000,0.0002,-0.0000,1.0000,-0.1056,0.0326,0.2183
57039,Pelvis,0,0.0946,-0.6834,-0.0469,0.7224,-0.0633,0.0011,0.0205,0.0677,0.0181,-0.0450,9.5575,1.9769,0.3986,-0.0008,0.0000,0.0003,1.0000,0.2389,0.0495,0.0099
57039,Left,0,-0.0184,0.1935,-0.2858,0.9384,0.0137,0.0023,0.0044,-0.0157,-0.0938,-0.0713,-3.3954,-1.5016,9.0067,0.0002,0.0000,0.0001,1.0000,-0.0849,-0.0376,0.2252
57039,Right,0,-0.0400,0.2303,0.4471,0.8634,-0.0036,0.0110,-0.0007,0.0495,-0.0054,-0.0149,-4.2257,1.2989,8.7439,-0.0000,0.0001,-0.0000,1.0000,-0.1056,0.0325,0.2186
57040,Pelvis,0,0.0941,-0.6834,-0.0473,0.7224,-0.0573,-0.0060,0.0124,0.0557,0.0104,-0.0622,9.5418,1.9647,0.4130,-0.0007,-0.0001,0.0002,1.0000,0.2385,0.0492,0.0103
57040,Left,0,-0.0184,0.1935,-0.2859,0.9383,0.0127,0.0002,0.0065,-0.0102,-0.0755,-0.0654,-3.4042,-1.4844,9.0124,0.0002,0.0000,0.0001,1.0000,-0.0851,-0.0372,0.2253
57040,Right,0,-0.0402,0.2304,0.4470,0.8634,-0.0069,0.0043,0.0023,0.0382,-0.0318,-0.0075,-4.2570,1.2909,8.7382,-0.0001,0.0001,0.0000,1.0000,-0.1064,0.0323,0.2185
57041,Pelvis,0,0.0937,-0.6836,-0.0477,0.7222,-0.0498,-0.0123,0.0076,0.0473,-0.0096,-0.0307,9.5763,1.9509,0.4216,-0.0006,-0.0002,0.0001,1.0000,0.2394,0.0488,0.0105
57041,Left,0,-0.0184,0.1935,-0.2860,0.9383,0.0124,-0.0007,0.0034,-0.0029,-0.0785,-0.0825,-3.3897,-1.4812,9.0000,0.0002,-0.0000,0.0000,1.0000,-0.0847,-0.0371,0.2250
57041,Right,0,-0.0403,0.2302,0.4470,0.8635,-0.0079,-0.0029,0.0054,0.0163,-0.0139,0.0024,-4.2580,1.3165,8.7449,-0.0001,-0.0000,0.0001,1.0000,-0.1065,0.0329,0.2186
57042,Pelvis,0,0.0933,-0.6838,-0.0481,0.7221,-0.0392,-0.0158,0.0007,-0.0182,-0.0048,0.0035,9.6052,1.9650,0.4858,-0.0005,-0.0002,0.0000,1.0000,0.2401,0.0491,0.0122
57042,Left,0,-0.0185,0.1933,-0.2860,0.9383,0.0093,-0.0017,0.0032,-0.0094,-0.0872,-0.0798,-3.3886,-1.4922,9.0016,0.0001,-0.0000,0.0000,1.0000,-0.0847,-0.0373,0.2250
57042,Right,0,-0.0403,0.2300,0.4472,0.8634,-0.0090,-0.0073,0.0074,0.0308,0.0064,-0.0227,-4.2220,1.3121,8.7349,-0.0001,-0.0001,0.0001,1.0000,-0.1056,0.0328,0.2184
57043,Pelvis,0,0.0930,-0.6838,-0.0484,0.7221,-0.0353,-0.0117,0.0039,-0.0118,0.0076,0.0121,9.6116,1.9785,0.4783,-0.0004,-0.0001,0.0000,1.0000,0.2403,0.0495,0.0120
57043,Left,0,-0.0185,0.1932,-0.2860,0.9384,0.0111,0.0000,0.0022,-0.0195,-0.0878,-0.0814,-3.3926,-1.4973,8.9975,0.0001,0.0000,0.0000,1.0000,-0.0848,-0.0375,0.2249
57043,Right,0,-0.0404,0.2298,0.4474,0.8634,-0.0101,-0.0033,0.0050,0.0237,0.0195,-0.0406,-4.2047,1.3218,8.7217,-0.0001,-0.0000,0.0001,1.0000,-0.1051,0.0331,0.2180
57044,Pelvis,0,0.0926,-0.6839,-0.0487,0.7220,-0.0343,-0.0036,0.0060,-0.0034,-0.0228,0.0302,9.6362,1.9506,0.4708,-0.0004,-0.0000,0.0001,1.0000,0.2409,0.0488,0.0118
57044,Left,0,-0.0185,0.1930,-0.2861,0.9384,0.0086,-0.0048,0.0024,0.0004,-0.0900,-0.0606,-3.3812,-1.4918,9.0251,0.0001,-0.0001,0.0000,1.0000,-0.0845,-0.0373,0.2256
57044,Right,0,-0.0405,0.2296,0.4474,0.8634,-0.0086,-0.0023,0.0044,0.0370,-0.0035,-0.0276,-4.2193,1.2957,8.7331,-0.0001,-0.0000,0.0001,1.0000,-0.1055,0.0324,0.2183
57045,Pelvis,0,0.0923,-0.6839,-0.0490,0.7220,-0.0294,0.0022,0.0037,-0.0156,-0.0539,0.0530,9.6643,1.9236,0.4864,-0.0004,0.0000,0.0000,1.0000,0.2416,0.0481,0.0121
57045,Left,0,-0.0187,0.1929,-0.2862,0.9384,0.0070,-0.0039,0.0004,-0.0203,-0.0850,-0.0684,-3.3935,-1.4991,9.0109,0.0001,-0.0000,0.0000,1.0000,-0.0848,-0.0375,0.2253
57045,Right,0,-0.0406,0.2295,0.4475,0.8634,-0.0063,-0.0010,0.0045,0.0346,-0.0137,-0.0137,-4.2326,1.2918,8.7429,-0.0001,-0.0000,0.0001,1.0000,-0.1058,0.0323,0.2186
57046,Pelvis,0,0.0921,-0.6839,-0.0492,0.7220,-0.0232,0.0045,0.0035,-0.0215,-0.0902,0.0444,9.6627,1.8865,0.4947,-0.0003,0.0001,0.0000,1.0000,0.2416,0.0472,0.0123
57046,Left,0,-0.0188,0.1928,-0.2863,0.9384,0.0069,-0.0052,-0.0005,-0.0078,-0.0999,-0.0896,-3.3654,-1.5037,8.9978,0.0001,-0.0001,-0.0000,1.0000,-0.0842,-0.0376,0.2249
57046,Right,0,-0.0407,0.2293,0.4476,0.8634,-0.0080,-0.0037,0.0058,0.0242,-0.0084,-0.0176,-4.2299,1.2991,8.7387,-0.0001,-0.0000,0.0001,1.0000,-0.1058,0.0325,0.2185
57047,Pelvis,0,0.0920,-0.6839,-0.0493,0.7221,-0.0163,0.0070,0.0047,-0.0377,-0.0973,0.0176,9.6368,1.8756,0.5106,-0.0002,0.0001,0.0001,1.0000,0.2409,0.0469,0.0127
57047,Left,0,-0.0189,0.1928,-0.2865,0.9383,0.0069,0.0007,0.0025,-0.0138,-0.0992,-0.0912,-3.3690,-1.5097,8.9937,0.0001,0.0000,0.0000,1.0000,-0.0842,-0.0378,0.2248
57047,Right,0,-0.0408,0.2292,0.4475,0.8634,-0.0061,-0.0068,0.0068,0.0283,0.0015,-0.0188,-4.2193,1.2977,8.7427,-0.0001,-0.0001,0.0001,1.0000,-0.1055,0.0325,0.2186
57048,Pelvis,0,0.0918,-0.6839,-0.0494,0.7221,-0.0073,0.0095,0.0007,-0.0579,-0.1191,0.0319,9.6542,1.8562,0.5332,-0.0001,0.0001,0.0000,1.0000,0.2414,0.0464,0.0133
57048,Left,0,-0.0190,0.1927,-0.2865,0.9383,0.0074,0.0024,0.0044,-0.0099,-0.0831,-0.0939,-3.3705,-1.4940,8.9927,0.0001,0.0000,0.0001,1.0000,-0.0843,-0.0374,0.2248
57048,Right,0,-0.0408,0.2289,0.4478,0.8634,-0.0049,-0.0071,0.0077,0.0237,-0.0016,-0.0404,-4.2105,1.2955,8.7231,-0.0001,-0.0001,0.0001,1.0000,-0.1053,0.0324,0.2181
57049,Pelvis,0,0.0919,-0.6838,-0.0493,0.7222,0.0068,0.0077,-0.0021,-0.0488,-0.1587,0.0109,9.6416,1.8137,0.5303,0.0001,0.0001,-0.0000,1.0000,0.2410,0.0453,0.0132
57049,Left,0,-0.0190,0.1926,-0.2866,0.9383,0.0068,0.0028,0.0028,-0.0108,-0.0657,-0.0666,-3.3891,-1.4844,9.0167,0.0001,0.0000,0.0000,1.0000,-0.0847,-0.0371,0.2254
57049,Right,0,-0.0408,0.2287,0.4479,0.8634,-0.0033,-0.0068,0.0091,0.0489,-0.0096,-0.0298,-4.2057,1.2700,8.7411,-0.0000,-0.0001,0.0001,1.0000,-0.1052,0.0317,0.2185
57050,Pelvis,0,0.0921,-0.6838,-0.0491,0.7222,0.0263,0.0136,-0.0034,-0.0141,-0.2175,0.0233,9.6674,1.7572,0.4992,0.0003,0.0002,-0.0000,1.0000,0.2417,0.0439,0.0125
57050,Left,0,-0.0191,0.1926,-0.2866,0.9383,0.0046,0.0022,0.0025,-0.0190,-0.0626,-0.0812,-3.3915,-1.4845,9.0000,0.0001,0.0000,0.0000,1.0000,-0.0848,-0.0371,0.2250
57050,Right,0,-0.0408,0.2286,0.4480,0.8633,0.0015,-0.0023,0.0118,0.0356,-0.0029,-0.0465,-4.1977,1.2825,8.7244,0.0000,-0.0000,0.0001,1.0000,-0.1050,0.0320,0.2181
57051,Pelvis,0,0.0925,-0.6837,-0.0486,0.7223,0.0575,0.0202,0.0019,-0.0089,-0.2460,0.0224,9.6725,1.7278,0.4974,0.0007,0.0003,0.0000,1.0000,0.2418,0.0432,0.0124
57051,Left,0,-0.0190,0.1927,-0.2866,0.9383,0.0048,0.0014,0.0031,-0.0234,-0.0934,-0.0928,-3.3755,-1.5107,8.9894,0.0001,0.0000,0.0000,1.0000,-0.0844,-0.0378,0.2247
57051,Right,0,-0.0407,0.2287,0.4481,0.8633,0.0051,0.0021,0.0088,0.0311,0.0086,0.0018,-4.2120,1.3013,8.7687,0.0001,0.0000,0.0001,1.0000,-0.1053,0.0325,0.2192
57052,Pelvis,0,0.0932,-0.6835,-0.0478,0.7224,0.0817,0.0212,0.0102,-0.0214,-0.1857,0.0243,9.6617,1.7875,0.5073,0.0010,0.0003,0.0001,1.0000,0.2415,0.0447,0.0127
57052,Left,0,-0.0191,0.1926,-0.2866,0.9383,0.0041,0.0008,0.0041,-0.0271,-0.0679,-0.0699,-3.3988,-1.4956,9.0077,0.0001,0.0000,0.0001,1.0000,-0.0850,-0.0374,0.2252
57052,Right,0,-0.0407,0.2287,0.4482,0.8632,0.0043,0.0042,0.0114,0.0180,-0.0020,-0.0404,-4.2073,1.3002,8.7239,0.0001,0.0001,0.0001,1.0000,-0.1052,0.0325,0.2181
57053,Pelvis,0,0.0939,-0.6835,-0.0468,0.7223,0.0939,0.0186,0.0123,-0.0166,-0.0796,0.0216,9.6390,1.8880,0.4939,0.0012,0.0002,0.0002,1.0000,0.2410,0.0472,0.0123
57053,Left,0,-0.0191,0.1926,-0.2867,0.9383,0.0047,0.0001,0.0022,-0.0252,-0.0848,-0.0842,-3.3834,-1.5081,8.9960,0.0001,0.0000,0.0000,1.0000,-0.0846,-0.0377,0.2249
57053,Right,0,-0.0406,0.2288,0.4483,0.8632,0.0051,0.0033,0.0117,0.0310,-0.0085,-0.0237,-4.2145,1.2909,8.7406,0.0001,0.0000,0.0001,1.0000,-0.1054,0.0322,0.2185
57054,Pelvis,0,0.0946,-0.6834,-0.0460,0.7224,0.0836,0.0187,0.0103,-0.0134,0.0215,0.0397,9.6375,1.9884,0.4851,0.0010,0.0002,0.0001,1.0000,0.2409,0.0497,0.0121
57054,Left,0,-0.0192,0.1926,-0.2867,0.9383,0.0054,-0.0022,0.0021,-0.0286,-0.0844,-0.0627,-3.3928,-1.5128,9.0150,0.0001,-0.0000,0.0000,1.0000,-0.0848,-0.0378,0.2254
57054,Right,0,-0.0406,0.2289,0.4484,0.8631,0.0045,0.0042,0.0131,0.0102,-0.0060,-0.0304,-4.2199,1.3104,8.7275,0.0001,0.0001,0.0002,1.0000,-0.1055,0.0327,0.2182
57055,Pelvis,0,0.0951,-0.6833,-0.0453,0.7225,0.0690,0.0193,0.0102,-0.0486,0.0507,0.0168,9.6076,2.0125,0.5161,0.0009,0.0002,0.0001,1.0000,0.2402,0.0503,0.0129
57055,Left,0,-0.0193,0.1927,-0.2869,0.9382,0.0051,-0.0047,0.0008,-0.0214,-0.0844,-0.0712,-3.3848,-1.5116,9.0090,0.0001,-0.0001,0.0000,1.0000,-0.0846,-0.0378,0.2252
57055,Right,0,-0.0406,0.2290,0.4484,0.8631,0.0036,0.0032,0.0127,0.0368,0.0060,0.0057,-4.2157,1.3020,8.7712,0.0000,0.0000,0.0002,1.0000,-0.1054,0.0325,0.2193
57056,Pelvis,0,0.0954,-0.6832,-0.0447,0.7225,0.0490,0.0158,0.0107,-0.0026,0.1020,-0.0040,9.5806,2.0532,0.4664,0.0006,0.0002,0.0001,1.0000,0.2395,0.0514,0.0116
57056,Left,0,-0.0193,0.1925,-0.2869,0.9382,0.0097,-0.0072,0.0011,-0.0191,-0.0951,-0.0538,-3.3807,-1.5220,9.0277,0.0001,-0.0001,0.0000,1.0000,-0.0845,-0.0381,0.2257
57056,Right,0,-0.0406,0.2290,0.4484,0.8631,0.0029,-0.0008,0.0127,0.0184,-0.0058,-0.0048,-4.2294,1.3082,8.7519,0.0000,-0.0000,0.0002,1.0000,-0.1057,0.0327,0.2188
57057,Pelvis,0,0.0956,-0.6833,-0.0444,0.7225,0.0325,0.0091,0.0088,-0.0345,0.0746,-0.0070,9.5816,2.0254,0.4996,0.0004,0.0001,0.0001,1.0000,0.2395,0.0507,0.0125
57057,Left,0,-0.0194,0.1924,-0.2870,0.9382,0.0065,-0.0137,0.0001,-0.0120,-0.0855,-0.0436,-3.3817,-1.5124,9.0399,0.0001,-0.0002,0.0000,1.0000,-0.0846,-0.0378,0.2260
57057,Right,0,-0.0406,0.2289,0.4485,0.8630,0.0017,-0.0033,0.0130,0.0377,-0.0080,0.0019,-4.2235,1.2929,8.7646,0.0000,-0.0000,0.0002,1.0000,-0.1056,0.0323,0.2191
57058,Pelvis,0,0.0959,-0.6833,-0.0441,0.7225,0.0235,0.0006,0.0057,-0.0332,0.0300,-0.0070,9.5905,1.9812,0.5002,0.0003,0.0000,0.0001,1.0000,0.2398,0.0495,0.0125
57058,Left,0,-0.0195,0.1921,-0.2870,0.9383,0.0070,-0.0181,0.0003,-0.0320,-0.0975,-0.0786,-3.3734,-1.5278,9.0027,0.0001,-0.0002,0.0000,1.0000,-0.0844,-0.0382,0.2250
57058,Right,0,-0.0404,0.2289,0.4487,0.8629,-0.0008,-0.0084,0.0120,0.0292,-0.0054,-0.0237,-4.2126,1.3008,8.7400,-0.0000,-0.0001,0.0002,1.0000,-0.1053,0.0325,0.2185
57059,Pelvis,0,0.0960,-0.6833,-0.0439,0.7224,0.0237,-0.0007,0.0080,-0.0541,0.0192,-0.0224,9.5765,1.9685,0.5197,0.0003,-0.0000,0.0001,1.0000,0.2394,0.0492,0.0130
57059,Left,0,-0.0198,0.1918,-0.2873,0.9382,0.0112,-0.0220,-0.0026,-0.0160,-0.1035,-0.0680,-3.3547,-1.5304,9.0208,0.0001,-0.0003,-0.0000,1.0000,-0.0839,-0.0383,0.2255
57059,Right,0,-0.0405,0.2287,0.4487,0.8630,0.0019,-0.0085,0.0126,0.0439,-0.0036,-0.0081,-4.2078,1.2902,8.7614,0.0000,-0.0001,0.0002,1.0000,-0.1052,0.0322,0.2190
57060,Pelvis,0,0.0962,-0.6833,-0.0437,0.7224,0.0159,-0.0025,0.0071,-0.0366,0.0584,0.0035,9.5953,2.0104,0.4997,0.0002,-0.0000,0.0001,1.0000,0.2399,0.0503,0.0125
57060,Left,0,-0.0199,0.1915,-0.2875,0.9382,0.0141,-0.0197,-0.0010,-0.0249,-0.1230,-0.1286,-3.3233,-1.5447,8.9648,0.0002,-0.0002,-0.0000,1.0000,-0.0831,-0.0387,0.2241
57060,Right,0,-0.0404,0.2285,0.4489,0.8629,0.0031,-0.0088,0.0134,0.0204,0.0128,-0.0199,-4.1992,1.3171,8.7482,0.0000,-0.0001,0.0002,1.0000,-0.1050,0.0329,0.2187
57061,Pelvis,0,0.0961,-0.6834,-0.0436,0.7224,0.0050,-0.0022,0.0101,0.0018,0.0998,0.0246,9.6108,2.0507,0.4584,0.0001,-0.0000,0.0001,1.0000,0.2403,0.0513,0.0115
57061,Left,0,-0.0200,0.1912,-0.2876,0.9382,0.0165,-0.0145,0.0009,-0.0167,-0.1244,-0.1009,-3.3199,-1.5458,8.9957,0.0002,-0.0002,0.0000,1.0000,-0.0830,-0.0387,0.2249
57061,Right,0,-0.0404,0.2284,0.4489,0.8630,0.0043,-0.0077,0.0095,0.0393,-0.0025,-0.0081,-4.2033,1.2941,8.7630,0.0001,-0.0001,0.0001,1.0000,-0.1051,0.0323,0.2191
57062,Pelvis,0,0.0959,-0.6836,-0.0436,0.7223,-0.0129,-0.0096,0.0109,-0.0066,0.1307,0.0256,9.6061,2.0783,0.4608,-0.0002,-0.0001,0.0001,1.0000,0.2401,0.0520,0.0115
57062,Left,0,-0.0200,0.1910,-0.2877,0.9383,0.0208,-0.0037,0.0045,-0.0338,-0.1174,-0.1302,-3.3216,-1.5445,8.9637,0.0003,-0.0000,0.0001,1.0000,-0.0830,-0.0387,0.2241
57062,Right,0,-0.0403,0.2282,0.4490,0.8629,0.0027,-0.0077,0.0105,0.0301,0.0123,-0.0259,-4.1854,1.3070,8.7496,0.0000,-0.0001,0.0001,1.0000,-0.1047,0.0327,0.2187
57063,Pelvis,0,0.0955,-0.6838,-0.0438,0.7221,-0.0302,-0.0175,0.0061,0.0333,0.0678,-0.0029,9.5936,2.0057,0.4203,-0.0004,-0.0002,0.0001,1.0000,0.2398,0.0502,0.0105
57063,Left,0,-0.0198,0.1910,-0.2877,0.9383,0.0241,0.0078,0.0092,-0.0206,-0.1132,-0.0923,-3.3260,-1.5357,9.0044,0.0003,0.0001,0.0001,1.0000,-0.0831,-0.0385,0.2251
57063,Right,0,-0.0403,0.2280,0.4492,0.8629,0.0017,-0.0058,0.0090,0.0205,0.0024,-0.0464,-4.1857,1.3071,8.7265,0.0000,-0.0001,0.0001,1.0000,-0.1047,0.0327,0.2182
57064,Pelvis,0,0.0951,-0.6840,-0.0442,0.7219,-0.0445,-0.0200,0.0022,0.0398,0.0808,0.0152,9.6096,2.0207,0.4098,-0.0006,-0.0002,0.0000,1.0000,0.2402,0.0505,0.0103
57064,Left,0,-0.0196,0.1909,-0.2878,0.9383,0.0234,0.0064,0.0066,-0.0173,-0.0794,-0.0593,-3.3540,-1.5081,9.0339,0.0003,0.0001,0.0001,1.0000,-0.0838,-0.0378,0.2258
57064,Right,0,-0.0403,0.2279,0.4493,0.8629,0.0002,-0.0049,0.0104,0.0261,0.0027,-0.0120,-4.1959,1.3070,8.7602,0.0000,-0.0001,0.0001,1.0000,-0.1049,0.0327,0.2190
57065,Pelvis,0,0.0945,-0.6842,-0.0449,0.7218,-0.0667,-0.0234,-0.0002,0.0337,0.1155,0.0762,9.6625,2.0662,0.4140,-0.0008,-0.0003,-0.0000,1.0000,0.2416,0.0517,0.0104
57065,Left,0,-0.0196,0.1909,-0.2878,0.9383,0.0171,0.0014,0.0072,-0.0109,-0.0871,-0.0633,-3.3428,-1.5091,9.0336,0.0002,0.0000,0.0001,1.0000,-0.0836,-0.0378,0.2258
57065,Right,0,-0.0402,0.2279,0.4493,0.8629,0.0034,-0.0039,0.0080,0.0126,0.0145,0.0018,-4.1976,1.3269,8.7718,0.0000,-0.0000,0.0001,1.0000,-0.1050,0.0332,0.2193
57066,Pelvis,0,0.0937,-0.6843,-0.0456,0.7217,-0.0786,-0.0211,0.0029,0.0293,0.0489,0.0380,9.6379,1.9934,0.4201,-0.0010,-0.0003,0.0000,1.0000,0.2409,0.0499,0.0105
57066,Left,0,-0.0196,0.1907,-0.2879,0.9383,0.0195,0.0007,0.0061,-0.0117,-0.0818,-0.0633,-3.3433,-1.5044,9.0342,0.0002,0.0000,0.0001,1.0000,-0.0836,-0.0377,0.2258
57066,Right,0,-0.0402,0.2276,0.4495,0.8628,0.0001,-0.0051,0.0080,0.0307,-0.0072,-0.0169,-4.1930,1.2962,8.7577,0.0000,-0.0001,0.0001,1.0000,-0.1048,0.0324,0.2189
57067,Pelvis,0,0.0929,-0.6845,-0.0463,0.7216,-0.0791,-0.0229,-0.0010,0.0510,-0.0228,-0.0058,9.6108,1.9108,0.4007,-0.0010,-0.0003,-0.0000,1.0000,0.2403,0.0478,0.0100
57067,Left,0,-0.0194,0.1905,-0.2879,0.9383,0.0181,-0.0001,0.0053,-0.0156,-0.0908,-0.0820,-3.3330,-1.5075,9.0174,0.0002,-0.0000,0.0001,1.0000,-0.0833,-0.0377,0.2254
57067,Right,0,-0.0401,0.2275,0.4497,0.8628,0.0011,-0.0066,0.0127,0.0240,0.0119,-0.0042,-4.1851,1.3154,8.7727,0.0000,-0.0001,0.0002,1.0000,-0.1047,0.0329,0.2193
57068,Pelvis,0,0.0924,-0.6845,-0.0470,0.7216,-0.0672,-0.0200,-0.0061,-0.0020,-0.0756,-0.0232,9.6005,1.8607,0.4563,-0.0008,-0.0002,-0.0001,1.0000,0.2400,0.0465,0.0114
57068,Left,0,-0.0195,0.1904,-0.2881,0.9383,0.0152,-0.0039,0.0041,-0.0291,-0.0770,-0.0795,-3.3492,-1.5048,9.0144,0.0002,-0.0000,0.0001,1.0000,-0.0837,-0.0377,0.2253
57068,Right,0,-0.0401,0.2272,0.4498,0.8628,0.0024,-0.0120,0.0131,0.0056,-0.0264,-0.0046,-4.2191,1.3058,8.7575,0.0000,-0.0001,0.0002,1.0000,-0.1055,0.0326,0.2189
57069,Pelvis,0,0.0919,-0.6846,-0.0477,0.7215,-0.0652,-0.0189,-0.0083,-0.0053,-0.0016,-0.0031,9.6054,1.9384,0.4548,-0.0008,-0.0002,-0.0001,1.0000,0.2401,0.0484,0.0114
57069,Left,0,-0.0195,0.1903,-0.2881,0.9383,0.0163,-0.0028,0.0041,-0.0184,-0.0887,-0.0920,-3.3289,-1.5071,9.0081,0.0002,-0.0000,0.0001,1.0000,-0.0832,-0.0377,0.2252
57069,Right,0,-0.0400,0.2271,0.4500,0.8627,0.0010,-0.0139,0.0157,0.0048,0.0353,-0.0172,-4.1638,1.3434,8.7641,0.0000,-0.0002,0.0002,1.0000,-0.1041,0.0336,0.2191
57070,Pelvis,2,0.0913,-0.6848,-0.0484,0.7214,-0.0707,-0.0160,-0.0093,0.0015,0.0773,0.0341,9.6267,2.0241,0.4422,-0.0009,-0.0002,-0.0001,1.0000,0.2407,0.0506,0.0111
57070,Left,2,-0.0195,0.1901,-0.2881,0.9383,0.0182,-0.0047,0.0032,-0.0233,-0.0866,-0.0705,-3.3378,-1.5089,9.0278,0.0002,-0.0001,0.0000,1.0000,-0.0835,-0.0378,0.2257
57070,Right,2,-0.0398,0.2268,0.4502,0.8627,-0.0001,-0.0169,0.0128,0.0365,0.0065,-0.0191,-4.1634,1.3016,8.7685,-0.0000,-0.0002,0.0002,1.0000,-0.1041,0.0325,0.2192
57071,Pelvis,2,0.0907,-0.6848,-0.0492,0.7214,-0.0772,-0.0122,-0.0144,-0.0013,0.0548,0.0151,9.6117,2.0010,0.4461,-0.0010,-0.0002,-0.0002,1.0000,0.2403,0.0500,0.0111
57071,Left,2,-0.0194,0.1900,-0.2883,0.9383,0.0199,-0.0075,0.0036,-0.0175,-0.0867,-0.0790,-3.3292,-1.5044,9.0225,0.0002,-0.0001,0.0000,1.0000,-0.0833,-0.0377,0.2255
57071,Right,2,-0.0398,0.2267,0.4502,0.8627,0.0011,-0.0141,0.0149,0.0293,0.0013,-0.0180,-4.1688,1.3036,8.7669,0.0000,-0.0002,0.0002,1.0000,-0.1043,0.0326,0.2192
57072,Pelvis,2,0.0901,-0.6849,-0.0501,0.7213,-0.0770,-0.0137,-0.0157,0.0433,0.0450,0.0352,9.6355,1.9950,0.4032,-0.0010,-0.0002,-0.0002,1.0000,0.2409,0.0498,0.0101
57072,Left,2,-0.0194,0.1896,-0.2884,0.9383,0.0248,-0.0084,0.0028,-0.0228,-0.0724,-0.0834,-3.3326,-1.4930,9.0183,0.0003,-0.0001,0.0000,1.0000,-0.0833,-0.0374,0.2254
57072,Right,2,-0.0397,0.2263,0.4505,0.8627,0.0030,-0.0125,0.0149,0.0238,0.0266,-0.0065,-4.1498,1.3231,8.7859,0.0000,-0.0002,0.0002,1.0000,-0.1038,0.0331,0.2196
57073,Pelvis,2,0.0894,-0.6849,-0.0509,0.7213,-0.0777,-0.0132,-0.0146,0.0377,-0.0030,0.0371,9.6458,1.9511,0.4126,-0.0010,-0.0002,-0.0002,1.0000,0.2412,0.0487,0.0103
57073,Left,2,-0.0193,0.1895,-0.2885,0.9383,0.0231,-0.0012,0.0060,-0.0094,-0.1264,-0.1328,-3.2736,-1.5213,8.9824,0.0003,-0.0000,0.0001,1.0000,-0.0818,-0.0381,0.2245
57073,Right,2,-0.0397,0.2261,0.4506,0.8627,0.0041,-0.0081,0.0130,0.0231,0.0094,-0.0319,-4.1489,1.3106,8.7597,0.0001,-0.0001,0.0002,1.0000,-0.1037,0.0327,0.2190
57074,Pelvis,2,0.0888,-0.6849,-0.0517,0.7213,-0.0787,-0.0149,-0.0091,0.0184,-0.0008,0.0017,9.6090,1.9503,0.4325,-0.0010,-0.0002,-0.0001,1.0000,0.2402,0.0487,0.0108
57074,Left,2,-0.0191,0.1895,-0.2885,0.9383,0.0254,0.0112,0.0075,-0.0075,-0.0931,-0.0999,-3.3011,-1.4936,9.0121,0.0003,0.0001,0.0001,1.0000,-0.0825,-0.0374,0.2253
57074,Right,2,-0.0396,0.2260,0.4507,0.8627,0.0066,-0.0101,0.0110,-0.0018,0.0080,0.0058,-4.1748,1.3345,8.7859,0.0001,-0.0001,0.0001,1.0000,-0.1044,0.0333,0.2196
57075,Pelvis,2,0.0882,-0.6850,-0.0525,0.7213,-0.0786,-0.0156,-0.0102,0.0126,0.0372,0.0227,9.6212,1.9944,0.4380,-0.0010,-0.0002,-0.0001,1.0000,0.2405,0.0498,0.0109
57075,Left,2,-0.0189,0.1897,-0.2886,0.9383,0.0193,0.0084,0.0078,-0.0169,-0.0769,-0.0659,-3.3328,-1.4875,9.0381,0.0002,0.0001,0.0001,1.0000,-0.0833,-0.0373,0.2260
57075,Right,2,-0.0395,0.2260,0.4507,0.8627,0.0049,-0.0104,0.0096,0.0250,-0.0048,-0.0357,-4.1527,1.3024,8.7549,0.0001,-0.0001,0.0001,1.0000,-0.1039,0.0325,0.2189
57076,Pelvis,2,0.0875,-0.6851,-0.0535,0.7212,-0.0895,-0.0157,-0.0135,0.0086,0.0673,0.0332,9.6248,2.0283,0.4412,-0.0011,-0.0002,-0.0002,1.0000,0.2406,0.0507,0.0110
57076,Left,2,-0.0189,0.1895,-0.2886,0.9383,0.0199,0.0090,0.0068,-0.0253,-0.0597,-0.0618,-3.3474,-1.4763,9.0388,0.0002,0.0001,0.0001,1.0000,-0.0837,-0.0370,0.2260
57076,Right,2,-0.0393,0.2257,0.4510,0.8626,0.0061,-0.0123,0.0128,0.0028,0.0093,-0.0259,-4.1506,1.3316,8.7625,0.0001,-0.0002,0.0002,1.0000,-0.1038,0.0333,0.2190
57077,Pelvis,2,0.0867,-0.6850,-0.0545,0.7213,-0.1044,-0.0085,-0.0133,0.0228,0.0633,0.0304,9.6230,2.0258,0.4302,-0.0013,-0.0001,-0.0002,1.0000,0.2406,0.0506,0.0107
57077,Left,2,-0.0189,0.1896,-0.2888,0.9382,0.0152,0.0038,0.0053,-0.0156,-0.0682,-0.0658,-3.3367,-1.4780,9.0382,0.0002,0.0000,0.0001,1.0000,-0.0834,-0.0370,0.2260
57077,Right,2,-0.0393,0.2256,0.4510,0.8627,0.0041,-0.0101,0.0121,0.0228,0.0186,-0.0330,-4.1289,1.3196,8.7666,0.0001,-0.0001,0.0002,1.0000,-0.1033,0.0330,0.2192
57078,Pelvis,2,0.0858,-0.6849,-0.0556,0.7214,-0.1086,-0.0038,-0.0140,0.0227,-0.0425,0.0617,9.6737,1.9314,0.4414,-0.0014,-0.0000,-0.0002,1.0000,0.2419,0.0483,0.0110
57078,Left,2,-0.0188,0.1895,-0.2888,0.9383,0.0144,0.0025,0.0062,-0.0204,-0.1001,-0.0856,-3.3138,-1.5020,9.0216,0.0002,0.0000,0.0001,1.0000,-0.0828,-0.0376,0.2255
57078,Right,2,-0.0392,0.2254,0.4511,0.8627,0.0031,-0.0053,0.0094,0.0257,0.0210,-0.0647,-4.1082,1.3139,8.7419,0.0000,-0.0001,0.0001,1.0000,-0.1027,0.0328,0.2185
57079,Pelvis,2,0.0850,-0.6848,-0.0565,0.7216,-0.0920,0.0019,-0.0114,0.0648,-0.1398,0.0341,9.6678,1.8301,0.4095,-0.0011,0.0000,-0.0001,1.0000,0.2417,0.0457,0.0102
57079,Left,2,-0.0189,0.1894,-0.2890,0.9382,0.0159,0.0055,0.0066,-0.0159,-0.0909,-0.1070,-3.3054,-1.4922,9.0031,0.0002,0.0001,0.0001,1.0000,-0.0826,-0.0374,0.2251
57079,Right,2,-0.0394,0.2252,0.4511,0.8627,0.0039,0.0013,0.0075,0.0197,0.0263,-0.0342,-4.1170,1.3226,8.7705,0.0000,0.0000,0.0001,1.0000,-0.1029,0.0330,0.2193
57080,Pelvis,2,0.0845,-0.6847,-0.0572,0.7217,-0.0627,0.0065,-0.0055,0.0722,-0.1580,0.0227,9.6600,1.8121,0.4069,-0.0008,0.0001,-0.0001,1.0000,0.2415,0.0453,0.0101
57080,Left,2,-0.0188,0.1895,-0.2890,0.9382,0.0165,0.0177,0.0087,0.0121,-0.1104,-0.1434,-3.2626,-1.4869,8.9807,0.0002,0.0002,0.0001,1.0000,-0.0815,-0.0372,0.2245
57080,Right,2,-0.0393,0.2253,0.4512,0.8627,0.0067,0.0058,0.0062,0.0083,0.0209,-0.0458,-4.1222,1.3282,8.7542,0.0001,0.0001,0.0001,1.0000,-0.1030,0.0332,0.2189
57081,Pelvis,2,0.0841,-0.6846,-0.0574,0.7218,-0.0319,0.0086,-0.0039,0.0194,-0.1106,0.0636,9.6878,1.8669,0.4626,-0.0004,0.0001,-0.0000,1.0000,0.2422,0.0467,0.0115
57081,Left,2,-0.0186,0.1899,-0.2889,0.9381,0.0156,0.0383,0.0157,-0.0063,-0.1392,-0.1477,-3.2642,-1.5175,8.9706,0.0002,0.0005,0.0002,1.0000,-0.0815,-0.0380,0.2243
57081,Right,2,-0.0393,0.2253,0.4513,0.8626,0.0084,0.0152,0.0030,0.0259,-0.0057,-0.0200,-4.1444,1.3027,8.7763,0.0001,0.0002,0.0000,1.0000,-0.1036,0.0325,0.2194
57082,Pelvis,2,0.0840,-0.6845,-0.0576,0.7218,-0.0168,0.0149,-0.0009,-0.0552,-0.0712,0.0490,9.6614,1.9055,0.5366,-0.0002,0.0002,-0.0000,1.0000,0.2415,0.0476,0.0134
57082,Left,2,-0.0185,0.1903,-0.2888,0.9381,0.0105,0.0488,0.0192,-0.0196,-0.0813,-0.0854,-3.3351,-1.4847,9.0166,0.0001,0.0006,0.0002,1.0000,-0.0832,-0.0372,0.2255
57082,Right,2,-0.0393,0.2255,0.4514,0.8625,0.0110,0.0177,0.0076,0.0065,0.0414,-0.0432,-4.1096,1.3453,8.7605,0.0001,0.0002,0.0001,1.0000,-0.1027,0.0336,0.2190
57083,Pelvis,2,0.0839,-0.6843,-0.0577,0.7221,-0.0119,0.0249,-0.0036,-0.0540,-0.0397,-0.0214,9.5860,1.9218,0.5367,-0.0001,0.0003,-0.0000,1.0000,0.2397,0.0480,0.0133
57083,Left,2,-0.0183,0.1908,-0.2887,0.9380,0.0096,0.0484,0.0194,-0.0190,-0.0969,-0.0995,-3.3312,-1.4948,9.0014,0.0001,0.0006,0.0002,1.0000,-0.0831,-0.0374,0.2251
57083,Right,2,-0.0393,0.2256,0.4515,0.8624,0.0071,0.0143,0.0077,0.0155,-0.0166,-0.0405,-4.1533,1.3068,8.7486,0.0001,0.0002,0.0001,1.0000,-0.1038,0.0326,0.2187
57084,Pelvis,2,0.0838,-0.6839,-0.0578,0.7224,-0.0064,0.0315,-0.0049,-0.0291,-0.0291,0.0034,9.6091,1.9367,0.5219,-0.0001,0.0004,-0.0001,1.0000,0.2402,0.0484,0.0129
57084,Left,2,-0.0181,0.1914,-0.2886,0.9380,0.0078,0.0533,0.0194,-0.0215,-0.0898,-0.0910,-3.3507,-1.4911,9.0039,0.0001,0.0007,0.0002,1.0000,-0.0836,-0.0373,0.2251
57084,Right,2,-0.0393,0.2258,0.4515,0.8623,0.0062,0.0140,0.0046,-0.0436,0.0119,0.0078,-4.1833,1.3790,8.7773,0.0001,0.0002,0.0001,1.0000,-0.1045,0.0345,0.2195
57085,Pelvis,2,0.0839,-0.6836,-0.0579,0.7227,-0.0085,0.0314,-0.0033,-0.0243,-0.0173,0.0120,9.6146,1.9523,0.5241,-0.0001,0.0004,-0.0000,1.0000,0.2404,0.0488,0.0130
57085,Left,2,-0.0180,0.1919,-0.2885,0.9379,0.0088,0.0503,0.0180,-0.0398,-0.0543,-0.0660,-3.4024,-1.4750,9.0140,0.0001,0.0006,0.0002,1.0000,-0.0849,-0.0369,0.2254
57085,Right,2,-0.0393,0.2256,0.4517,0.8623,0.0028,0.0053,0.0051,0.0184,-0.0093,-0.0200,-4.1560,1.3118,8.7695,0.0000,0.0001,0.0001,1.0000,-0.1039,0.0328,0.2192
57086,Pelvis,2,0.0839,-0.6834,-0.0580,0.7229,-0.0053,0.0242,-0.0040,0.0391,-0.0140,-0.0020,9.6033,1.9518,0.4665,-0.0001,0.0003,-0.0001,1.0000,0.2401,0.0488,0.0116
57086,Left,2,-0.0178,0.1925,-0.2884,0.9378,0.0087,0.0489,0.0185,-0.0257,-0.0804,-0.0609,-3.3920,-1.4898,9.0211,0.0001,0.0006,0.0002,1.0000,-0.0847,-0.0373,0.2256
57086,Right,2,-0.0393,0.2258,0.4517,0.8622,0.0036,0.0075,0.0067,0.0115,0.0086,-0.0290,-4.1437,1.3291,8.7626,0.0000,0.0001,0.0001,1.0000,-0.1036,0.0332,0.2191
57087,Pelvis,2,0.0839,-0.6833,-0.0581,0.7230,-0.0044,0.0136,-0.0062,0.0439,0.0125,-0.0134,9.5867,1.9765,0.4646,-0.0001,0.0002,-0.0001,1.0000,0.2397,0.0494,0.0116
57087,Left,2,-0.0177,0.1929,-0.2882,0.9378,0.0091,0.0465,0.0190,-0.0413,-0.0644,-0.0715,-3.4174,-1.4817,9.0012,0.0001,0.0006,0.0002,1.0000,-0.0853,-0.0371,0.2251
57087,Right,2,-0.0392,0.2257,0.4520,0.8621,0.0027,0.0076,0.0067,0.0112,0.0150,-0.0430,-4.1314,1.3331,8.7523,0.0000,0.0001,0.0001,1.0000,-0.1033,0.0333,0.2188
57088,Pelvis,2,0.0839,-0.6833,-0.0582,0.7230,-0.0023,0.0039,-0.0118,0.0415,0.0091,0.0171,9.6168,1.9804,0.4706,-0.0000,0.0000,-0.0001,1.0000,0.2404,0.0495,0.0118
57088,Left,2,-0.0175,0.1932,-0.2879,0.9378,0.0090,0.0378,0.0155,-0.0244,-0.0437,-0.0497,-3.4300,-1.4549,9.0243,0.0001,0.0005,0.0002,1.0000,-0.0856,-0.0364,0.2256
57088,Right,2,-0.0391,0.2256,0.4523,0.8620,0.0038,0.0071,0.0051,-0.0008,-0.0076,-0.0496,-4.1487,1.3304,8.7371,0.0000,0.0001,0.0001,1.0000,-0.1037,0.0332,0.2184
57089,Pelvis,2,0.0841,-0.6833,-0.0583,0.7230,0.0091,0.0043,-0.0210,0.0337,-0.0913,-0.0202,9.5991,1.8783,0.4808,0.0001,0.0001,-0.0003,1.0000,0.2400,0.0469,0.0120
57089,Left,2,-0.0172,0.1935,-0.2878,0.9378,0.0111,0.0317,0.0141,-0.0362,-0.0425,-0.0428,-3.4499,-1.4589,9.0235,0.0001,0.0004,0.0002,1.0000,-0.0862,-0.0365,0.2256
57089,Right,2,-0.0391,0.2256,0.4525,0.8619,0.0039,0.0044,0.0087,0.0061,-0.0221,-0.0100,-4.1727,1.3231,8.7710,0.0000,0.0001,0.0001,1.0000,-0.1043,0.0331,0.2193
57090,Pelvis,2,0.0845,-0.6832,-0.0583,0.7230,0.0167,0.0125,-0.0132,0.0129,-0.0064,0.0131,9.6124,1.9744,0.5001,0.0002,0.0002,-0.0002,1.0000,0.2403,0.0493,0.0125
57090,Left,2,-0.0172,0.1938,-0.2877,0.9377,0.0072,0.0167,0.0094,-0.0328,-0.0412,-0.0428,-3.4557,-1.4558,9.0218,0.0001,0.0002,0.0001,1.0000,-0.0863,-0.0364,0.2256
57090,Right,2,-0.0390,0.2258,0.4525,0.8618,0.0045,0.0035,0.0074,0.0001,0.0233,-0.0076,-4.1442,1.3583,8.7819,0.0001,0.0000,0.0001,1.0000,-0.1036,0.0339,0.2196
57091,Pelvis,2,0.0845,-0.6831,-0.0583,0.7231,0.0079,0.0043,-0.0079,-0.0417,0.1011,0.0940,9.6664,2.0991,0.5564,0.0001,0.0001,-0.0001,1.0000,0.2417,0.0525,0.0139
57091,Left,2,-0.0171,0.1941,-0.2878,0.9377,0.0047,0.0137,0.0064,-0.0088,-0.0752,-0.0762,-3.4127,-1.4667,9.0004,0.0001,0.0002,0.0001,1.0000,-0.0853,-0.0367,0.2250
57091,Right,2,-0.0390,0.2259,0.4525,0.8618,0.0066,0.0069,0.0134,0.0168,-0.0157,-0.0200,-4.1625,1.3214,8.7650,0.0001,0.0001,0.0002,1.0000,-0.1040,0.0330,0.2191
57092,Pelvis,2,0.0846,-0.6830,-0.0584,0.7231,-0.0057,0.0079,-0.0069,-0.0166,0.1239,0.0084,9.5790,2.1056,0.5278,-0.0001,0.0001,-0.0001,1.0000,0.2395,0.0526,0.0132
57092,Left,2,-0.0173,0.1941,-0.2879,0.9376,0.0036,0.0127,0.0064,-0.0323,-0.0878,-0.0764,-3.4232,-1.4942,8.9918,0.0000,0.0002,0.0001,1.0000,-0.0855,-0.0374,0.2248
57092,Right,2,-0.0390,0.2258,0.4527,0.8617,0.0048,0.0037,0.0115,0.0157,0.0070,-0.0173,-4.1451,1.3363,8.7739,0.0001,0.0000,0.0001,1.0000,-0.1036,0.0334,0.2194
57093,Pelvis,2,0.0844,-0.6828,-0.0587,0.7233,-0.0260,0.0127,-0.0081,-0.0243,0.1620,0.0198,9.5813,2.1479,0.5386,-0.0003,0.0002,-0.0001,1.0000,0.2395,0.0537,0.0134
57093,Left,2,-0.0175,0.1945,-0.2882,0.9375,0.0037,0.0080,0.0043,-0.0202,-0.0760,-0.0663,-3.4290,-1.4851,9.0020,0.0000,0.0001,0.0001,1.0000,-0.0857,-0.0371,0.2251
57093,Right,2,-0.0391,0.2259,0.4525,0.8618,0.0045,0.0019,0.0097,0.0224,0.0032,-0.0222,-4.1451,1.3250,8.7703,0.0001,0.0000,0.0001,1.0000,-0.1036,0.0331,0.2193
57094,Pelvis,2,0.0841,-0.6827,-0.0592,0.7234,-0.0445,0.0153,-0.0087,-0.0212,0.1617,0.0389,9.5995,2.1534,0.5407,-0.0006,0.0002,-0.0001,1.0000,0.2400,0.0538,0.0134
57094,Left,2,-0.0177,0.1945,-0.2884,0.9374,0.0047,0.0063,0.0038,-0.0298,-0.0599,-0.0854,-3.4373,-1.4795,8.9789,0.0001,0.0001,0.0000,1.0000,-0.0859,-0.0370,0.2245
57094,Right,2,-0.0393,0.2256,0.4524,0.8619,0.0064,0.0015,0.0088,-0.0232,-0.0006,-0.0091,-4.1734,1.3557,8.7667,0.0001,0.0000,0.0001,1.0000,-0.1043,0.0339,0.2192
57095,Pelvis,2,0.0839,-0.6826,-0.0598,0.7235,-0.0463,0.0031,-0.0127,-0.0951,-0.0325,-0.0225,9.5728,1.9569,0.6241,-0.0006,0.0000,-0.0002,1.0000,0.2393,0.0489,0.0156
57095,Left,2,-0.0178,0.1945,-0.2885,0.9373,0.0042,0.0018,0.0015,-0.0112,-0.0497,-0.0822,-3.4302,-1.4630,8.9877,0.0001,0.0000,0.0000,1.0000,-0.0857,-0.0366,0.2247
57095,Right,2,-0.0392,0.2256,0.4525,0.8619,0.0062,0.0030,0.0108,0.0108,0.0042,-0.0438,-4.1382,1.3275,8.7489,0.0001,0.0000,0.0001,1.0000,-0.1035,0.0332,0.2187
57096,Pelvis,2,0.0838,-0.6826,-0.0601,0.7234,-0.0220,-0.0042,-0.0129,-0.1522,-0.1765,-0.1287,9.4937,1.7995,0.6811,-0.0003,-0.0001,-0.0002,1.0000,0.2374,0.0450,0.0170
57096,Left,2,-0.0180,0.1944,-0.2886,0.9373,0.0035,0.0014,0.0011,-0.0218,-0.0766,-0.0717,-3.4240,-1.4955,8.9963,0.0000,0.0000,0.0000,1.0000,-0.0856,-0.0374,0.2249
57096,Right,2,-0.0393,0.2255,0.4526,0.8619,0.0048,0.0017,0.0106,0.0025,-0.0023,-0.0211,-4.1547,1.3324,8.7658,0.0001,0.0000,0.0001,1.0000,-0.1039,0.0333,0.2191
57097,Pelvis,2,0.0840,-0.6828,-0.0602,0.7232,0.0041,-0.0138,-0.0104,-0.1648,-0.2045,-0.1460,9.4813,1.7726,0.6908,0.0001,-0.0002,-0.0001,1.0000,0.2370,0.0443,0.0173
57097,Left,2,-0.0180,0.1942,-0.2885,0.9374,0.0041,-0.0022,0.0002,-0.0179,-0.0868,-0.0756,-3.4116,-1.5008,8.9959,0.0001,-0.0000,0.0000,1.0000,-0.0853,-0.0375,0.2249
57097,Right,2,-0.0391,0.2253,0.4529,0.8617,0.0031,-0.0047,0.0151,-0.0024,0.0110,-0.0173,-4.1450,1.3475,8.7723,0.0000,-0.0001,0.0002,1.0000,-0.1036,0.0337,0.2193
57098,Pelvis,2,0.0844,-0.6829,-0.0601,0.7231,0.0254,-0.0108,-0.0097,-0.1544,-0.1265,0.0009,9.6093,1.8823,0.6819,0.0003,-0.0001,-0.0001,1.0000,0.2402,0.0470,0.0171
57098,Left,2,-0.0181,0.1942,-0.2886,0.9374,0.0065,-0.0029,-0.0010,-0.0277,-0.0835,-0.0687,-3.4225,-1.5071,8.9983,0.0001,-0.0000,-0.0000,1.0000,-0.0856,-0.0377,0.2250
57098,Right,2,-0.0390,0.2253,0.4531,0.8616,0.0022,-0.0027,0.0135,-0.0163,-0.0139,-0.0012,-4.1759,1.3481,8.7756,0.0000,-0.0000,0.0002,1.0000,-0.1044,0.0337,0.2194
57099,Pelvis,2,0.0848,-0.6831,-0.0599,0.7229,0.0414,-0.0110,-0.0070,-0.1200,-0.1245,0.0630,9.6715,1.8984,0.6451,0.0005,-0.0001,-0.0001,1.0000,0.2418,0.0474,0.0162
57099,Left,2,-0.0182,0.1941,-0.2886,0.9374,0.0072,-0.0042,0.0013,-0.0313,-0.0781,-0.0602,-3.4291,-1.5054,9.0052,0.0001,-0.0001,0.0000,1.0000,-0.0857,-0.0377,0.2251
57099,Right,2,-0.0389,0.2252,0.4533,0.8615,0.0031,0.0016,0.0100,0.0063,0.0225,-0.0412,-4.1177,1.3482,8.7584,0.0000,0.0000,0.0001,1.0000,-0.1029,0.0337,0.2190
57100,Pelvis,2,0.0854,-0.6834,-0.0593,0.7226,0.0754,-0.0192,0.0004,-0.0919,-0.2370,0.0076,9.6420,1.7784,0.6106,0.0009,-0.0002,0.0000,1.0000,0.2410,0.0444,0.0154
57100,Left,2,-0.0182,0.1941,-0.2889,0.9373,0.0099,-0.0063,0.0000,-0.0425,-0.0668,-0.0578,-3.4443,-1.5048,9.0020,0.0001,-0.0001,0.0000,1.0000,-0.0861,-0.0376,0.2250
57100,Right,2,-0.0390,0.2253,0.4533,0.8615,0.0047,0.0023,0.0146,0.0171,-0.0085,-0.0359,-4.1402,1.3214,8.7578,0.0001,0.0000,0.0002,1.0000,-0.1035,0.0330,0.2190
57101,Pelvis,2,0.0863,-0.6837,-0.0583,0.7223,0.1052,-0.0231,0.0065,-0.0969,-0.2199,-0.0715,9.5613,1.7799,0.6016,0.0013,-0.0003,0.0001,1.0000,0.2390,0.0445,0.0152
57101,Left,2,-0.0183,0.1939,-0.2891,0.9373,0.0146,-0.0132,-0.0031,-0.0188,-0.0768,-0.0324,-3.4265,-1.5049,9.0363,0.0002,-0.0002,-0.0000,1.0000,-0.0857,-0.0377,0.2259
57101,Right,2,-0.0390,0.2253,0.4533,0.8616,0.0069,-0.0003,0.0137,-0.0190,-0.0146,-0.0100,-4.1727,1.3496,8.7670,0.0001,-0.0000,0.0002,1.0000,-0.1043,0.0337,0.2192
57102,Pelvis,2,0.0873,-0.6841,-0.0572,0.7219,0.1236,-0.0285,0.0095,-0.0398,-0.1597,-0.0149,9.6086,1.8479,0.5322,0.0015,-0.0004,0.0001,1.0000,0.2402,0.0462,0.0135
57102,Left,2,-0.0183,0.1936,-0.2892,0.9373,0.0145,-0.0208,-0.0043,-0.0354,-0.0775,-0.0486,-3.4282,-1.5114,9.0170,0.0002,-0.0003,-0.0001,1.0000,-0.0858,-0.0378,0.2254
57102,Right,2,-0.0388,0.2253,0.4535,0.8614,0.0052,-0.0018,0.0179,0.0084,-0.0158,-0.0348,-4.1484,1.3277,8.7542,0.0001,-0.0000,0.0002,1.0000,-0.1037,0.0332,0.2189
57103,Pelvis,2,0.0885,-0.6844,-0.0561,0.7215,0.1333,-0.0299,0.0014,0.0052,-0.1131,-0.0051,9.6120,1.8937,0.4732,0.0017,-0.0004,0.0000,1.0000,0.2403,0.0473,0.0120
57103,Left,2,-0.0183,0.1934,-0.2893,0.9373,0.0172,-0.0219,-0.0032,-0.0263,-0.0975,-0.0926,-3.3904,-1.5167,8.9830,0.0002,-0.0003,-0.0000,1.0000,-0.0848,-0.0380,0.2245
57103,Right,2,-0.0386,0.2254,0.4537,0.8613,0.0055,-0.0043,0.0172,-0.0166,-0.0030,-0.0151,-4.1593,1.3633,8.7655,0.0001,-0.0001,0.0002,1.0000,-0.1040,0.0340,0.2191
57104,Pelvis,2,0.0899,-0.6847,-0.0551,0.7212,0.1455,-0.0254,-0.0141,0.0442,-0.0944,0.0065,9.6216,1.9168,0.4222,0.0018,-0.0003,-0.0002,1.0000,0.2405,0.0479,0.0107
57104,Left,2,-0.0183,0.1931,-0.2894,0.9374,0.0177,-0.0175,-0.0009,-0.0206,-0.1031,-0.1096,-3.3712,-1.5133,8.9725,0.0002,-0.0002,-0.0000,1.0000,-0.0843,-0.0379,0.2243
57104,Right,2,-0.0385,0.2253,0.4540,0.8612,0.0030,-0.0069,0.0202,-0.0014,-0.0174,-0.0160,-4.1594,1.3445,8.7674,0.0000,-0.0001,0.0003,1.0000,-0.1040,0.0336,0.2192
57105,Pelvis,2,0.0916,-0.6850,-0.0541,0.7207,0.1537,-0.0322,-0.0281,0.0527,-0.0123,0.0038,9.6017,2.0042,0.3952,0.0019,-0.0004,-0.0004,1.0000,0.2401,0.0500,0.0101
57105,Left,2,-0.0183,0.1927,-0.2894,0.9374,0.0134,-0.0125,0.0000,-0.0136,-0.0758,-0.0940,-3.3793,-1.4881,8.9903,0.0002,-0.0002,0.0000,1.0000,-0.0845,-0.0372,0.2247
57105,Right,2,-0.0384,0.2251,0.4543,0.8611,0.0031,-0.0048,0.0210,0.0018,0.0015,-0.0222,-4.1368,1.3544,8.7697,0.0000,-0.0001,0.0003,1.0000,-0.1034,0.0338,0.2192
57106,Pelvis,2,0.0930,-0.6853,-0.0531,0.7203,0.1400,-0.0314,-0.0233,0.0403,0.0661,0.0458,9.6252,2.0973,0.3904,0.0018,-0.0004,-0.0003,1.0000,0.2406,0.0523,0.0099
57106,Left,2,-0.0186,0.1925,-0.2897,0.9374,0.0123,-0.0072,0.0003,-0.0226,-0.0810,-0.0694,-3.3861,-1.5046,9.0116,0.0002,-0.0001,0.0000,1.0000,-0.0847,-0.0376,0.2253
57106,Right,2,-0.0384,0.2249,0.4545,0.8611,0.0051,-0.0009,0.0242,-0.0015,0.0084,-0.0449,-4.1192,1.3550,8.7525,0.0001,-0.0000,0.0003,1.0000,-0.1030,0.0338,0.2188
57107,Pelvis,2,0.0941,-0.6856,-0.0523,0.7199,0.1152,-0.0249,-0.0174,0.0154,0.1575,0.1202,9.6773,2.2084,0.3989,0.0014,-0.0003,-0.0002,1.0000,0.2419,0.0551,0.0101
57107,Left,2,-0.0186,0.1923,-0.2898,0.9374,0.0133,-0.0076,0.0007,-0.0345,-0.0725,-0.0755,-3.3934,-1.5033,9.0024,0.0002,-0.0001,0.0000,1.0000,-0.0849,-0.0376,0.2250
57107,Right,2,-0.0384,0.2248,0.4547,0.8610,0.0087,0.0014,0.0204,-0.0165,0.0344,-0.0147,-4.1168,1.3871,8.7824,0.0001,0.0000,0.0003,1.0000,-0.1029,0.0346,0.2196
57108,Pelvis,2,0.0950,-0.6859,-0.0516,0.7196,0.0901,-0.0216,-0.0117,-0.0155,0.1300,0.1171,9.6779,2.1867,0.4196,0.0011,-0.0003,-0.0001,1.0000,0.2420,0.0546,0.0106
57108,Left,2,-0.0186,0.1923,-0.2899,0.9373,0.0148,-0.0041,0.0019,-0.0208,-0.0935,-0.0833,-3.3675,-1.5125,9.0024,0.0002,-0.0001,0.0000,1.0000,-0.0842,-0.0379,0.2250
57108,Right,2,-0.0384,0.2248,0.4547,0.8610,0.0078,0.0027,0.0149,-0.0224,0.0027,-0.0034,-4.1487,1.3760,8.7817,0.0001,0.0000,0.0002,1.0000,-0.1037,0.0344,0.2195
57109,Pelvis,2,0.0956,-0.6861,-0.0511,0.7194,0.0707,-0.0227,-0.0062,-0.0408,0.1029,0.0331,9.5998,2.1468,0.4341,0.0009,-0.0003,-0.0001,1.0000,0.2400,0.0536,0.0110
57109,Left,2,-0.0187,0.1920,-0.2900,0.9374,0.0162,-0.0019,0.0036,-0.0315,-0.0863,-0.0979,-3.3686,-1.5106,8.9865,0.0002,-0.0000,0.0000,1.0000,-0.0842,-0.0378,0.2247
57109,Right,2,-0.0383,0.2246,0.4550,0.8608,0.0051,-0.0020,0.0154,-0.0019,-0.0188,-0.0002,-4.1524,1.3490,8.7877,0.0001,-0.0000,0.0002,1.0000,-0.1038,0.0337,0.2197
57110,Pelvis,2,0.0961,-0.6864,-0.0507,0.7191,0.0580,-0.0339,-0.0023,-0.0629,0.0931,-0.1014,9.4691,2.1123,0.4436,0.0007,-0.0004,-0.0000,1.0000,0.2367,0.0528,0.0112
57110,Left,2,-0.0187,0.1919,-0.2901,0.9374,0.0200,-0.0005,0.0041,-0.0393,-0.1050,-0.1133,-3.3570,-1.5280,8.9714,0.0002,-0.0000,0.0001,1.0000,-0.0839,-0.0383,0.2243
57110,Right,2,-0.0383,0.2244,0.4551,0.8609,0.0022,-0.0101,0.0182,-0.0121,0.0103,-0.0233,-4.1230,1.3700,8.7725,0.0000,-0.0001,0.0002,1.0000,-0.1031,0.0342,0.2193
57111,Pelvis,2,0.0965,-0.6868,-0.0504,0.7187,0.0447,-0.0418,-0.0021,-0.0198,0.1563,-0.0515,9.5073,2.1832,0.3864,0.0006,-0.0005,-0.0000,1.0000,0.2377,0.0546,0.0098
57111,Left,2,-0.0186,0.1919,-0.2903,0.9373,0.0239,0.0026,0.0071,-0.0284,-0.1061,-0.0856,-3.3582,-1.5266,9.0012,0.0003,0.0000,0.0001,1.0000,-0.0839,-0.0382,0.2250
57111,Right,2,-0.0382,0.2243,0.4552,0.8609,0.0002,-0.0138,0.0174,-0.0162,0.0013,-0.0310,-4.1266,1.3675,8.7626,0.0000,-0.0002,0.0002,1.0000,-0.1032,0.0342,0.2190
57112,Pelvis,2,0.0966,-0.6871,-0.0503,0.7183,0.0236,-0.0384,-0.0030,0.0273,0.2041,0.0678,9.6171,2.2512,0.3303,0.0003,-0.0005,-0.0000,1.0000,0.2404,0.0563,0.0084
57112,Left,2,-0.0185,0.1920,-0.2905,0.9372,0.0229,0.0041,0.0090,-0.0096,-0.0627,-0.0861,-3.3692,-1.4793,9.0039,0.0003,0.0001,0.0001,1.0000,-0.0842,-0.0371,0.2251
57112,Right,2,-0.0381,0.2242,0.4553,0.8608,0.0021,-0.0093,0.0162,-0.0111,0.0147,-0.0016,-4.1238,1.3761,8.7954,0.0000,-0.0001,0.0002,1.0000,-0.1031,0.0344,0.2199
57113,Pelvis,2,0.0966,-0.6875,-0.0503,0.7180,0.0069,-0.0424,0.0029,0.0711,0.2018,0.0984,9.6500,2.2531,0.2784,0.0001,-0.0005,0.0000,1.0000,0.2412,0.0563,0.0071
57113,Left,2,-0.0183,0.1920,-0.2906,0.9372,0.0222,0.0039,0.0072,-0.0224,-0.0554,-0.0707,-3.3892,-1.4808,9.0128,0.0003,0.0000,0.0001,1.0000,-0.0847,-0.0371,0.2253
57113,Right,2,-0.0381,0.2241,0.4553,0.8608,0.0033,-0.0072,0.0127,-0.0144,0.0142,-0.0233,-4.1144,1.3761,8.7756,0.0000,-0.0001,0.0002,1.0000,-0.1029,0.0344,0.2194
57114,Pelvis,2,0.0965,-0.6878,-0.0504,0.7176,-0.0126,-0.0483,0.0042,0.0762,0.0963,0.0488,9.6236,2.1395,0.2693,-0.0002,-0.0006,0.0001,1.0000,0.2406,0.0535,0.0069
57114,Left,2,-0.0182,0.1921,-0.2908,0.9371,0.0218,-0.0014,0.0056,-0.0211,-0.0594,-0.1023,-3.3767,-1.4776,8.9839,0.0003,-0.0000,0.0001,1.0000,-0.0844,-0.0370,0.2246
57114,Right,2,-0.0380,0.2241,0.4553,0.8609,0.0020,-0.0120,0.0097,-0.0239,-0.0018,-0.0299,-4.1279,1.3739,8.7622,0.0000,-0.0001,0.0001,1.0000,-0.1032,0.0343,0.2190
57115,Pelvis,2,0.0963,-0.6883,-0.0507,0.7173,-0.0177,-0.0490,0.0011,0.0508,0.1033,-0.0457,9.5290,2.1279,0.2803,-0.0002,-0.0006,0.0000,1.0000,0.2382,0.0532,0.0071
57115,Left,2,-0.0184,0.1920,-0.2909,0.9371,0.0212,-0.0039,0.0049,-0.0019,-0.0578,-0.0599,-3.3754,-1.4744,9.0307,0.0003,-0.0000,0.0001,1.0000,-0.0844,-0.0369,0.2258
57115,Right,2,-0.0378,0.2240,0.4554,0.8608,0.0015,-0.0162,0.0107,-0.0175,-0.0123,0.0185,-4.1499,1.3719,8.8062,0.0000,-0.0002,0.0001,1.0000,-0.1038,0.0343,0.2201
57116,Pelvis,2,0.0961,-0.6886,-0.0511,0.7169,-0.0311,-0.0488,-0.0067,0.0441,0.1585,0.0154,9.5769,2.1966,0.2757,-0.0004,-0.0006,-0.0001,1.0000,0.2394,0.0549,0.0070
57116,Left,2,-0.0182,0.1918,-0.2910,0.9371,0.0236,-0.0074,0.0034,-0.0120,-0.0510,-0.0660,-3.3833,-1.4706,9.0217,0.0003,-0.0001,0.0000,1.0000,-0.0846,-0.0368,0.2255
57116,Right,2,-0.0376,0.2237,0.4555,0.8608,0.0018,-0.0279,0.0145,-0.0272,-0.0225,-0.0237,-4.1398,1.3700,8.7641,0.0000,-0.0003,0.0002,1.0000,-0.1036,0.0342,0.2191
57117,Pelvis,2,0.0956,-0.6890,-0.0517,0.7166,-0.0516,-0.0494,-0.0116,0.0368,0.1545,0.0173,9.5792,2.1947,0.2749,-0.0006,-0.0006,-0.0001,1.0000,0.2395,0.0548,0.0070
57117,Left,2,-0.0182,0.1916,-0.2911,0.9371,0.0208,-0.0133,0.0019,-0.0170,-0.0561,-0.0760,-3.3778,-1.4733,9.0125,0.0003,-0.0002,0.0000,1.0000,-0.0845,-0.0369,0.2253
57117,Right,2,-0.0375,0.2233,0.4557,0.8609,0.0002,-0.0306,0.0175,-0.0102,0.0376,-0.0295,-4.0756,1.3898,8.7847,0.0000,-0.0004,0.0002,1.0000,-0.1020,0.0347,0.2196
57118,Pelvis,2,0.0951,-0.6893,-0.0525,0.7163,-0.0659,-0.0555,-0.0117,0.0749,0.1427,-0.0103,9.5558,2.1784,0.2306,-0.0008,-0.0007,-0.0001,1.0000,0.2389,0.0544,0.0059
57118,Left,2,-0.0181,0.1913,-0.2912,0.9372,0.0194,-0.0154,0.0003,-0.0029,-0.0611,-0.0783,-3.3582,-1.4673,9.0184,0.0002,-0.0002,0.0000,1.0000,-0.0840,-0.0367,0.2254
57118,Right,2,-0.0373,0.2229,0.4559,0.8608,0.0003,-0.0265,0.0192,-0.0287,0.0156,-0.0045,-4.1033,1.3957,8.7986,0.0000,-0.0003,0.0002,1.0000,-0.1027,0.0349,0.2199
57119,Pelvis,2,0.0944,-0.6898,-0.0534,0.7158,-0.0818,-0.0645,-0.0092,0.0645,0.1418,0.0421,9.6065,2.1914,0.2327,-0.0010,-0.0008,-0.0001,1.0000,0.2402,0.0548,0.0060
57119,Left,2,-0.0182,0.1910,-0.2913,0.9372,0.0170,-0.0119,0.0018,-0.0115,-0.0806,-0.0937,-3.3437,-1.4850,9.0044,0.0002,-0.0001,0.0000,1.0000,-0.0836,-0.0372,0.2251
57119,Right,2,-0.0371,0.2227,0.4562,0.8608,0.0013,-0.0153,0.0153,0.0220,0.0440,-0.0335,-4.0379,1.3700,8.8008,0.0000,-0.0002,0.0002,1.0000,-0.1010,0.0342,0.2200
57120,Pelvis,2,0.0935,-0.6903,-0.0543,0.7154,-0.0906,-0.0675,-0.0048,0.0634,0.0692,0.0934,9.6720,2.1306,0.2301,-0.0011,-0.0008,-0.0001,1.0000,0.2418,0.0533,0.0059
57120,Left,2,-0.0181,0.1910,-0.2914,0.9372,0.0181,0.0015,0.0050,-0.0192,-0.1039,-0.0960,-3.3336,-1.5084,9.0021,0.0002,0.0000,0.0001,1.0000,-0.0833,-0.0378,0.2250
57120,Right,2,-0.0371,0.2225,0.4563,0.8608,0.0018,-0.0103,0.0124,-0.0138,0.0183,-0.0549,-4.0623,1.3805,8.7640,0.0000,-0.0001,0.0002,1.0000,-0.1016,0.0345,0.2191
57121,Pelvis,2,0.0926,-0.6908,-0.0551,0.7150,-0.0872,-0.0643,0.0017,0.0194,-0.0075,0.0541,9.6479,2.0496,0.2668,-0.0011,-0.0008,0.0000,1.0000,0.2412,0.0513,0.0068
57121,Left,2,-0.0181,0.1911,-0.2915,0.9371,0.0208,0.0065,0.0077,0.0045,-0.0528,-0.0867,-3.3479,-1.4542,9.0152,0.0003,0.0001,0.0001,1.0000,-0.0837,-0.0364,0.2254
57121,Right,2,-0.0371,0.2224,0.4563,0.8608,0.0016,-0.0048,0.0077,-0.0131,0.0205,-0.0332,-4.0673,1.3840,8.7853,0.0000,-0.0001,0.0001,1.0000,-0.1017,0.0346,0.2196
57122,Pelvis,2,0.0919,-0.6913,-0.0558,0.7145,-0.0737,-0.0649,0.0076,0.0320,-0.0429,0.0217,9.6244,2.0071,0.2438,-0.0009,-0.0008,0.0001,1.0000,0.2406,0.0502,0.0062
57122,Left,2,-0.0181,0.1910,-0.2916,0.9371,0.0181,0.0089,0.0075,-0.0278,-0.0689,-0.0882,-3.3614,-1.4859,9.0036,0.0002,0.0001,0.0001,1.0000,-0.0840,-0.0372,0.2251
57122,Right,2,-0.0372,0.2222,0.4564,0.8608,0.0031,-0.0015,0.0086,-0.0135,0.0061,-0.0152,-4.0823,1.3747,8.7997,0.0000,-0.0000,0.0001,1.0000,-0.1021,0.0343,0.2200
57123,Pelvis,2,0.0913,-0.6918,-0.0564,0.7141,-0.0575,-0.0565,0.0075,0.0413,-0.0263,-0.0002,9.6004,2.0175,0.2233,-0.0007,-0.0007,0.0001,1.0000,0.2400,0.0505,0.0057
57123,Left,2,-0.0179,0.1911,-0.2917,0.9371,0.0186,0.0059,0.0073,-0.0208,-0.0599,-0.0782,-3.3666,-1.4732,9.0144,0.0002,0.0001,0.0001,1.0000,-0.0841,-0.0369,0.2254
57123,Right,2,-0.0371,0.2221,0.4565,0.8607,0.0027,-0.0006,0.0117,-0.0154,0.0193,-0.0203,-4.0703,1.3839,8.7982,0.0000,-0.0000,0.0001,1.0000,-0.1018,0.0346,0.2200
57124,Pelvis,2,0.0907,-0.6921,-0.0569,0.7138,-0.0553,-0.0484,0.0024,0.0448,0.0257,0.0389,9.6284,2.0754,0.2106,-0.0007,-0.0006,0.0000,1.0000,0.2407,0.0519,0.0054
57124,Left,2,-0.0178,0.1910,-0.2916,0.9371,0.0162,0.0055,0.0061,-0.0189,-0.0460,-0.0597,-3.3787,-1.4605,9.0318,0.0002,0.0001,0.0001,1.0000,-0.0845,-0.0366,0.2258
57124,Right,2,-0.0371,0.2221,0.4566,0.8607,0.0027,0.0011,0.0094,-0.0016,0.0354,-0.0008,-4.0585,1.3864,8.8250,0.0000,0.0000,0.0001,1.0000,-0.1015,0.0346,0.2206
57125,Pelvis,2,0.0902,-0.6924,-0.0575,0.7135,-0.0555,-0.0430,0.0019,0.0684,0.0260,0.0438,9.6340,2.0758,0.1791,-0.0007,-0.0005,0.0000,1.0000,0.2408,0.0519,0.0046
57125,Left,2,-0.0177,0.1911,-0.2917,0.9371,0.0138,0.0015,0.0052,-0.0080,-0.0614,-0.0720,-3.3601,-1.4632,9.0252,0.0002,0.0000,0.0001,1.0000,-0.0840,-0.0366,0.2256
57125,Right,2,-0.0371,0.2222,0.4565,0.8607,0.0015,0.0024,0.0089,-0.0197,0.0109,-0.0281,-4.0769,1.3825,8.7867,0.0000,0.0000,0.0001,1.0000,-0.1019,0.0345,0.2197
57126,Pelvis,2,0.0897,-0.6927,-0.0580,0.7133,-0.0483,-0.0421,0.0025,0.0654,0.0035,0.0151,9.6107,2.0477,0.1771,-0.0006,-0.0005,0.0000,1.0000,0.2403,0.0512,0.0045
57126,Left,2,-0.0178,0.1911,-0.2919,0.9370,0.0145,0.0032,0.0064,-0.0054,-0.0704,-0.0989,-3.3428,-1.4680,9.0019,0.0002,0.0000,0.0001,1.0000,-0.0836,-0.0367,0.2250
57126,Right,2,-0.0372,0.2221,0.4566,0.8607,0.0025,0.0021,0.0081,-0.0167,0.0060,-0.0241,-4.0793,1.3755,8.7911,0.0000,0.0000,0.0001,1.0000,-0.1020,0.0344,0.2198
57127,Pelvis,2,0.0893,-0.6930,-0.0584,0.7130,-0.0417,-0.0421,0.0030,0.0561,-0.0021,0.0074,9.6042,2.0409,0.1797,-0.0005,-0.0005,0.0000,1.0000,0.2401,0.0510,0.0046
57127,Left,2,-0.0177,0.1908,-0.2917,0.9371,0.0151,0.0045,0.0062,-0.0262,-0.0721,-0.0573,-3.3676,-1.4828,9.0352,0.0002,0.0001,0.0001,1.0000,-0.0842,-0.0371,0.2259
57127,Right,2,-0.0371,0.2219,0.4569,0.8606,0.0025,-0.0010,0.0068,-0.0306,0.0011,-0.0054,-4.0931,1.3879,8.8037,0.0000,-0.0000,0.0001,1.0000,-0.1023,0.0347,0.2201
57128,Pelvis,2,0.0889,-0.6933,-0.0587,0.7128,-0.0346,-0.0413,0.0001,0.0596,0.0076,0.0370,9.6316,2.0550,0.1703,-0.0004,-0.0005,0.0000,1.0000,0.2408,0.0514,0.0044
57128,Left,2,-0.0178,0.1906,-0.2917,0.9372,0.0153,0.0043,0.0070,-0.0117,-0.0647,-0.0857,-3.3476,-1.4659,9.0146,0.0002,0.0001,0.0001,1.0000,-0.0837,-0.0367,0.2254
57128,Right,2,-0.0371,0.2217,0.4571,0.8606,0.0017,-0.0011,0.0062,-0.0125,0.0015,-0.0428,-4.0648,1.3669,8.7783,0.0000,-0.0000,0.0001,1.0000,-0.1016,0.0342,0.2195
57129,Pelvis,2,0.0885,-0.6936,-0.0591,0.7125,-0.0361,-0.0365,0.0001,0.0340,0.0157,0.0427,9.6350,2.0642,0.1885,-0.0005,-0.0005,0.0000,1.0000,0.2409,0.0516,0.0048
57129,Left,2,-0.0178,0.1906,-0.2918,0.9371,0.0136,0.0045,0.0048,-0.0084,-0.0681,-0.0810,-3.3439,-1.4682,9.0207,0.0002,0.0001,0.0001,1.0000,-0.0836,-0.0367,0.2255
57129,Right,2,-0.0372,0.2215,0.4571,0.8606,0.0029,0.0006,0.0078,-0.0280,0.0133,-0.0292,-4.0670,1.3868,8.7894,0.0000,0.0000,0.0001,1.0000,-0.1017,0.0347,0.2197
57130,Pelvis,2,0.0881,-0.6938,-0.0594,0.7123,-0.0321,-0.0294,0.0035,0.0345,-0.0067,0.0426,9.6398,2.0422,0.1821,-0.0004,-0.0004,0.0000,1.0000,0.2410,0.0511,0.0046
57130,Left,2,-0.0178,0.1906,-0.2919,0.9371,0.0131,0.0060,0.0055,-0.0323,-0.0475,-0.0980,-3.3682,-1.4621,8.9942,0.0002,0.0001,0.0001,1.0000,-0.0842,-0.0366,0.2249
57130,Right,2,-0.0372,0.2215,0.4572,0.8605,0.0054,0.0047,0.0084,-0.0298,0.0233,-0.0431,-4.0535,1.3909,8.7795,0.0001,0.0001,0.0001,1.0000,-0.1013,0.0347,0.2195
57131,Pelvis,2,0.0878,-0.6940,-0.0597,0.7121,-0.0306,-0.0241,0.0081,0.0313,0.0230,0.0532,9.6441,2.0727,0.1800,-0.0004,-0.0003,0.0001,1.0000,0.2411,0.0518,0.0046
57131,Left,2,-0.0179,0.1906,-0.2920,0.9370,0.0141,0.0090,0.0071,-0.0291,-0.0534,-0.0802,-3.3677,-1.4703,9.0123,0.0002,0.0001,0.0001,1.0000,-0.0842,-0.0368,0.2253
57131,Right,2,-0.0373,0.2215,0.4572,0.8605,0.0045,0.0082,0.0046,-0.0325,0.0105,-0.0381,-4.0661,1.3851,8.7803,0.0001,0.0001,0.0001,1.0000,-0.1016,0.0346,0.2195
57132,Pelvis,2,0.0874,-0.6941,-0.0599,0.7120,-0.0231,-0.0249,0.0105,0.0262,0.0089,0.0350,9.6295,2.0537,0.1834,-0.0003,-0.0003,0.0001,1.0000,0.2407,0.0514,0.0046
57132,Left,2,-0.0177,0.1906,-0.2919,0.9371,0.0139,0.0105,0.0072,-0.0191,-0.0529,-0.0871,-3.3587,-1.4591,9.0100,0.0002,0.0001,0.0001,1.0000,-0.0839,-0.0365,0.2253
57132,Right,2,-0.0373,0.2214,0.4574,0.8605,0.0039,0.0101,0.0064,-0.0252,-0.0073,-0.0072,-4.0886,1.3729,8.8061,0.0000,0.0001,0.0001,1.0000,-0.1022,0.0343,0.2202
57133,Pelvis,2,0.0872,-0.6943,-0.0599,0.7118,-0.0133,-0.0215,0.0146,0.0193,-0.0273,0.0168,9.6195,2.0125,0.1865,-0.0002,-0.0003,0.0002,1.0000,0.2405,0.0504,0.0047
57133,Left,2,-0.0176,0.1906,-0.2918,0.9371,0.0134,0.0084,0.0081,-0.0260,-0.0681,-0.0709,-3.3627,-1.4748,9.0236,0.0002,0.0001,0.0001,1.0000,-0.0840,-0.0369,0.2256
57133,Right,2,-0.0373,0.2215,0.4575,0.8604,0.0031,0.0100,0.0057,-0.0308,-0.0071,-0.0201,-4.0860,1.3773,8.7922,0.0000,0.0001,0.0001,1.0000,-0.1021,0.0344,0.2198
57134,Pelvis,2,0.0870,-0.6945,-0.0600,0.7117,-0.0105,-0.0176,0.0106,0.0272,-0.0097,-0.0050,9.5954,2.0222,0.1736,-0.0001,-0.0002,0.0001,1.0000,0.2399,0.0506,0.0044
57134,Left,2,-0.0177,0.1907,-0.2920,0.9370,0.0136,0.0105,0.0078,-0.0213,-0.0695,-0.0662,-3.3602,-1.4770,9.0292,0.0002,0.0001,0.0001,1.0000,-0.0840,-0.0370,0.2257
57134,Right,2,-0.0375,0.2214,0.4574,0.8604,0.0013,0.0073,0.0070,-0.0427,0.0001,-0.0242,-4.0854,1.3867,8.7866,0.0000,0.0001,0.0001,1.0000,-0.1021,0.0347,0.2197
57135,Pelvis,2,0.0868,-0.6946,-0.0600,0.7116,-0.0064,-0.0159,0.0101,0.0438,0.0084,0.0112,9.6086,2.0404,0.1535,-0.0001,-0.0002,0.0001,1.0000,0.2402,0.0510,0.0039
57135,Left,2,-0.0176,0.1907,-0.2920,0.9370,0.0120,0.0077,0.0060,-0.0382,-0.0470,-0.0817,-3.3814,-1.4633,9.0067,0.0002,0.0001,0.0001,1.0000,-0.0845,-0.0366,0.2252
57135,Right,2,-0.0375,0.2214,0.4575,0.8604,0.0014,0.0071,0.0062,-0.0378,0.0070,-0.0252,-4.0776,1.3870,8.7890,0.0000,0.0001,0.0001,1.0000,-0.1019,0.0347,0.2197
57136,Pelvis,2,0.0866,-0.6948,-0.0600,0.7115,-0.0078,-0.0159,0.0116,0.0613,0.0705,0.0466,9.6315,2.1052,0.1304,-0.0001,-0.0002,0.0001,1.0000,0.2408,0.0527,0.0033
57136,Left,2,-0.0176,0.1909,-0.2922,0.9369,0.0122,0.0048,0.0063,-0.0106,-0.0473,-0.0824,-3.3625,-1.4509,9.0150,0.0002,0.0001,0.0001,1.0000,-0.0840,-0.0363,0.2254
57136,Right,2,-0.0376,0.2215,0.4575,0.8604,0.0009,0.0067,0.0064,-0.0446,0.0158,-0.0076,-4.0836,1.3983,8.8041,0.0000,0.0001,0.0001,1.0000,-0.1021,0.0349,0.2201
57137,Pelvis,2,0.0864,-0.6949,-0.0600,0.7114,-0.0073,-0.0151,0.0104,0.0570,0.0143,0.0284,9.6259,2.0431,0.1344,-0.0001,-0.0002,0.0001,1.0000,0.2406,0.0511,0.0034
57137,Left,2,-0.0176,0.1907,-0.2921,0.9370,0.0103,0.0029,0.0045,-0.0338,-0.0522,-0.0638,-3.3816,-1.4687,9.0250,0.0001,0.0000,0.0001,1.0000,-0.0845,-0.0368,0.2256
57137,Right,2,-0.0375,0.2214,0.4578,0.8602,0.0006,0.0043,0.0074,-0.0382,-0.0074,-0.0201,-4.0913,1.3812,8.7892,0.0000,0.0001,0.0001,1.0000,-0.1023,0.0345,0.2197
57138,Pelvis,2,0.0863,-0.6950,-0.0599,0.7113,-0.0001,-0.0142,0.0110,0.0297,-0.0226,0.0149,9.6201,2.0030,0.1601,-0.0000,-0.0002,0.0001,1.0000,0.2405,0.0501,0.0040
57138,Left,2,-0.0177,0.1907,-0.2921,0.9370,0.0080,0.0031,0.0034,-0.0274,-0.0610,-0.0676,-3.3701,-1.4726,9.0247,0.0001,0.0000,0.0000,1.0000,-0.0842,-0.0368,0.2256
57138,Right,2,-0.0376,0.2214,0.4578,0.8602,-0.0013,0.0019,0.0095,-0.0343,0.0009,-0.0212,-4.0825,1.3813,8.7920,-0.0000,0.0000,0.0001,1.0000,-0.1021,0.0345,0.2198
57139,Pelvis,2,0.0863,-0.6952,-0.0598,0.7112,0.0105,-0.0178,0.0071,0.0137,-0.0323,0.0187,9.6258,1.9928,0.1730,0.0001,-0.0002,0.0001,1.0000,0.2406,0.0498,0.0044
57139,Left,2,-0.0177,0.1906,-0.2922,0.9370,0.0089,-0.0020,0.0024,-0.0232,-0.0340,-0.0885,-3.3736,-1.4451,9.0051,0.0001,-0.0000,0.0000,1.0000,-0.0843,-0.0362,0.2251
57139,Right,2,-0.0376,0.2213,0.4579,0.8602,0.0011,0.0014,0.0052,-0.0526,0.0016,-0.0154,-4.0919,1.3961,8.7919,0.0000,0.0000,0.0001,1.0000,-0.1023,0.0349,0.2198
57140,Pelvis,2,0.0864,-0.6952,-0.0597,0.7111,0.0166,-0.0115,0.0051,0.0098,-0.0026,0.0197,9.6208,2.0214,0.1735,0.0002,-0.0001,0.0001,1.0000,0.2405,0.0506,0.0044
57140,Left,2,-0.0178,0.1905,-0.2921,0.9370,0.0067,-0.0013,0.0029,-0.0294,-0.0594,-0.0544,-3.3725,-1.4742,9.0377,0.0001,-0.0000,0.0000,1.0000,-0.0843,-0.0369,0.2259
57140,Right,2,-0.0376,0.2211,0.4581,0.8601,-0.0008,0.0012,0.0088,-0.0286,0.0046,-0.0094,-4.0780,1.3790,8.8076,-0.0000,0.0000,0.0001,1.0000,-0.1020,0.0345,0.2202
57141,Pelvis,2,0.0865,-0.6952,-0.0595,0.7111,0.0198,-0.0074,0.0097,0.0287,0.0372,0.0456,9.6387,2.0638,0.1522,0.0002,-0.0001,0.0001,1.0000,0.2410,0.0516,0.0038
57141,Left,2,-0.0180,0.1905,-0.2924,0.9369,0.0059,-0.0011,0.0033,-0.0172,-0.0690,-0.0666,-3.3527,-1.4791,9.0312,0.0001,-0.0000,0.0000,1.0000,-0.0838,-0.0370,0.2258
57141,Right,2,-0.0378,0.2211,0.4580,0.8602,-0.0007,0.0030,0.0089,-0.0443,0.0148,-0.0263,-4.0713,1.3910,8.7900,-0.0000,0.0000,0.0001,1.0000,-0.1018,0.0348,0.2198
57142,Pelvis,2,0.0865,-0.6953,-0.0592,0.7111,0.0190,-0.0026,0.0118,0.0336,0.0295,0.0446,9.6402,2.0526,0.1456,0.0002,-0.0000,0.0001,1.0000,0.2410,0.0513,0.0037
57142,Left,2,-0.0180,0.1904,-0.2924,0.9370,0.0081,-0.0005,0.0037,-0.0229,-0.0695,-0.0896,-3.3469,-1.4796,9.0084,0.0001,-0.0000,0.0000,1.0000,-0.0837,-0.0370,0.2252
57142,Right,2,-0.0377,0.2210,0.4582,0.8601,-0.0004,0.0024,0.0066,-0.0350,0.0044,-0.0311,-4.0715,1.3783,8.7866,-0.0000,0.0000,0.0001,1.0000,-0.1018,0.0344,0.2197
57143,Pelvis,2,0.0865,-0.6954,-0.0590,0.7110,0.0181,-0.0057,0.0116,0.0346,0.0470,-0.0059,9.5878,2.0567,0.1408,0.0002,-0.0001,0.0001,1.0000,0.2397,0.0515,0.0035
57143,Left,2,-0.0181,0.1901,-0.2924,0.9370,0.0099,-0.0025,0.0028,-0.0231,-0.0568,-0.0581,-3.3598,-1.4746,9.0384,0.0001,-0.0000,0.0000,1.0000,-0.0840,-0.0369,0.2260
57143,Right,2,-0.0377,0.2208,0.4585,0.8600,-0.0022,0.0007,0.0084,-0.0555,-0.0067,-0.0114,-4.0947,1.3905,8.7959,-0.0000,0.0000,0.0001,1.0000,-0.1024,0.0348,0.2199
57144,Pelvis,2,0.0866,-0.6954,-0.0587,0.7109,0.0161,-0.0076,0.0092,0.0146,0.0679,0.0084,9.5977,2.0783,0.1580,0.0002,-0.0001,0.0001,1.0000,0.2399,0.0520,0.0040
57144,Left,2,-0.0182,0.1900,-0.2925,0.9370,0.0094,-0.0022,0.0026,-0.0232,-0.0480,-0.0712,-3.3569,-1.4665,9.0266,0.0001,-0.0000,0.0000,1.0000,-0.0839,-0.0367,0.2257
57144,Right,2,-0.0378,0.2206,0.4586,0.8600,-0.0035,-0.0026,0.0090,-0.0486,-0.0141,0.0055,-4.1011,1.3795,8.8135,-0.0000,-0.0000,0.0001,1.0000,-0.1025,0.0345,0.2203
57145,Pelvis,2,0.0866,-0.6955,-0.0587,0.7109,0.0058,-0.0074,0.0052,-0.0028,0.0446,0.0227,9.6162,2.0578,0.1748,0.0001,-0.0001,0.0001,1.0000,0.2404,0.0515,0.0044
57145,Left,2,-0.0183,0.1898,-0.2925,0.9371,0.0073,-0.0035,0.0015,-0.0123,-0.0447,-0.0781,-3.3449,-1.4571,9.0251,0.0001,-0.0000,0.0000,1.0000,-0.0836,-0.0364,0.2256
57145,Right,2,-0.0379,0.2203,0.4587,0.8600,-0.0005,-0.0052,0.0089,-0.0420,-0.0009,-0.0183,-4.0745,1.3765,8.7998,-0.0000,-0.0001,0.0001,1.0000,-0.1019,0.0344,0.2200
57146,Pelvis,2,0.0865,-0.6955,-0.0587,0.7109,-0.0011,-0.0051,0.0061,0.0317,0.0641,0.0151,9.6060,2.0725,0.1392,-0.0000,-0.0001,0.0001,1.0000,0.2401,0.0518,0.0035
57146,Left,2,-0.0183,0.1897,-0.2925,0.9371,0.0088,-0.0050,0.0034,-0.0186,-0.0600,-0.0618,-3.3457,-1.4744,9.0397,0.0001,-0.0001,0.0000,1.0000,-0.0837,-0.0369,0.2260
57146,Right,2,-0.0378,0.2202,0.4589,0.8600,-0.0021,-0.0071,0.0098,-0.0560,-0.0034,-0.0213,-4.0798,1.3861,8.7925,-0.0000,-0.0001,0.0001,1.0000,-0.1020,0.0346,0.2198
57147,Pelvis,2,0.0864,-0.6956,-0.0587,0.7108,-0.0014,-0.0077,0.0056,0.0363,0.0201,0.0245,9.6246,2.0303,0.1352,-0.0000,-0.0001,0.0001,1.0000,0.2406,0.0508,0.0034
57147,Left,2,-0.0184,0.1897,-0.2926,0.9371,0.0087,-0.0012,0.0017,-0.0285,-0.0713,-0.0816,-3.3386,-1.4883,9.0188,0.0001,-0.0000,0.0000,1.0000,-0.0835,-0.0372,0.2255
57147,Right,2,-0.0377,0.2202,0.4590,0.8599,0.0007,-0.0076,0.0089,-0.0680,0.0159,-0.0433,-4.0596,1.4057,8.7744,0.0000,-0.0001,0.0001,1.0000,-0.1015,0.0351,0.2193
57148,Pelvis,2,0.0864,-0.6956,-0.0588,0.7108,-0.0042,-0.0094,0.0024,0.0314,0.0405,0.0055,9.6016,2.0468,0.1375,-0.0001,-0.0001,0.0000,1.0000,0.2400,0.0512,0.0035
57148,Left,2,-0.0185,0.1896,-0.2926,0.9371,0.0087,-0.0016,0.0045,-0.0316,-0.0634,-0.0732,-3.3457,-1.4857,9.0256,0.0001,-0.0000,0.0001,1.0000,-0.0836,-0.0372,0.2256
57148,Right,2,-0.0376,0.2200,0.4592,0.8598,0.0003,-0.0087,0.0111,-0.0495,-0.0107,-0.0172,-4.0780,1.3797,8.7988,0.0000,-0.0001,0.0001,1.0000,-0.1020,0.0345,0.2200
57149,Pelvis,2,0.0862,-0.6957,-0.0589,0.7107,-0.0129,-0.0092,0.0026,0.0309,0.0709,0.0256,9.6152,2.0802,0.1364,-0.0002,-0.0001,0.0000,1.0000,0.2404,0.0520,0.0034
57149,Left,2,-0.0186,0.1895,-0.2927,0.9370,0.0123,0.0016,0.0038,-0.0188,-0.0527,-0.0932,-3.3319,-1.4700,9.0116,0.0002,0.0000,0.0000,1.0000,-0.0833,-0.0368,0.2253
57149,Right,2,-0.0375,0.2197,0.4594,0.8598,0.0006,-0.0128,0.0127,-0.0459,-0.0037,-0.0183,-4.0660,1.3803,8.8031,0.0000,-0.0002,0.0002,1.0000,-0.1017,0.0345,0.2201
57150,Pelvis,2,0.0859,-0.6957,-0.0591,0.7107,-0.0247,-0.0083,0.0025,0.0405,0.0541,0.0237,9.6172,2.0621,0.1265,-0.0003,-0.0001,0.0000,1.0000,0.2404,0.0516,0.0032
57150,Left,2,-0.0186,0.1896,-0.2928,0.9370,0.0111,0.0028,0.0027,-0.0248,-0.0585,-0.0815,-3.3391,-1.4804,9.0199,0.0001,0.0000,0.0000,1.0000,-0.0835,-0.0370,0.2255
57150,Right,2,-0.0375,0.2197,0.4594,0.8598,-0.0041,-0.0142,0.0129,-0.0469,0.0092,-0.0451,-4.0442,1.3866,8.7824,-0.0001,-0.0002,0.0002,1.0000,-0.1011,0.0347,0.2195
57151,Pelvis,2,0.0857,-0.6957,-0.0594,0.7107,-0.0275,-0.0053,0.0000,0.0438,0.0109,0.0236,9.6261,2.0190,0.1256,-0.0003,-0.0001,0.0000,1.0000,0.2407,0.0505,0.0031
57151,Left,2,-0.0186,0.1896,-0.2930,0.9369,0.0107,0.0007,0.0036,-0.0195,-0.0390,-0.0763,-3.3478,-1.4637,9.0249,0.0001,0.0000,0.0000,1.0000,-0.0837,-0.0366,0.2256
57151,Right,2,-0.0374,0.2194,0.4595,0.8598,-0.0016,-0.0124,0.0119,-0.0326,0.0226,-0.0343,-4.0270,1.3828,8.8028,-0.0000,-0.0002,0.0001,1.0000,-0.1007,0.0346,0.2201
57152,Pelvis,2,0.0854,-0.6957,-0.0595,0.7107,-0.0236,-0.0062,0.0011,0.0769,-0.0043,0.0264,9.6329,2.0028,0.0934,-0.0003,-0.0001,0.0000,1.0000,0.2408,0.0501,0.0023
57152,Left,2,-0.0187,0.1895,-0.2931,0.9369,0.0094,0.0005,0.0030,-0.0322,-0.0495,-0.0961,-3.3416,-1.4772,9.0037,0.0001,0.0000,0.0000,1.0000,-0.0835,-0.0370,0.2251
57152,Right,2,-0.0375,0.2192,0.4596,0.8598,-0.0004,-0.0081,0.0100,-0.0504,-0.0018,-0.0183,-4.0566,1.3828,8.8071,-0.0000,-0.0001,0.0001,1.0000,-0.1014,0.0346,0.2202
57153,Pelvis,2,0.0852,-0.6957,-0.0597,0.7107,-0.0213,-0.0065,0.0034,0.0436,-0.0364,0.0444,9.6565,1.9753,0.1290,-0.0003,-0.0001,0.0000,1.0000,0.2414,0.0494,0.0032
57153,Left,2,-0.0187,0.1895,-0.2931,0.9369,0.0077,-0.0031,0.0025,-0.0135,-0.0490,-0.0668,-3.3381,-1.4709,9.0376,0.0001,-0.0000,0.0000,1.0000,-0.0835,-0.0368,0.2259
57153,Right,2,-0.0374,0.2191,0.4597,0.8598,0.0009,-0.0086,0.0101,-0.0642,-0.0031,-0.0213,-4.0614,1.3928,8.8000,0.0000,-0.0001,0.0001,1.0000,-0.1016,0.0348,0.2200
57154,Pelvis,2,0.0850,-0.6957,-0.0599,0.7107,-0.0178,-0.0012,0.0029,0.0351,0.0067,0.0159,9.6197,2.0113,0.1356,-0.0002,-0.0000,0.0000,1.0000,0.2405,0.0503,0.0034
57154,Left,2,-0.0188,0.1893,-0.2930,0.9370,0.0049,-0.0028,0.0026,-0.0502,-0.0578,-0.0859,-3.3515,-1.4945,9.0083,0.0001,-0.0000,0.0000,1.0000,-0.0838,-0.0374,0.2252
57154,Right,2,-0.0373,0.2189,0.4599,0.8597,0.0000,-0.0103,0.0117,-0.0580,-0.0101,-0.0173,-4.0612,1.3858,8.8057,0.0000,-0.0001,0.0001,1.0000,-0.1016,0.0346,0.2201
57155,Pelvis,2,0.0847,-0.6957,-0.0600,0.7108,-0.0217,0.0012,0.0066,0.0241,0.0241,0.0083,9.6088,2.0255,0.1474,-0.0003,0.0000,0.0001,1.0000,0.2402,0.0507,0.0037
57155,Left,2,-0.0187,0.1894,-0.2931,0.9370,0.0106,-0.0037,0.0051,0.0074,-0.0667,-0.0727,-3.3082,-1.4721,9.0421,0.0001,-0.0000,0.0001,1.0000,-0.0827,-0.0368,0.2260
57155,Right,2,-0.0373,0.2188,0.4600,0.8598,0.0005,-0.0139,0.0123,-0.0548,0.0030,-0.0095,-4.0512,1.3915,8.8180,0.0000,-0.0002,0.0002,1.0000,-0.1013,0.0348,0.2204
57156,Pelvis,2,0.0844,-0.6956,-0.0601,0.7109,-0.0235,0.0028,0.0050,0.0455,0.0213,0.0340,9.6354,2.0253,0.1303,-0.0003,0.0000,0.0001,1.0000,0.2409,0.0506,0.0032
57156,Left,2,-0.0187,0.1892,-0.2932,0.9370,0.0122,-0.0025,0.0025,-0.0691,-0.0421,-0.0537,-3.3840,-1.4959,9.0308,0.0002,-0.0000,0.0000,1.0000,-0.0846,-0.0374,0.2258
57156,Right,2,-0.0373,0.2187,0.4601,0.8597,-0.0005,-0.0086,0.0128,-0.0486,0.0160,-0.0550,-4.0161,1.3870,8.7842,-0.0000,-0.0001,0.0002,1.0000,-0.1004,0.0347,0.2196
57157,Pelvis,2,0.0841,-0.6955,-0.0603,0.7110,-0.0239,0.0054,0.0070,0.0623,-0.0045,0.0407,9.6478,1.9998,0.1172,-0.0003,0.0001,0.0001,1.0000,0.2412,0.0500,0.0029
57157,Left,2,-0.0188,0.1892,-0.2932,0.9369,0.0050,-0.0034,0.0019,-0.0208,-0.0633,-0.0819,-3.3244,-1.4843,9.0244,0.0001,-0.0000,0.0000,1.0000,-0.0831,-0.0371,0.2256
57157,Right,2,-0.0372,0.2186,0.4602,0.8597,0.0013,-0.0041,0.0099,-0.0604,0.0151,-0.0363,-4.0281,1.3994,8.7976,0.0000,-0.0001,0.0001,1.0000,-0.1007,0.0350,0.2199
57158,Pelvis,2,0.0839,-0.6954,-0.0604,0.7111,-0.0190,0.0076,0.0091,0.0770,-0.0300,0.0377,9.6508,1.9718,0.1066,-0.0002,0.0001,0.0001,1.0000,0.2413,0.0493,0.0026
57158,Left,2,-0.0188,0.1890,-0.2931,0.9370,0.0068,-0.0035,0.0027,-0.0341,-0.0567,-0.0880,-3.3327,-1.4845,9.0146,0.0001,-0.0000,0.0000,1.0000,-0.0833,-0.0371,0.2254
57158,Right,2,-0.0371,0.2185,0.4604,0.8596,0.0017,-0.0017,0.0089,-0.0493,0.0051,-0.0194,-4.0340,1.3894,8.8152,0.0000,-0.0000,0.0001,1.0000,-0.1009,0.0347,0.2204
57159,Pelvis,2,0.0836,-0.6953,-0.0605,0.7112,-0.0157,0.0091,0.0095,0.0578,-0.0265,0.0120,9.6249,1.9682,0.1282,-0.0002,0.0001,0.0001,1.0000,0.2406,0.0492,0.0032
57159,Left,2,-0.0189,0.1890,-0.2933,0.9370,0.0104,-0.0027,0.0031,-0.0288,-0.0610,-0.0833,-3.3272,-1.4883,9.0211,0.0001,-0.0000,0.0000,1.0000,-0.0832,-0.0372,0.2255
57159,Right,2,-0.0371,0.2185,0.4604,0.8596,0.0008,-0.0018,0.0082,-0.0498,0.0106,0.0112,-4.0425,1.3979,8.8439,0.0000,-0.0000,0.0001,1.0000,-0.1011,0.0349,0.2211
57160,Pelvis,2,0.0834,-0.6953,-0.0604,0.7113,-0.0103,0.0074,0.0089,0.0620,-0.0123,0.0111,9.6218,1.9787,0.1268,-0.0001,0.0001,0.0001,1.0000,0.2405,0.0495,0.0031
57160,Left,2,-0.0191,0.1888,-0.2933,0.9370,0.0067,-0.0062,0.0023,-0.0228,-0.0450,-0.0865,-3.3271,-1.4725,9.0202,0.0001,-0.0001,0.0000,1.0000,-0.0832,-0.0368,0.2255
57160,Right,2,-0.0369,0.2184,0.4606,0.8595,0.0014,-0.0054,0.0087,-0.0462,-0.0120,-0.0231,-4.0414,1.3789,8.8093,0.0000,-0.0001,0.0001,1.0000,-0.1011,0.0345,0.2202
57161,Pelvis,2,0.0832,-0.6952,-0.0605,0.7114,-0.0161,0.0072,0.0078,0.0361,0.0299,0.0064,9.6084,2.0179,0.1534,-0.0002,0.0001,0.0001,1.0000,0.2402,0.0505,0.0038
57161,Left,2,-0.0191,0.1886,-0.2932,0.9370,0.0067,-0.0060,0.0009,-0.0417,-0.0499,-0.0895,-3.3340,-1.4863,9.0123,0.0001,-0.0001,0.0000,1.0000,-0.0834,-0.0372,0.2253
57161,Right,2,-0.0368,0.2182,0.4609,0.8594,-0.0007,-0.0068,0.0095,-0.0545,-0.0090,-0.0272,-4.0375,1.3881,8.8052,-0.0000,-0.0001,0.0001,1.0000,-0.1010,0.0347,0.2201
57162,Pelvis,2,0.0830,-0.6950,-0.0607,0.7116,-0.0213,0.0074,0.0071,0.0629,0.0521,0.0207,9.6188,2.0409,0.1312,-0.0003,0.0001,0.0001,1.0000,0.2405,0.0510,0.0032
57162,Left,2,-0.0192,0.1885,-0.2934,0.9370,0.0076,-0.0071,0.0011,-0.0276,-0.0580,-0.0785,-3.3186,-1.4888,9.0293,0.0001,-0.0001,0.0000,1.0000,-0.0830,-0.0372,0.2257
57162,Right,2,-0.0368,0.2180,0.4610,0.8594,0.0019,-0.0074,0.0128,-0.0491,0.0092,-0.0204,-4.0194,1.3932,8.8201,0.0000,-0.0001,0.0002,1.0000,-0.1005,0.0348,0.2205
57163,Pelvis,2,0.0826,-0.6950,-0.0609,0.7117,-0.0273,0.0043,0.0071,0.0623,0.0302,0.0112,9.6141,2.0158,0.1353,-0.0003,0.0001,0.0001,1.0000,0.2403,0.0504,0.0034
57163,Left,2,-0.0194,0.1883,-0.2935,0.9370,0.0110,-0.0063,0.0021,-0.0209,-0.0609,-0.0953,-3.3025,-1.4872,9.0174,0.0001,-0.0001,0.0000,1.0000,-0.0826,-0.0372,0.2254
57163,Right,2,-0.0369,0.2178,0.4611,0.8594,0.0024,-0.0042,0.0115,-0.0555,0.0087,-0.0421,-4.0108,1.3927,8.8001,0.0000,-0.0001,0.0001,1.0000,-0.1003,0.0348,0.2200
57164,Pelvis,2,0.0823,-0.6949,-0.0611,0.7117,-0.0237,0.0051,0.0087,0.0835,-0.0044,0.0168,9.6274,1.9812,0.1180,-0.0003,0.0001,0.0001,1.0000,0.2407,0.0496,0.0029
57164,Left,2,-0.0194,0.1882,-0.2936,0.9370,0.0120,-0.0035,0.0051,-0.0223,-0.0533,-0.0868,-3.3088,-1.4840,9.0247,0.0002,-0.0000,0.0001,1.0000,-0.0827,-0.0371,0.2256
57164,Right,2,-0.0369,0.2177,0.4611,0.8594,0.0039,-0.0003,0.0097,-0.0732,0.0114,-0.0364,-4.0192,1.4086,8.8002,0.0000,-0.0000,0.0001,1.0000,-0.1005,0.0352,0.2200
57165,Pelvis,2,0.0821,-0.6949,-0.0612,0.7118,-0.0184,0.0038,0.0099,0.0792,-0.0359,0.0682,9.6843,1.9590,0.1269,-0.0002,0.0000,0.0001,1.0000,0.2421,0.0490,0.0031
57165,Left,2,-0.0195,0.1882,-0.2938,0.9369,0.0155,-0.0010,0.0042,-0.0198,-0.0634,-0.1135,-3.2905,-1.4893,9.0018,0.0002,-0.0000,0.0001,1.0000,-0.0823,-0.0373,0.2250
57165,Right,2,-0.0370,0.2177,0.4611,0.8594,0.0048,0.0025,0.0085,-0.0648,0.0187,-0.0245,-4.0144,1.4067,8.8158,0.0001,0.0000,0.0001,1.0000,-0.1004,0.0351,0.2204
57166,Pelvis,2,0.0819,-0.6948,-0.0612,0.7119,-0.0107,0.0058,0.0099,0.0338,-0.0471,0.0386,9.6568,1.9410,0.1749,-0.0001,0.0001,0.0001,1.0000,0.2414,0.0486,0.0043
57166,Left,2,-0.0194,0.1881,-0.2938,0.9370,0.0163,0.0049,0.0054,-0.0221,-0.0676,-0.0871,-3.2961,-1.4965,9.0270,0.0002,0.0001,0.0001,1.0000,-0.0824,-0.0375,0.2257
57166,Right,2,-0.0370,0.2176,0.4612,0.8594,0.0044,0.0019,0.0079,-0.0675,0.0049,-0.0195,-4.0261,1.4011,8.8170,0.0001,0.0000,0.0001,1.0000,-0.1007,0.0350,0.2204
57167,Pelvis,2,0.0817,-0.6947,-0.0613,0.7120,-0.0091,0.0046,0.0098,0.0472,0.0323,-0.0050,9.5989,2.0073,0.1603,-0.0001,0.0001,0.0001,1.0000,0.2400,0.0502,0.0040
57167,Left,2,-0.0195,0.1880,-0.2939,0.9369,0.0174,0.0120,0.0083,-0.0068,-0.0414,-0.1021,-3.2924,-1.4651,9.0172,0.0002,0.0001,0.0001,1.0000,-0.0823,-0.0367,0.2254
57167,Right,2,-0.0370,0.2174,0.4614,0.8594,0.0035,0.0030,0.0084,-0.0582,0.0059,-0.0164,-4.0194,1.3938,8.8245,0.0000,0.0000,0.0001,1.0000,-0.1005,0.0348,0.2206
57168,Pelvis,2,0.0815,-0.6947,-0.0613,0.7121,-0.0090,0.0044,0.0107,0.0423,0.0184,-0.0136,9.5935,1.9901,0.1678,-0.0001,0.0001,0.0001,1.0000,0.2398,0.0498,0.0042
57168,Left,2,-0.0193,0.1880,-0.2939,0.9370,0.0182,0.0132,0.0074,-0.0239,-0.0578,-0.0871,-3.3014,-1.4875,9.0266,0.0002,0.0002,0.0001,1.0000,-0.0825,-0.0372,0.2257
57168,Right,2,-0.0370,0.2174,0.4616,0.8593,0.0027,0.0049,0.0086,-0.0514,0.0084,-0.0262,-4.0085,1.3894,8.8192,0.0000,0.0001,0.0001,1.0000,-0.1002,0.0347,0.2205
57169,Pelvis,2,0.0814,-0.6946,-0.0613,0.7121,-0.0062,0.0002,0.0102,0.0354,-0.0000,0.0083,9.6188,1.9746,0.1773,-0.0001,0.0000,0.0001,1.0000,0.2405,0.0494,0.0044
57169,Left,2,-0.0192,0.1882,-0.2940,0.9369,0.0189,0.0185,0.0085,-0.0285,-0.0613,-0.0969,-3.3020,-1.4907,9.0153,0.0002,0.0002,0.0001,1.0000,-0.0825,-0.0373,0.2254
57169,Right,2,-0.0370,0.2174,0.4616,0.8592,0.0029,0.0084,0.0063,-0.0505,0.0196,-0.0185,-4.0028,1.3952,8.8295,0.0000,0.0001,0.0001,1.0000,-0.1000,0.0349,0.2208
57170,Pelvis,2,0.0812,-0.6947,-0.0612,0.7121,-0.0004,-0.0028,0.0155,0.0537,-0.0121,0.0044,9.6186,1.9583,0.1598,-0.0000,-0.0000,0.0002,1.0000,0.2405,0.0490,0.0040
57170,Left,2,-0.0190,0.1882,-0.2938,0.9370,0.0233,0.0208,0.0115,-0.0272,-0.0629,-0.1053,-3.2994,-1.4855,9.0080,0.0003,0.0003,0.0001,1.0000,-0.0824,-0.0372,0.2252
57170,Right,2,-0.0369,0.2175,0.4619,0.8591,0.0041,0.0127,0.0044,-0.0617,0.0007,-0.0164,-4.0234,1.3980,8.8220,0.0001,0.0002,0.0001,1.0000,-0.1006,0.0349,0.2206
57171,Pelvis,2,0.0811,-0.6947,-0.0610,0.7121,0.0012,-0.0071,0.0188,0.0482,-0.0256,-0.0042,9.6136,1.9395,0.1645,0.0000,-0.0001,0.0002,1.0000,0.2403,0.0485,0.0041
57171,Left,2,-0.0188,0.1883,-0.2938,0.9369,0.0190,0.0226,0.0098,-0.0360,-0.0281,-0.0666,-3.3424,-1.4643,9.0373,0.0002,0.0003,0.0001,1.0000,-0.0835,-0.0367,0.2259
57171,Right,2,-0.0369,0.2176,0.4619,0.8590,0.0028,0.0094,0.0051,-0.0753,-0.0147,-0.0144,-4.0441,1.4007,8.8145,0.0000,0.0001,0.0001,1.0000,-0.1011,0.0350,0.2204
57172,Pelvis,2,0.0809,-0.6949,-0.0608,0.7120,0.0058,-0.0132,0.0181,0.0380,-0.0309,-0.0118,9.6077,1.9290,0.1723,0.0001,-0.0002,0.0002,1.0000,0.2402,0.0483,0.0044
57172,Left,2,-0.0187,0.1885,-0.2938,0.9369,0.0143,0.0173,0.0083,-0.0347,-0.0249,-0.0666,-3.3472,-1.4598,9.0362,0.0002,0.0002,0.0001,1.0000,-0.0836,-0.0365,0.2259
57172,Right,2,-0.0370,0.2176,0.4620,0.8590,0.0021,0.0105,0.0072,-0.0736,-0.0032,-0.0066,-4.0391,1.4064,8.8245,0.0000,0.0001,0.0001,1.0000,-0.1010,0.0351,0.2206
57173,Pelvis,2,0.0809,-0.6951,-0.0607,0.7118,0.0088,-0.0192,0.0159,0.0173,-0.0462,0.0129,9.6352,1.9165,0.1895,0.0001,-0.0002,0.0002,1.0000,0.2409,0.0480,0.0048
57173,Left,2,-0.0186,0.1886,-0.2939,0.9368,0.0118,0.0143,0.0053,-0.0201,-0.0385,-0.0424,-3.3396,-1.4660,9.0641,0.0001,0.0002,0.0001,1.0000,-0.0834,-0.0367,0.2266
57173,Right,2,-0.0372,0.2176,0.4619,0.8590,0.0009,0.0086,0.0048,-0.0571,0.0033,-0.0351,-4.0157,1.3902,8.8060,0.0000,0.0001,0.0001,1.0000,-0.1004,0.0347,0.2202
57174,Pelvis,2,0.0808,-0.6953,-0.0604,0.7116,0.0150,-0.0209,0.0174,0.0059,-0.0283,0.0054,9.6250,1.9279,0.1950,0.0002,-0.0003,0.0002,1.0000,0.2406,0.0482,0.0049
57174,Left,2,-0.0186,0.1886,-0.2939,0.9369,0.0142,0.0120,0.0061,-0.0476,-0.0618,-0.0734,-3.3372,-1.4947,9.0271,0.0002,0.0001,0.0001,1.0000,-0.0834,-0.0374,0.2257
57174,Right,2,-0.0372,0.2176,0.4621,0.8589,0.0016,0.0089,0.0063,-0.0708,0.0128,-0.0216,-4.0197,1.4096,8.8162,0.0000,0.0001,0.0001,1.0000,-0.1005,0.0352,0.2204
57175,Pelvis,2,0.0808,-0.6955,-0.0601,0.7114,0.0192,-0.0241,0.0192,-0.0110,-0.0735,0.0196,9.6483,1.8831,0.2073,0.0002,-0.0003,0.0002,1.0000,0.2412,0.0471,0.0053
57175,Left,2,-0.0185,0.1888,-0.2939,0.9368,0.0117,0.0212,0.0076,-0.0050,-0.1013,-0.1510,-3.2583,-1.4934,8.9728,0.0001,0.0003,0.0001,1.0000,-0.0814,-0.0374,0.2243
57175,Right,2,-0.0372,0.2176,0.4622,0.8588,0.0021,0.0111,0.0045,-0.0553,-0.0016,-0.0222,-4.0241,1.3889,8.8167,0.0000,0.0001,0.0001,1.0000,-0.1006,0.0347,0.2204
57176,Pelvis,2,0.0807,-0.6958,-0.0598,0.7112,0.0193,-0.0285,0.0226,-0.0494,-0.1022,0.0786,9.7119,1.8631,0.2410,0.0002,-0.0004,0.0003,1.0000,0.2428,0.0466,0.0061
57176,Left,2,-0.0185,0.1891,-0.2940,0.9367,0.0074,0.0338,0.0095,-0.0219,-0.0331,-0.0738,-3.3402,-1.4592,9.0312,0.0001,0.0004,0.0001,1.0000,-0.0834,-0.0365,0.2258
57176,Right,2,-0.0373,0.2177,0.4623,0.8588,0.0028,0.0137,0.0075,-0.0755,0.0024,-0.0077,-4.0381,1.4095,8.8233,0.0000,0.0002,0.0001,1.0000,-0.1009,0.0352,0.2206
57177,Pelvis,2,0.0806,-0.6961,-0.0595,0.7110,0.0141,-0.0254,0.0303,-0.0884,-0.0874,0.0473,9.6786,1.8668,0.2719,0.0002,-0.0003,0.0004,1.0000,0.2419,0.0468,0.0069
57177,Left,2,-0.0185,0.1894,-0.2939,0.9367,0.0063,0.0315,0.0086,-0.0589,-0.0325,-0.0398,-3.3850,-1.4844,9.0473,0.0001,0.0004,0.0001,1.0000,-0.0845,-0.0371,0.2262
57177,Right,2,-0.0372,0.2178,0.4624,0.8587,0.0055,0.0150,0.0050,-0.0737,-0.0027,-0.0165,-4.0387,1.4058,8.8138,0.0001,0.0002,0.0001,1.0000,-0.1009,0.0351,0.2204
57178,Pelvis,2,0.0803,-0.6964,-0.0592,0.7107,0.0115,-0.0296,0.0381,-0.0768,-0.0312,-0.0060,9.6172,1.9043,0.2500,0.0001,-0.0004,0.0005,1.0000,0.2404,0.0477,0.0063
57178,Left,2,-0.0185,0.1896,-0.2940,0.9366,0.0085,0.0227,0.0049,-0.0586,-0.0675,-0.0666,-3.3603,-1.5111,9.0233,0.0001,0.0003,0.0001,1.0000,-0.0839,-0.0378,0.2256
57178,Right,2,-0.0374,0.2179,0.4624,0.8586,0.0033,0.0157,0.0050,-0.0570,0.0027,-0.0450,-4.0166,1.3901,8.7947,0.0000,0.0002,0.0001,1.0000,-0.1004,0.0347,0.2199
57179,Pelvis,2,0.0800,-0.6967,-0.0588,0.7105,0.0090,-0.0322,0.0369,-0.0684,-0.0170,0.0122,9.6344,1.9119,0.2341,0.0001,-0.0004,0.0005,1.0000,0.2408,0.0479,0.0060
57179,Left,2,-0.0186,0.1897,-0.2942,0.9366,0.0125,0.0197,0.0064,-0.0512,-0.0298,-0.0565,-3.3816,-1.4801,9.0311,0.0002,0.0002,0.0001,1.0000,-0.0845,-0.0370,0.2258
57179,Right,2,-0.0375,0.2180,0.4624,0.8586,0.0080,0.0160,0.0043,-0.0841,-0.0127,-0.0244,-4.0522,1.4045,8.7992,0.0001,0.0002,0.0001,1.0000,-0.1013,0.0351,0.2200
57180,Pelvis,2,0.0796,-0.6971,-0.0585,0.7101,-0.0008,-0.0416,0.0431,-0.0791,-0.0222,0.0045,9.6298,1.8963,0.2354,-0.0000,-0.0005,0.0005,1.0000,0.2407,0.0475,0.0060
57180,Left,2,-0.0186,0.1900,-0.2943,0.9365,0.0120,0.0165,0.0050,-0.0193,-0.0422,-0.0608,-3.3531,-1.4741,9.0380,0.0001,0.0002,0.0001,1.0000,-0.0838,-0.0369,0.2260
57180,Right,2,-0.0375,0.2182,0.4624,0.8586,0.0045,0.0193,0.0051,-0.0599,-0.0039,-0.0094,-4.0444,1.3937,8.8209,0.0001,0.0002,0.0001,1.0000,-0.1011,0.0348,0.2205
57181,Pelvis,2,0.0791,-0.6976,-0.0583,0.7097,-0.0109,-0.0504,0.0432,-0.0984,-0.0501,0.0493,9.6809,1.8682,0.2460,-0.0001,-0.0006,0.0005,1.0000,0.2420,0.0468,0.0063
57181,Left,2,-0.0186,0.1902,-0.2943,0.9364,0.0070,0.0274,0.0056,-0.0428,-0.0454,-0.0998,-3.3581,-1.4841,8.9925,0.0001,0.0003,0.0001,1.0000,-0.0839,-0.0371,0.2248
57181,Right,2,-0.0375,0.2183,0.4625,0.8585,0.0079,0.0095,0.0070,-0.0879,-0.0316,0.0034,-4.0865,1.4039,8.8144,0.0001,0.0001,0.0001,1.0000,-0.1021,0.0351,0.2204
57182,Pelvis,2,0.0787,-0.6980,-0.0583,0.7094,-0.0094,-0.0485,0.0354,-0.1020,-0.0523,0.0302,9.6643,1.8549,0.2385,-0.0001,-0.0006,0.0004,1.0000,0.2416,0.0465,0.0061
57182,Left,2,-0.0186,0.1903,-0.2941,0.9364,0.0008,0.0234,0.0036,-0.0797,-0.0184,-0.0787,-3.4116,-1.4848,8.9952,0.0000,0.0003,0.0000,1.0000,-0.0852,-0.0371,0.2249
57182,Right,2,-0.0373,0.2183,0.4627,0.8584,0.0069,0.0059,0.0085,-0.0704,-0.0038,-0.0352,-4.0395,1.4040,8.7929,0.0001,0.0001,0.0001,1.0000,-0.1010,0.0351,0.2198
57183,Pelvis,2,0.0783,-0.6984,-0.0581,0.7090,-0.0038,-0.0446,0.0284,-0.0893,-0.0914,0.0377,9.6811,1.8103,0.2162,-0.0000,-0.0006,0.0004,1.0000,0.2420,0.0453,0.0055
57183,Left,2,-0.0187,0.1904,-0.2942,0.9364,0.0024,0.0151,0.0032,-0.0069,-0.0394,-0.0629,-3.3523,-1.4682,9.0370,0.0000,0.0002,0.0000,1.0000,-0.0838,-0.0367,0.2259
57183,Right,2,-0.0372,0.2184,0.4629,0.8583,0.0077,0.0050,0.0088,-0.0836,-0.0201,-0.0332,-4.0588,1.4080,8.7857,0.0001,0.0001,0.0001,1.0000,-0.1015,0.0352,0.2197
57184,Pelvis,2,0.0780,-0.6989,-0.0579,0.7086,0.0021,-0.0444,0.0309,-0.1095,-0.1097,0.0024,9.6512,1.7788,0.2260,0.0000,-0.0006,0.0004,1.0000,0.2413,0.0446,0.0058
57184,Left,2,-0.0188,0.1907,-0.2942,0.9363,-0.0014,0.0201,0.0028,0.0084,-0.0258,-0.1094,-3.3371,-1.4440,8.9963,-0.0000,0.0003,0.0000,1.0000,-0.0834,-0.0361,0.2249
57184,Right,2,-0.0371,0.2185,0.4630,0.8582,0.0075,0.0055,0.0103,-0.0553,0.0331,-0.0344,-4.0045,1.4196,8.8073,0.0001,0.0001,0.0001,1.0000,-0.1001,0.0355,0.2202
57185,Pelvis,2,0.0778,-0.6993,-0.0575,0.7082,0.0094,-0.0531,0.0323,-0.1428,-0.1414,0.0205,9.6762,1.7437,0.2497,0.0001,-0.0007,0.0004,1.0000,0.2419,0.0437,0.0064
57185,Left,2,-0.0188,0.1911,-0.2941,0.9363,-0.0085,0.0304,0.0030,-0.0395,-0.0677,-0.0951,-3.3605,-1.5087,8.9927,-0.0001,0.0004,0.0000,1.0000,-0.0839,-0.0377,0.2249
57185,Right,2,-0.0370,0.2186,0.4632,0.8581,0.0099,0.0048,0.0120,-0.0644,-0.0291,0.0184,-4.0790,1.4018,8.8347,0.0001,0.0001,0.0001,1.0000,-0.1020,0.0350,0.2209
57186,Pelvis,2,0.0777,-0.6998,-0.0572,0.7078,0.0279,-0.0515,0.0290,-0.1566,-0.1471,-0.0061,9.6524,1.7268,0.2509,0.0003,-0.0006,0.0004,1.0000,0.2413,0.0433,0.0064
57186,Left,2,-0.0188,0.1916,-0.2941,0.9362,-0.0077,0.0331,0.0016,-0.0385,-0.0514,-0.0685,-3.3859,-1.5013,9.0130,-0.0001,0.0004,0.0000,1.0000,-0.0846,-0.0375,0.2254
57186,Right,2,-0.0369,0.2187,0.4633,0.8580,0.0069,-0.0035,0.0123,-0.0743,-0.0259,-0.0291,-4.0624,1.4086,8.7885,0.0001,-0.0000,0.0002,1.0000,-0.1016,0.0352,0.2197
57187,Pelvis,2,0.0777,-0.7003,-0.0566,0.7073,0.0310,-0.0603,0.0328,-0.1943,-0.0916,0.0122,9.6612,1.7779,0.2736,0.0004,-0.0008,0.0004,1.0000,0.2415,0.0445,0.0070
57187,Left,2,-0.0190,0.1921,-0.2942,0.9361,-0.0130,0.0311,0.0038,-0.0091,-0.0296,-0.0906,-3.3757,-1.4692,8.9981,-0.0002,0.0004,0.0000,1.0000,-0.0843,-0.0367,0.2250
57187,Right,2,-0.0368,0.2186,0.4633,0.8580,0.0079,-0.0028,0.0119,-0.0626,0.0005,-0.0450,-4.0291,1.4121,8.7855,0.0001,-0.0000,0.0001,1.0000,-0.1007,0.0353,0.2196
57188,Pelvis,2,0.0774,-0.7010,-0.0561,0.7067,0.0228,-0.0780,0.0427,-0.1602,0.0106,0.0639,9.6953,1.8780,0.2197,0.0003,-0.0010,0.0005,1.0000,0.2424,0.0471,0.0057
57188,Left,2,-0.0190,0.1928,-0.2941,0.9360,-0.0243,0.0411,0.0020,0.0018,-0.0633,-0.1291,-3.3460,-1.4889,8.9645,-0.0003,0.0005,0.0000,1.0000,-0.0835,-0.0372,0.2242
57188,Right,2,-0.0368,0.2189,0.4634,0.8579,0.0084,0.0097,0.0126,-0.0662,-0.0006,0.0083,-4.0548,1.4257,8.8307,0.0001,0.0001,0.0002,1.0000,-0.1014,0.0356,0.2208
57189,Pelvis,2,0.0770,-0.7018,-0.0558,0.7060,0.0034,-0.0859,0.0478,-0.2106,-0.0582,0.1163,9.7615,1.8112,0.2534,0.0000,-0.0011,0.0006,1.0000,0.2440,0.0454,0.0066
57189,Left,2,-0.0192,0.1935,-0.2938,0.9359,-0.0305,0.0529,0.0043,-0.0168,-0.0584,-0.0922,-3.3857,-1.5068,8.9865,-0.0004,0.0007,0.0001,1.0000,-0.0845,-0.0376,0.2247
57189,Right,2,-0.0365,0.2191,0.4637,0.8577,0.0111,0.0131,0.0093,-0.0644,-0.0179,-0.0084,-4.0615,1.4193,8.8102,0.0001,0.0002,0.0001,1.0000,-0.1015,0.0354,0.2203
57190,Pelvis,2,0.0765,-0.7025,-0.0555,0.7054,-0.0012,-0.0801,0.0466,-0.2460,-0.1430,-0.0049,9.6606,1.6951,0.2718,-0.0000,-0.0010,0.0006,1.0000,0.2415,0.0425,0.0070
57190,Left,2,-0.0197,0.1943,-0.2939,0.9357,-0.0369,0.0569,0.0025,-0.0130,-0.0465,-0.0608,-3.4116,-1.5111,9.0099,-0.0005,0.0007,0.0000,1.0000,-0.0851,-0.0377,0.2253
57190,Right,2,-0.0366,0.2192,0.4637,0.8577,0.0097,0.0128,0.0096,-0.0573,0.0046,-0.0677,-4.0178,1.4186,8.7643,0.0001,0.0002,0.0001,1.0000,-0.1004,0.0354,0.2191
57191,Pelvis,2,0.0760,-0.7033,-0.0552,0.7047,-0.0019,-0.0840,0.0476,-0.3050,-0.1863,-0.0211,9.6547,1.6409,0.3130,-0.0000,-0.0010,0.0006,1.0000,0.2413,0.0412,0.0081
57191,Left,2,-0.0201,0.1952,-0.2938,0.9355,-0.0409,0.0657,0.0011,-0.0234,-0.0741,-0.1069,-3.4004,-1.5448,8.9587,-0.0005,0.0008,0.0000,1.0000,-0.0848,-0.0385,0.2241
57191,Right,2,-0.0366,0.2194,0.4638,0.8576,0.0050,0.0141,0.0079,-0.0595,-0.0009,-0.0233,-4.0436,1.4264,8.8006,0.0001,0.0002,0.0001,1.0000,-0.1011,0.0356,0.2200
57192,Pelvis,2,0.0755,-0.7041,-0.0547,0.7040,0.0042,-0.0973,0.0504,-0.3659,-0.2054,-0.0466,9.6357,1.6059,0.3547,0.0001,-0.0012,0.0006,1.0000,0.2409,0.0403,0.0092
57192,Left,2,-0.0204,0.1963,-0.2939,0.9352,-0.0374,0.0799,0.0027,-0.0148,-0.0750,-0.1369,-3.3992,-1.5487,8.9261,-0.0005,0.0010,0.0000,1.0000,-0.0848,-0.0386,0.2233
57192,Right,2,-0.0367,0.2196,0.4639,0.8575,-0.0003,0.0184,0.0068,-0.0614,-0.0017,-0.0450,-4.0400,1.4254,8.7783,-0.0000,0.0002,0.0001,1.0000,-0.1010,0.0356,0.2195
57193,Pelvis,2,0.0749,-0.7052,-0.0543,0.7030,0.0071,-0.1144,0.0629,-0.4135,-0.1426,-0.0463,9.6276,1.6558,0.3752,0.0001,-0.0014,0.0008,1.0000,0.2406,0.0416,0.0097
57193,Left,2,-0.0207,0.1978,-0.2940,0.9349,-0.0391,0.1005,0.0034,-0.0384,-0.0741,-0.0881,-3.4555,-1.5823,8.9516,-0.0005,0.0013,0.0000,1.0000,-0.0861,-0.0395,0.2239
57193,Right,2,-0.0370,0.2197,0.4638,0.8574,-0.0066,0.0227,0.0057,-0.0563,-0.0129,-0.0053,-4.0675,1.4172,8.8111,-0.0001,0.0003,0.0001,1.0000,-0.1016,0.0354,0.2203
57194,Pelvis,2,0.0743,-0.7062,-0.0538,0.7020,0.0077,-0.1170,0.0645,-0.4653,-0.1897,0.0061,9.6914,1.6058,0.4009,0.0001,-0.0015,0.0008,1.0000,0.2422,0.0403,0.0104
57194,Left,2,-0.0211,0.1992,-0.2940,0.9346,-0.0515,0.1044,0.0023,-0.0361,-0.0309,-0.0614,-3.5099,-1.5633,8.9625,-0.0006,0.0013,0.0000,1.0000,-0.0875,-0.0389,0.2242
57194,Right,2,-0.0373,0.2199,0.4639,0.8573,-0.0178,0.0209,0.0036,-0.0639,-0.0221,-0.0260,-4.0743,1.4134,8.7856,-0.0002,0.0003,0.0000,1.0000,-0.1018,0.0354,0.2197
57195,Pelvis,2,0.0739,-0.7073,-0.0533,0.7010,0.0196,-0.1236,0.0612,-0.5121,-0.3108,-0.0522,9.6595,1.4633,0.4225,0.0002,-0.0015,0.0008,1.0000,0.2414,0.0368,0.0109
57195,Left,2,-0.0215,0.2006,-0.2939,0.9343,-0.0617,0.0994,-0.0025,-0.0429,-0.0250,-0.0315,-3.5505,-1.5809,8.9760,-0.0008,0.0012,-0.0000,1.0000,-0.0885,-0.0393,0.2245
57195,Right,2,-0.0376,0.2199,0.4641,0.8572,-0.0226,0.0164,0.0026,-0.0488,0.0022,-0.0202,-4.0530,1.4122,8.8020,-0.0003,0.0002,0.0000,1.0000,-0.1013,0.0354,0.2201
57196,Pelvis,2,0.0735,-0.7085,-0.0526,0.6999,0.0351,-0.1280,0.0629,-0.5989,-0.2849,-0.1223,9.5900,1.4646,0.4803,0.0004,-0.0016,0.0008,1.0000,0.2397,0.0368,0.0124
57196,Left,2,-0.0219,0.2021,-0.2938,0.9340,-0.0605,0.0933,-0.0020,-0.0461,-0.0811,-0.0415,-3.5427,-1.6430,8.9574,-0.0008,0.0012,-0.0000,1.0000,-0.0883,-0.0409,0.2241
57196,Right,2,-0.0378,0.2200,0.4642,0.8571,-0.0159,0.0102,0.0085,-0.0486,-0.0556,0.0012,-4.1112,1.3796,8.8041,-0.0002,0.0001,0.0001,1.0000,-0.1028,0.0345,0.2201
57197,Pelvis,2,0.0732,-0.7097,-0.0518,0.6987,0.0406,-0.1436,0.0715,-0.7278,-0.1520,-0.1538,9.5408,1.5786,0.5736,0.0005,-0.0018,0.0009,1.0000,0.2385,0.0397,0.0148
57197,Left,2,-0.0224,0.2034,-0.2938,0.9337,-0.0552,0.0837,0.0021,-0.0572,-0.0709,-0.0393,-3.5788,-1.6572,8.9428,-0.0007,0.0010,0.0000,1.0000,-0.0892,-0.0413,0.2237
57197,Right,2,-0.0378,0.2201,0.4644,0.8570,-0.0007,0.0000,0.0159,-0.0649,-0.0320,-0.0338,-4.0885,1.4006,8.7723,-0.0000,0.0000,0.0002,1.0000,-0.1022,0.0350,0.2193
57198,Pelvis,2,0.0726,-0.7111,-0.0508,0.6975,0.0374,-0.1513,0.0894,-0.7697,-0.0714,-0.0941,9.5911,1.6512,0.5778,0.0005,-0.0019,0.0011,1.0000,0.2397,0.0415,0.0149
57198,Left,2,-0.0228,0.2049,-0.2939,0.9333,-0.0506,0.0859,0.0061,-0.0264,-0.0639,-0.0664,-3.5719,-1.6483,8.9174,-0.0006,0.0011,0.0001,1.0000,-0.0891,-0.0411,0.2231
57198,Right,2,-0.0377,0.2203,0.4644,0.8569,0.0159,0.0035,0.0252,-0.0478,0.0024,-0.0724,-4.0397,1.4019,8.7516,0.0002,0.0000,0.0003,1.0000,-0.1010,0.0350,0.2188
57199,Pelvis,2,0.0719,-0.7123,-0.0498,0.6965,0.0384,-0.1315,0.1046,-0.8440,-0.1074,0.0339,9.7304,1.6186,0.6171,0.0005,-0.0016,0.0013,1.0000,0.2432,0.0408,0.0158
57199,Left,2,-0.0235,0.2064,-0.2940,0.9330,-0.0645,0.0898,0.0036,0.0351,-0.0260,-0.0400,-3.5787,-1.6063,8.9510,-0.0008,0.0011,0.0000,1.0000,-0.0892,-0.0400,0.2239
57199,Right,2,-0.0375,0.2208,0.4646,0.8567,0.0350,0.0265,0.0386,-0.0543,0.0357,-0.1616,-3.9838,1.4207,8.6751,0.0004,0.0003,0.0005,1.0000,-0.0995,0.0354,0.2169
57200,Pelvis,2,0.0712,-0.7132,-0.0485,0.6957,0.0484,-0.0974,0.1161,-0.9948,-0.0639,0.1788,9.8746,1.6656,0.7355,0.0006,-0.0012,0.0015,1.0000,0.2468,0.0420,0.0187
57200,Left,2,-0.0243,0.2080,-0.2940,0.9326,-0.0885,0.0967,-0.0041,0.0303,-0.0115,-0.0148,-3.6223,-1.6225,8.9580,-0.0011,0.0012,-0.0001,1.0000,-0.0903,-0.0403,0.2241
57200,Right,2,-0.0370,0.2217,0.4649,0.8564,0.0569,0.0416,0.0474,-0.0510,0.0143,-0.0331,-4.0595,1.4379,8.7804,0.0007,0.0005,0.0006,1.0000,-0.1014,0.0357,0.2196
57201,Pelvis,2,0.0706,-0.7139,-0.0469,0.6951,0.0603,-0.0721,0.1235,-1.0548,0.1782,0.1209,9.7848,1.8679,0.7681,0.0008,-0.0009,0.0015,1.0000,0.2445,0.0471,0.0195
57201,Left,2,-0.0253,0.2097,-0.2942,0.9321,-0.0956,0.0991,-0.0071,0.0007,0.0065,0.0459,-3.7006,-1.6628,8.9851,-0.0012,0.0012,-0.0001,1.0000,-0.0922,-0.0413,0.2248
57201,Right,2,-0.0365,0.2224,0.4652,0.8560,0.0620,0.0317,0.0558,0.0029,-0.0481,-0.0030,-4.1034,1.3790,8.8030,0.0008,0.0004,0.0007,1.0000,-0.1025,0.0342,0.2201
57202,Pelvis,2,0.0699,-0.7143,-0.0457,0.6948,0.0387,-0.0454,0.1137,-1.0901,0.2368,0.0091,9.6719,1.8816,0.7904,0.0005,-0.0006,0.0014,1.0000,0.2417,0.0474,0.0199
57202,Left,2,-0.0265,0.2114,-0.2944,0.9316,-0.1156,0.1066,-0.0227,0.0653,0.0208,0.0289,-3.6763,-1.6429,8.9804,-0.0014,0.0013,-0.0003,1.0000,-0.0916,-0.0407,0.2247
57202,Right,2,-0.0360,0.2228,0.4658,0.8556,0.0502,0.0140,0.0711,-0.0631,-0.0296,0.0364,-4.1380,1.4647,8.8171,0.0006,0.0002,0.0009,1.0000,-0.1034,0.0364,0.2205
57203,Pelvis,2,0.0693,-0.7140,-0.0445,0.6952,0.0347,0.0300,0.1051,-1.0907,0.1836,-0.0393,9.6377,1.7964,0.7940,0.0004,0.0004,0.0013,1.0000,0.2409,0.0452,0.0198
57203,Left,2,-0.0284,0.2135,-0.2947,0.9310,-0.1616,0.1196,-0.0459,0.0393,0.0706,0.2365,-3.8250,-1.6928,9.1376,-0.0020,0.0015,-0.0006,1.0000,-0.0953,-0.0418,0.2287
57203,Right,2,-0.0355,0.2229,0.4665,0.8553,0.0295,-0.0024,0.0709,-0.0780,-0.0239,-0.0023,-4.1224,1.4894,8.7771,0.0004,-0.0000,0.0009,1.0000,-0.1031,0.0371,0.2194
57204,Pelvis,2,0.0693,-0.7131,-0.0430,0.6963,0.0894,0.1046,0.0908,-0.9877,0.2794,-0.0124,9.6492,1.8700,0.7037,0.0011,0.0013,0.0011,1.0000,0.2412,0.0470,0.0173
57204,Left,2,-0.0310,0.2155,-0.2953,0.9303,-0.2181,0.1042,-0.0786,0.0953,0.1497,0.5272,-3.9613,-1.7056,9.3991,-0.0027,0.0013,-0.0010,1.0000,-0.0988,-0.0419,0.2352
57204,Right,2,-0.0347,0.2228,0.4671,0.8549,0.0405,-0.0245,0.0720,-0.0674,-0.0587,0.0032,-4.1402,1.4763,8.7772,0.0005,-0.0003,0.0009,1.0000,-0.1036,0.0367,0.2194
57205,Pelvis,2,0.0700,-0.7115,-0.0414,0.6980,0.1177,0.1871,0.0481,-0.6615,0.3337,0.1743,9.8192,1.9255,0.4053,0.0015,0.0023,0.0006,1.0000,0.2455,0.0483,0.0096
57205,Left,2,-0.0363,0.2191,-0.2959,0.9290,-0.4555,0.1500,-0.1290,0.4727,0.3270,0.6318,-3.8529,-1.4741,9.6126,-0.0057,0.0019,-0.0016,1.0000,-0.0959,-0.0353,0.2407
57205,Right,2,-0.0337,0.2226,0.4678,0.8547,0.0462,-0.0551,0.0754,-0.1178,-0.0280,0.1067,-4.1720,1.5672,8.8627,0.0006,-0.0007,0.0009,1.0000,-0.1045,0.0390,0.2215
57206,Pelvis,2,0.0713,-0.7094,-0.0399,0.7001,0.1442,0.2380,0.0055,-0.2409,0.1704,0.1801,9.8440,1.7425,0.0402,0.0018,0.0030,0.0001,1.0000,0.2461,0.0436,0.0004
57206,Left,2,-0.0481,0.2241,-0.2973,0.9269,-0.9583,0.1361,-0.3219,-0.2471,0.9437,1.4689,-5.0745,-1.7249,9.9753,-0.0120,0.0017,-0.0040,0.9999,-0.1266,-0.0396,0.2501
57206,Right,2,-0.0324,0.2219,0.4685,0.8545,0.0513,-0.0915,0.0679,-0.0950,-0.1507,0.1913,-4.2719,1.5118,8.9206,0.0006,-0.0011,0.0008,1.0000,-0.1071,0.0376,0.2229
57207,Pelvis,2,0.0729,-0.7074,-0.0382,0.7020,0.1838,0.2260,0.0070,0.0543,0.4780,-0.2196,9.3986,1.9700,-0.2097,0.0023,0.0028,0.0001,1.0000,0.2349,0.0493,-0.0058
57207,Left,2,-0.0668,0.2218,-0.3017,0.9248,-1.2373,-0.5698,-0.6783,0.7683,2.7919,3.2301,-6.0052,-0.4526,11.9270,-0.0155,-0.0071,-0.0085,0.9998,-0.1523,-0.0054,0.2972
57207,Right,2,-0.0309,0.2205,0.4689,0.8547,0.0455,-0.1501,0.0465,-0.2189,-0.0464,0.2347,-4.2353,1.6931,8.9552,0.0006,-0.0019,0.0006,1.0000,-0.1063,0.0421,0.2237
57208,Pelvis,2,0.0740,-0.7063,-0.0366,0.7031,0.1373,0.1243,0.0210,0.5196,1.2412,-0.4416,9.0607,2.6603,-0.6739,0.0017,0.0016,0.0003,1.0000,0.2265,0.0666,-0.0171
57208,Left,2,-0.0914,0.2036,-0.3071,0.9251,-1.2583,-1.9231,-0.8876,-0.6703,2.0752,1.7050,-5.7043,-1.8699,10.0709,-0.0157,-0.0240,-0.0111,0.9995,-0.1491,-0.0412,0.2489
57208,Right,2,-0.0297,0.2183,0.4693,0.8551,-0.0024,-0.2013,0.0239,0.0069,0.0039,0.0893,-3.9907,1.5226,8.9335,-0.0000,-0.0025,0.0003,1.0000,-0.1003,0.0380,0.2231
57209,Pelvis,2,0.0738,-0.7057,-0.0369,0.7037,-0.0265,0.0478,-0.0057,0.8290,1.8799,-0.1561,9.2450,3.3168,-1.0000,-0.0003,0.0006,-0.0001,1.0000,0.2311,0.0829,-0.0252
57209,Left,2,-0.1186,0.1817,-0.3149,0.9240,-1.3458,-2.2106,-1.1952,-1.5067,3.2870,1.0931,-6.3017,-1.6525,9.4670,-0.0168,-0.0276,-0.0149,0.9994,-0.1646,-0.0349,0.2328
57209,Right,2,-0.0286,0.2156,0.4697,0.8556,-0.0280,-0.2270,0.0212,0.0571,0.0061,0.0496,-3.8992,1.4748,8.9381,-0.0003,-0.0028,0.0003,1.0000,-0.0981,0.0369,0.2232
57210,Pelvis,2,0.0721,-0.7057,-0.0394,0.7037,-0.2201,-0.0183,-0.0299,0.8478,2.1667,-0.0614,9.2919,3.6230,-1.0172,-0.0028,-0.0002,-0.0004,1.0000,0.2323,0.0904,-0.0256
57210,Left,2,-0.1416,0.1747,-0.3228,0.9193,-1.4432,-0.9480,-1.0917,-6.9001,5.8746,-5.9719,-9.7282,-0.6124,1.3687,-0.0180,-0.0118,-0.0136,0.9997,-0.2438,-0.0114,0.0316
57210,Right,2,-0.0276,0.2126,0.4701,0.8562,-0.0506,-0.2414,0.0094,0.0045,0.0829,-0.0389,-3.7721,1.5400,8.8845,-0.0006,-0.0030,0.0001,1.0000,-0.0950,0.0386,0.2218
57211,Pelvis,2,0.0683,-0.7066,-0.0433,0.7029,-0.4251,-0.1463,-0.0038,0.7720,2.0764,-0.4236,8.9450,3.4929,-0.9218,-0.0053,-0.0018,-0.0000,1.0000,0.2237,0.0872,-0.0231
57211,Left,2,-0.1361,0.1785,-0.3191,0.9208,0.2791,0.3535,0.4440,-6.0376,11.8016,-3.5526,-13.4426,3.3383,4.8035,0.0035,0.0044,0.0055,1.0000,-0.3360,0.0812,0.1219
57211,Right,2,-0.0266,0.2098,0.4705,0.8567,-0.0249,-0.2297,0.0107,0.0035,0.0020,-0.0517,-3.7761,1.4841,8.8778,-0.0003,-0.0029,0.0001,1.0000,-0.0950,0.0372,0.2217
57212,Pelvis,2,0.0624,-0.7086,-0.0489,0.7012,-0.6253,-0.2714,0.0308,0.8946,1.9101,-0.3698,9.0197,3.3443,-1.0382,-0.0078,-0.0034,0.0004,1.0000,0.2255,0.0835,-0.0258
57212,Left,2,-0.1161,0.1863,-0.3059,0.9264,1.1461,0.8589,1.4992,-5.7924,10.5497,-2.7400,-12.6793,2.6242,5.2215,0.0143,0.0107,0.0187,0.9997,-0.3167,0.0578,0.1348
57212,Right,2,-0.0253,0.2072,0.4708,0.8572,0.0006,-0.2184,0.0197,0.0358,-0.0155,-0.0451,-3.7239,1.4440,8.9138,0.0000,-0.0027,0.0002,1.0000,-0.0937,0.0361,0.2226
57213,Pelvis,2,0.0552,-0.7112,-0.0563,0.6985,-0.7847,-0.3701,0.0010,1.0592,1.6040,0.1060,9.5282,3.1312,-1.2177,-0.0098,-0.0046,0.0000,0.9999,0.2383,0.0780,-0.0301
57213,Left,2,-0.0877,0.1999,-0.2943,0.9304,1.6388,1.5231,1.5216,-8.8840,4.4687,-0.3786,-12.0968,-3.9094,5.1318,0.0205,0.0190,0.0190,0.9994,-0.2980,-0.1061,0.1319
57213,Right,2,-0.0242,0.2049,0.4711,0.8576,0.0051,-0.1993,0.0145,-0.0469,0.0820,-0.0622,-3.6287,1.5624,8.9148,0.0001,-0.0025,0.0002,1.0000,-0.0913,0.0390,0.2226
57214,Pelvis,2,0.0472,-0.7139,-0.0654,0.6956,-0.9310,-0.4072,-0.0459,1.0559,1.5314,0.0980,9.5180,3.0922,-1.2364,-0.0116,-0.0051,-0.0006,0.9999,0.2381,0.0768,-0.0306
57214,Left,2,-0.0569,0.2149,-0.2975,0.9285,1.9785,1.8866,0.3329,-8.7689,1.4917,0.8041,-10.9862,-6.0755,5.8525,0.0247,0.0236,0.0042,0.9994,-0.2705,-0.1567,0.1489
57214,Right,2,-0.0232,0.2030,0.4713,0.8580,0.0115,-0.1592,0.0116,-0.0700,0.0703,-0.1610,-3.5686,1.5588,8.8317,0.0001,-0.0020,0.0001,1.0000,-0.0897,0.0389,0.2206
57215,Pelvis,2,0.0381,-0.7167,-0.0756,0.6922,-1.0541,-0.4481,-0.0513,0.6790,1.5203,0.0258,9.4437,3.0999,-0.8798,-0.0132,-0.0056,-0.0006,0.9999,0.2363,0.0771,-0.0217
57215,Left,2,-0.0318,0.2355,-0.3177,0.9179,1.6754,2.3846,-1.2153,-6.9763,1.0845,0.0271,-9.4128,-5.1166,5.6479,0.0209,0.0298,-0.0152,0.9992,-0.2330,-0.1274,0.1455
57215,Right,2,-0.0223,0.2020,0.4715,0.8581,0.0356,-0.0880,0.0168,-0.0663,0.1298,-0.2139,-3.4677,1.5843,8.8104,0.0004,-0.0011,0.0002,1.0000,-0.0869,0.0395,0.2202
57216,Pelvis,2,0.0275,-0.7193,-0.0867,0.6888,-1.1780,-0.4463,-0.0134,0.4292,1.5808,-0.0660,9.3419,3.1626,-0.6382,-0.0147,-0.0056,-0.0002,0.9999,0.2336,0.0788,-0.0158
57216,Left,2,-0.0117,0.2625,-0.3499,0.8992,1.3495,2.9113,-2.3763,-4.0883,2.6809,0.8836,-9.0169,-2.5550,7.1081,0.0169,0.0364,-0.0297,0.9988,-0.2206,-0.0603,0.1848
57216,Right,2,-0.0215,0.2022,0.4718,0.8580,0.0687,-0.0049,0.0311,-0.0444,0.0836,-0.2218,-3.4787,1.5512,8.8026,0.0009,-0.0001,0.0004,1.0000,-0.0870,0.0386,0.2201
57217,Pelvis,2,0.0157,-0.7211,-0.0982,0.6856,-1.2793,-0.4067,0.0369,0.1874,1.4185,-0.1379,9.3038,2.9869,-0.4088,-0.0160,-0.0051,0.0005,0.9999,0.2326,0.0746,-0.0102
57217,Left,2,0.0049,0.2927,-0.3859,0.8748,1.0832,3.1735,-2.8824,-0.1446,3.6086,1.5207,-8.0099,0.1564,8.7971,0.0135,0.0396,-0.0360,0.9985,-0.1911,0.0079,0.2277
57217,Right,2,-0.0207,0.2035,0.4721,0.8575,0.1063,0.0789,0.0460,-0.0708,0.0747,-0.2153,-3.5035,1.5891,8.7933,0.0013,0.0010,0.0006,1.0000,-0.0874,0.0394,0.2200
57218,Pelvis,2,0.0031,-0.7221,-0.1099,0.6830,-1.3350,-0.3321,0.0680,-0.1917,1.0216,-0.0962,9.4306,2.5592,-0.0731,-0.0167,-0.0042,0.0008,0.9999,0.2357,0.0641,-0.0019
57218,Left,2,0.0183,0.3222,-0.4185,0.8490,0.8034,3.0501,-2.7574,3.9709,2.6986,1.7115,-6.1441,1.9920,10.6883,0.0100,0.0381,-0.0345,0.9986,-0.1415,0.0521,0.2733
57218,Right,2,-0.0196,0.2060,0.4724,0.8568,0.1743,0.1482,0.0659,0.0210,-0.0719,-0.0779,-3.6498,1.4888,8.9014,0.0022,0.0019,0.0008,1.0000,-0.0909,0.0367,0.2228
57219,Pelvis,2,-0.0097,-0.7225,-0.1218,0.6805,-1.3639,-0.2979,0.0784,-0.6981,0.8114,-0.1358,9.4630,2.2524,0.4078,-0.0170,-0.0037,0.0010,0.9998,0.2365,0.0567,0.0101
57219,Left,2,0.0285,0.3473,-0.4449,0.8250,0.5678,2.6126,-2.3569,6.3941,0.0971,0.5773,-3.5323,2.1924,11.4731,0.0071,0.0326,-0.0295,0.9990,-0.0773,0.0551,0.2899
57219,Right,2,-0.0176,0.2085,0.4728,0.8560,0.2374,0.1162,0.0912,-0.0359,-0.1990,0.1799,-3.8982,1.5585,9.0703,0.0030,0.0015,0.0011,1.0000,-0.0972,0.0382,0.2270
57220,Pelvis,2,-0.0228,-0.7220,-0.1334,0.6785,-1.3763,-0.2275,0.1055,-1.2238,0.8642,-0.2019,9.4373,2.1536,0.9546,-0.0172,-0.0028,0.0013,0.9998,0.2358,0.0546,0.0236
57220,Left,2,0.0367,0.3663,-0.4651,0.8051,0.4706,2.0335,-1.8334,8.0426,-2.1500,-1.5369,-0.8560,2.6559,11.4039,0.0059,0.0254,-0.0229,0.9994,-0.0126,0.0651,0.2859
57220,Right,2,-0.0145,0.2099,0.4733,0.8554,0.2690,0.0055,0.1060,-0.1051,-0.1526,0.2611,-3.9288,1.7191,9.1173,0.0034,0.0001,0.0013,1.0000,-0.0983,0.0421,0.2281
57221,Pelvis,2,-0.0365,-0.7216,-0.1449,0.6760,-1.4011,-0.2660,0.1454,-1.8003,1.1208,-0.4266,9.2367,2.1675,1.6065,-0.0175,-0.0033,0.0018,0.9998,0.2307,0.0553,0.0400
57221,Left,2,0.0453,0.3778,-0.4770,0.7923,0.5092,1.3790,-1.0115,9.1459,-4.1370,-4.6968,2.3014,3.4192,10.4865,0.0064,0.0172,-0.0126,0.9998,0.0631,0.0830,0.2616
57221,Right,2,-0.0106,0.2105,0.4738,0.8550,0.2928,-0.0929,0.1095,-0.1357,-0.0878,0.2066,-3.8539,1.8425,9.0645,0.0037,-0.0012,0.0014,1.0000,-0.0967,0.0451,0.2267
57222,Pelvis,2,-0.0503,-0.7203,-0.1567,0.6738,-1.4323,-0.2037,0.1369,-1.9108,1.5782,-0.5710,9.0553,2.4606,1.8707,-0.0179,-0.0025,0.0017,0.9998,0.2262,0.0627,0.0462
57222,Left,2,0.0563,0.3829,-0.4816,0.7863,0.6604,0.9010,-0.1976,7.4725,-5.9805,-10.2188,6.4334,2.8578,6.4977,0.0083,0.0113,-0.0025,0.9999,0.1628,0.0697,0.1612
57222,Right,2,-0.0039,0.2103,0.4742,0.8549,0.4518,-0.2539,0.1433,-0.0544,-0.3931,0.7144,-4.2028,1.7975,9.4913,0.0056,-0.0032,0.0018,1.0000,-0.1059,0.0434,0.2372
57223,Pelvis,2,-0.0635,-0.7185,-0.1699,0.6714,-1.4895,-0.1654,0.0330,-2.0772,1.9421,-0.2099,9.3889,2.7214,2.1780,-0.0186,-0.0021,0.0004,0.9998,0.2346,0.0691,0.0537
57223,Left,2,0.0813,0.3765,-0.4996,0.7759,2.4188,0.7805,-0.7192,-5.4993,-20.6842,-0.7381,7.5130,-17.4387,13.4190,0.0302,0.0098,-0.0090,0.9995,0.1870,-0.4475,0.3202
57223,Right,2,0.0071,0.2095,0.4747,0.8548,0.7225,-0.4655,0.2152,-0.2994,-0.3445,1.1738,-4.3446,2.2726,9.8426,0.0090,-0.0058,0.0027,0.9999,-0.1102,0.0543,0.2459
57224,Pelvis,2,-0.0759,-0.7163,-0.1853,0.6685,-1.5732,-0.1536,-0.1326,-2.3487,1.9015,0.3283,9.9546,2.6063,2.4669,-0.0197,-0.0019,-0.0017,0.9998,0.2489,0.0659,0.0609
57224,Left,2,0.0835,0.3105,-0.5429,0.7758,4.0891,-4.2914,-2.1909,16.2423,-10.5663,13.3599,-2.8345,4.0600,29.8219,0.0511,-0.0536,-0.0274,0.9969,-0.1087,0.0660,0.7444
57224,Right,2,0.0237,0.2062,0.4756,0.8548,1.0043,-0.8524,0.3353,-0.1712,-0.7835,1.9187,-4.7190,2.3364,10.5144,0.0126,-0.0107,0.0042,0.9999,-0.1210,0.0546,0.2623
57225,Pelvis,2,-0.0882,-0.7147,-0.2027,0.6636,-1.6965,-0.2822,-0.2820,-2.4883,1.8295,0.0923,9.7454,2.3983,2.6310,-0.0212,-0.0035,-0.0035,0.9998,0.2436,0.0605,0.0654
57225,Left,2,0.0566,0.2693,-0.5538,0.7859,0.3344,-4.0507,-0.6187,-3.8629,-3.9511,2.0219,-3.9372,-7.4710,9.9698,0.0042,-0.0506,-0.0077,0.9987,-0.1123,-0.1870,0.2430
57225,Right,2,0.0439,0.1999,0.4765,0.8550,1.1302,-1.1971,0.4050,0.3420,-1.6201,2.4422,-5.0445,1.9239,11.1264,0.0141,-0.0150,0.0051,0.9998,-0.1305,0.0435,0.2769
57226,Pelvis,2,-0.0990,-0.7166,-0.2225,0.6536,-1.7311,-0.7196,-0.6120,-1.2461,1.5751,0.9745,10.5124,2.8420,1.3459,-0.0216,-0.0090,-0.0076,0.9997,0.2630,0.0698,0.0345
57226,Left,2,0.0349,0.2316,-0.5562,0.7974,0.3148,-3.5809,0.0715,2.9716,-2.8825,-1.2257,-0.6085,-0.1782,9.5150,0.0039,-0.0447,0.0009,0.9990,-0.0258,-0.0054,0.2369
57226,Right,2,0.0653,0.1885,0.4779,0.8555,1.0117,-1.5974,0.4567,-0.1727,-1.6729,2.4552,-4.9200,2.6582,11.0493,0.0126,-0.0200,0.0057,0.9997,-0.1289,0.0623,0.2745
57227,Pelvis,2,-0.1043,-0.7167,-0.2457,0.6443,-1.6667,-0.4477,-1.0624,-0.2572,-0.1020,2.6319,12.2208,2.3308,-0.4181,-0.0208,-0.0056,-0.0133,0.9997,0.3063,0.0540,-0.0099
57227,Left,2,0.0260,0.2093,-0.5586,0.8022,0.4655,-1.9171,-0.0406,1.8238,-2.0118,-0.6590,-1.2597,-0.9101,9.4217,0.0058,-0.0240,-0.0005,0.9997,-0.0371,-0.0241,0.2346
57227,Right,2,0.0859,0.1716,0.4807,0.8556,0.7247,-1.9310,0.5816,-1.3548,-1.6549,2.7885,-5.0181,4.0059,11.0532,0.0091,-0.0241,0.0073,0.9996,-0.1328,0.0967,0.2741
57228,Pelvis,2,-0.1069,-0.7128,-0.2690,0.6389,-1.5799,0.0239,-1.1258,-1.2579,-1.4793,1.6776,11.6239,0.8155,-0.1664,-0.0197,0.0003,-0.0141,0.9997,0.2908,0.0162,-0.0046
57228,Left,2,0.0257,0.1999,-0.5593,0.8041,0.4200,-0.6466,0.0699,1.4045,-1.2739,0.2581,-2.0607,-1.0845,9.9798,0.0052,-0.0081,0.0009,1.0000,-0.0535,-0.0285,0.2489
57228,Right,2,0.0973,0.1465,0.4849,0.8567,-0.2438,-2.1417,0.5733,-4.2231,-1.1477,5.9321,-5.9213,7.6655,13.1641,-0.0030,-0.0268,0.0072,0.9996,-0.1581,0.1915,0.3244
57229,Pelvis,2,-0.1122,-0.7117,-0.2849,0.6323,-1.2401,-0.3029,-0.6334,0.9950,-0.3889,2.0856,11.4039,3.2239,-1.5075,-0.0155,-0.0038,-0.0079,0.9998,0.2859,0.0778,-0.0378
57229,Left,2,0.0245,0.1954,-0.5623,0.8032,0.1829,-0.3231,-0.2390,1.1512,-1.3689,-0.8067,-1.5572,-1.0892,8.9831,0.0023,-0.0040,-0.0030,1.0000,-0.0399,-0.0276,0.2244
57229,Right,2,0.1047,0.1135,0.4858,0.8603,-0.8043,-2.5907,0.2619,0.2576,-6.2475,4.6134,-7.0535,0.9416,14.0237,-0.0101,-0.0324,0.0033,0.9994,-0.1876,0.0264,0.3444
57230,Pelvis,2,-0.1205,-0.7107,-0.2950,0.6272,-1.0520,-0.3445,-0.1401,2.4639,-1.5127,3.0940,12.2911,3.5225,-3.3856,-0.0131,-0.0043,-0.0018,0.9999,0.3078,0.0864,-0.0845
57230,Left,2,0.0264,0.1950,-0.5636,0.8023,0.1699,0.0720,-0.0864,-0.4220,-0.7719,0.1024,-2.8241,-2.4403,9.2278,0.0021,0.0009,-0.0011,1.0000,-0.0705,-0.0614,0.2306
57230,Right,2,0.1096,0.0737,0.4751,0.8700,-1.1880,-3.1087,-0.7395,0.9884,-8.2511,3.0687,-7.2774,-1.5035,13.4130,-0.0148,-0.0388,-0.0092,0.9991,-0.1951,-0.0309,0.3284
57231,Pelvis,2,-0.1325,-0.7087,-0.3000,0.6247,-0.9465,-0.2787,0.3950,1.5563,-2.2217,1.3424,10.8922,2.0464,-2.9941,-0.0118,-0.0035,0.0049,0.9999,0.2723,0.0516,-0.0745
57231,Left,2,0.0290,0.1951,-0.5635,0.8022,0.1743,0.1321,0.0456,-0.4080,-0.2912,0.0649,-3.2571,-2.2108,9.0732,0.0022,0.0017,0.0006,1.0000,-0.0810,-0.0558,0.2268
57231,Right,2,0.1183,0.0455,0.4411,0.8885,-0.4181,-2.7072,-2.7812,1.9134,-17.4668,-10.1872,-13.2260,-11.2906,2.5866,-0.0052,-0.0338,-0.0348,0.9988,-0.3421,-0.2702,0.0546
57232,Pelvis,2,-0.1463,-0.7071,-0.2998,0.6235,-0.7176,-0.3263,0.7874,0.8034,-2.7589,0.3164,10.1393,0.8427,-2.7097,-0.0090,-0.0041,0.0098,0.9999,0.2535,0.0230,-0.0669
57232,Left,2,0.0316,0.1949,-0.5629,0.8026,0.1794,0.1085,0.1062,-0.0365,0.0812,0.1462,-3.5396,-1.7056,9.1515,0.0022,0.0014,0.0013,1.0000,-0.0881,-0.0433,0.2288
57232,Right,2,0.1671,0.0534,0.3713,0.9118,3.8013,-1.9272,-5.7059,-6.2958,-11.8754,-16.1337,-13.2385,-4.8263,-4.7583,0.0475,-0.0241,-0.0712,0.9960,-0.3351,-0.0908,-0.1318
57233,Pelvis,2,-0.1598,-0.7038,-0.2990,0.6242,-0.6970,-0.1389,0.8660,0.1500,-2.2241,-0.2721,9.5973,0.5756,-1.8853,-0.0087,-0.0017,0.0108,0.9999,0.2398,0.0166,-0.0469
57233,Left,2,0.0337,0.1937,-0.5626,0.8030,0.1907,0.0177,0.0820,0.0212,0.2334,0.1485,-3.6759,-1.5499,9.1305,0.0024,0.0002,0.0010,1.0000,-0.0918,-0.0394,0.2282
57233,Right,2,0.1653,0.0597,0.3138,0.9331,0.0378,-0.3640,-4.9447,-20.2496,6.4967,-0.6088,-11.0468,20.2364,2.4669,0.0005,-0.0045,-0.0618,0.9981,-0.2445,0.5217,0.0608
57234,Pelvis,2,-0.1716,-0.6989,-0.2999,0.6263,-0.7269,0.0869,0.7302,0.0828,-0.7939,-1.7023,8.0177,1.1688,-0.8764,-0.0091,0.0011,0.0091,0.9999,0.2001,0.0308,-0.0224
57234,Left,2,0.0349,0.1919,-0.5626,0.8034,0.1692,-0.0636,0.0468,0.1837,0.2213,-0.0401,-3.5475,-1.3308,9.0128,0.0021,-0.0008,0.0006,1.0000,-0.0888,-0.0338,0.2252
57234,Right,2,0.1326,0.0613,0.2879,0.9464,-2.4389,0.5136,-2.4606,-12.4793,-3.1130,-9.2165,-11.9595,4.6164,-1.2175,-0.0305,0.0064,-0.0307,0.9990,-0.2955,0.1236,-0.0322
57235,Pelvis,2,-0.1826,-0.6955,-0.3013,0.6262,-0.7051,-0.0906,0.5918,0.8724,-0.4113,-2.5823,7.0034,1.6603,-1.1851,-0.0088,-0.0011,0.0074,0.9999,0.1748,0.0425,-0.0298
57235,Left,2,0.0351,0.1899,-0.5629,0.8036,0.1166,-0.1157,0.0012,0.3137,0.2427,-0.0969,-3.4878,-1.1632,9.0020,0.0015,-0.0014,0.0000,1.0000,-0.0875,-0.0294,0.2249
