PacketId,Role,StatusWord,Qx,Qy,Qz,Qw,Gx,Gy,Gz,FreeAx,FreeAy,FreeAz,Ax,Ay,Az,DQx,DQy,DQz,DQw,DVx,DVy,DVz
21099,Pelvis,0,-0.7263,0.0543,-0.6852,0.0086,0.3431,0.1172,-0.1231,0.0000,-0.0000,-0.3129,9.4481,-0.8142,-0.5615,0.0043,0.0015,-0.0015,1.0000,0.2362,-0.0207,-0.0145
21099,Left,0,0.0469,0.1100,-0.9113,0.3940,0.0308,0.0350,0.0273,-0.0000,0.0000,-0.0641,-1.6826,-1.5899,9.4697,0.0004,0.0004,0.0003,1.0000,-0.0419,-0.0399,0.2367
21099,Right,0,0.3147,-0.2434,-0.9125,-0.0951,0.2643,-1.3347,2.3008,0.0000,-0.0000,4.2433,-8.4036,5.6818,9.7330,0.0033,-0.0167,0.0288,0.9994,-0.2181,0.1351,0.2402
21100,Pelvis,0,-0.7255,0.0501,-0.6863,0.0099,0.3113,0.1018,-0.1710,0.1215,0.1725,-0.4253,9.3280,-0.9779,-0.4459,0.0039,0.0013,-0.0021,1.0000,0.2331,-0.0249,-0.0115
21100,Left,0,0.0475,0.1093,-0.9112,0.3944,0.0649,0.0228,0.0387,-0.0136,-0.0378,-0.1310,-1.6338,-1.5596,9.4146,0.0008,0.0003,0.0005,1.0000,-0.0408,-0.0392,0.2353
21100,Right,0,0.2913,-0.2524,-0.9203,-0.0672,-0.0153,-1.2856,2.7811,1.4118,1.6329,0.6100,-7.3476,2.3930,7.3224,-0.0002,-0.0161,0.0348,0.9993,-0.1885,0.0534,0.1800
21101,Pelvis,0,-0.7249,0.0461,-0.6872,0.0124,0.3081,0.0709,-0.2185,-0.0527,0.3705,-0.3531,9.3763,-1.1595,-0.6042,0.0039,0.0009,-0.0027,1.0000,0.2343,-0.0296,-0.0154
21101,Left,0,0.0483,0.1082,-0.9110,0.3949,0.1025,0.0169,0.0540,-0.0274,0.0026,-0.1320,-1.6594,-1.5745,9.4066,0.0013,0.0002,0.0007,1.0000,-0.0414,-0.0397,0.2351
21101,Right,0,0.2720,-0.2662,-0.9239,-0.0404,0.0952,-0.8751,3.0483,2.9073,2.6752,-0.7264,-7.5348,1.0529,6.3501,0.0012,-0.0109,0.0381,0.9992,-0.1909,0.0189,0.1567
21102,Pelvis,0,-0.7245,0.0414,-0.6879,0.0125,0.3401,0.0549,-0.2473,-0.0163,0.6366,-0.1703,9.5468,-1.3850,-0.5674,0.0043,0.0007,-0.0031,1.0000,0.2386,-0.0353,-0.0145
21102,Left,0,0.0492,0.1067,-0.9109,0.3956,0.1326,0.0108,0.0636,-0.0240,0.0166,-0.0944,-1.6836,-1.5571,9.4439,0.0017,0.0001,0.0008,1.0000,-0.0420,-0.0394,0.2360
21102,Right,0,0.2608,-0.2653,-0.9280,-0.0193,-0.3604,-0.5253,2.8221,5.1937,4.3522,-1.6829,-8.9567,-1.0100,5.5493,-0.0045,-0.0066,0.0353,0.9993,-0.2238,-0.0325,0.1374
21103,Pelvis,0,-0.7242,0.0384,-0.6884,0.0127,0.3819,0.0350,-0.2452,-0.1437,0.6396,0.0449,9.7611,-1.3607,-0.6875,0.0048,0.0004,-0.0031,1.0000,0.2439,-0.0347,-0.0175
21103,Left,0,0.0502,0.1052,-0.9107,0.3963,0.1382,0.0217,0.0712,-0.0406,-0.0105,-0.1007,-1.6584,-1.5156,9.4487,0.0017,0.0003,0.0009,1.0000,-0.0414,-0.0383,0.2362
21103,Right,0,0.2647,-0.2455,-0.9324,-0.0186,-0.1154,-0.2947,2.2237,7.1915,5.6654,-3.0780,-10.0292,-3.4200,4.1130,-0.0014,-0.0037,0.0278,0.9996,-0.2486,-0.0923,0.1020
21104,Pelvis,0,-0.7242,0.0374,-0.6885,0.0129,0.4352,-0.0042,-0.2218,-0.3133,0.7938,0.0938,9.7924,-1.4967,-0.8576,0.0054,-0.0001,-0.0028,1.0000,0.2447,-0.0380,-0.0216
21104,Left,0,0.0514,0.1039,-0.9105,0.3970,0.1284,0.0435,0.0736,-0.0084,-0.0166,-0.1139,-1.6839,-1.4515,9.4406,0.0016,0.0005,0.0009,1.0000,-0.0419,-0.0367,0.2360
21104,Right,0,0.2914,-0.2135,-0.9312,-0.0480,0.5957,0.0678,1.3611,6.3168,5.2265,-3.0244,-9.1561,-3.7535,3.9229,0.0074,0.0008,0.0170,0.9998,-0.2272,-0.0984,0.0975
21105,Pelvis,0,-0.7241,0.0387,-0.6885,0.0136,0.4799,0.0004,-0.2009,-0.4259,0.8134,0.2392,9.9261,-1.5470,-0.9811,0.0060,0.0000,-0.0025,1.0000,0.2481,-0.0391,-0.0248
21105,Left,0,0.0530,0.1029,-0.9102,0.3978,0.1206,0.0770,0.0855,-0.0926,-0.0053,-0.1359,-1.6478,-1.4850,9.4196,0.0015,0.0010,0.0011,1.0000,-0.0409,-0.0375,0.2355
21105,Right,0,0.3398,-0.1629,-0.9226,-0.0818,-0.6047,1.0799,0.8784,-4.7558,-0.2760,-3.8419,-0.2587,3.0150,7.0135,-0.0076,0.0135,0.0110,0.9998,-0.0049,0.0766,0.1748
21106,Pelvis,0,-0.7238,0.0408,-0.6886,0.0138,0.5957,0.0319,-0.2271,-0.2115,0.4274,0.3152,10.0379,-1.2118,-0.7581,0.0074,0.0004,-0.0028,1.0000,0.2509,-0.0309,-0.0193
21106,Left,0,0.0551,0.1020,-0.9098,0.3986,0.1225,0.1230,0.0927,-0.1047,-0.0150,-0.0754,-1.6701,-1.4641,9.4812,0.0015,0.0015,0.0012,1.0000,-0.0413,-0.0370,0.2370
21106,Right,0,0.3634,-0.1444,-0.9160,-0.0900,-0.0540,1.3157,0.9079,-6.9923,7.4566,-4.9510,2.3326,-4.1377,10.2754,-0.0007,0.0164,0.0113,0.9998,0.0637,-0.1026,0.2559
21107,Pelvis,0,-0.7233,0.0418,-0.6892,0.0144,0.6410,0.0739,-0.2452,0.0073,0.0207,0.3777,10.1419,-0.8485,-0.5162,0.0080,0.0009,-0.0031,1.0000,0.2535,-0.0219,-0.0133
21107,Left,0,0.0575,0.1012,-0.9093,0.3995,0.1309,0.1505,0.1066,-0.0884,0.0348,0.0036,-1.7666,-1.4624,9.5452,0.0016,0.0019,0.0013,1.0000,-0.0437,-0.0370,0.2387
21107,Right,0,0.3703,-0.1147,-0.9149,-0.1128,0.2839,2.0451,-0.0462,-3.3785,7.6421,-3.6423,-0.8255,-5.5133,8.7651,0.0035,0.0256,-0.0006,0.9997,-0.0151,-0.1386,0.2191
21108,Pelvis,0,-0.7220,0.0389,-0.6907,0.0158,0.7237,0.1419,-0.3138,0.4804,-0.2384,0.1401,9.9503,-0.5804,0.0119,0.0090,0.0018,-0.0039,0.9999,0.2487,-0.0155,-0.0003
21108,Left,0,0.0603,0.1004,-0.9088,0.4004,0.1461,0.1689,0.1128,-0.1322,0.0017,-0.0536,-1.7440,-1.4280,9.4962,0.0018,0.0021,0.0014,1.0000,-0.0430,-0.0362,0.2374
21108,Right,0,0.3698,-0.0820,-0.9137,-0.1471,0.4515,1.8567,-0.6871,-5.2360,1.1367,0.5413,-3.1654,1.0444,11.1727,0.0056,0.0232,-0.0086,0.9997,-0.0724,0.0252,0.2812
21109,Pelvis,0,-0.7190,0.0353,-0.6939,0.0161,0.6500,0.3059,-0.2983,1.9284,-0.8941,0.7344,10.6505,0.0237,1.5257,0.0081,0.0038,-0.0037,1.0000,0.2664,-0.0007,0.0371
21109,Left,0,0.0637,0.0998,-0.9082,0.4015,0.1471,0.2327,0.1293,-0.1949,-0.0830,-0.0191,-1.6988,-1.3844,9.5477,0.0018,0.0029,0.0016,1.0000,-0.0417,-0.0351,0.2387
21109,Right,0,0.3678,-0.0651,-0.9116,-0.1719,-0.0064,1.9853,-0.4598,-7.0148,-7.3581,3.2577,-5.9509,9.3305,12.3192,-0.0001,0.0248,-0.0057,0.9997,-0.1397,0.2341,0.3115
21110,Pelvis,0,-0.7134,0.0332,-0.6998,0.0162,0.3945,0.4907,-0.0874,2.7096,-1.9286,2.2000,12.1822,0.9954,2.4438,0.0049,0.0061,-0.0011,1.0000,0.3049,0.0243,0.0593
21110,Left,0,0.0685,0.1000,-0.9072,0.4029,0.1310,0.3556,0.1706,-0.4415,-0.1418,0.0177,-1.5726,-1.4957,9.5991,0.0016,0.0044,0.0021,1.0000,-0.0382,-0.0379,0.2401
21110,Right,0,0.3595,-0.0579,-0.9158,-0.1694,-0.9274,1.0443,-0.3856,-4.6516,0.3653,3.8602,-5.8130,1.2596,13.1667,-0.0116,0.0131,-0.0048,0.9998,-0.1408,0.0360,0.3306
21111,Pelvis,0,-0.7088,0.0288,-0.7046,0.0182,0.2076,0.3109,0.0712,2.1626,-2.0150,1.4915,11.4319,1.2319,2.0777,0.0026,0.0039,0.0009,1.0000,0.2860,0.0309,0.0509
21111,Left,0,0.0757,0.1007,-0.9056,0.4050,0.1681,0.5495,0.2670,-0.8577,-0.3249,0.0150,-1.2774,-1.6443,9.6483,0.0021,0.0069,0.0033,1.0000,-0.0301,-0.0417,0.2413
21111,Right,0,0.3471,-0.0532,-0.9209,-0.1694,-0.6144,0.5899,-0.3270,-4.6888,-0.6404,0.1600,-3.3565,2.1334,10.2975,-0.0077,0.0074,-0.0041,0.9999,-0.0818,0.0557,0.2576
21112,Pelvis,0,-0.7053,0.0203,-0.7083,0.0205,0.2811,0.1530,-0.0394,1.5691,0.7853,0.1850,9.9311,-1.3710,1.5889,0.0035,0.0019,-0.0005,1.0000,0.2483,-0.0345,0.0391
21112,Left,0,0.0861,0.1028,-0.9030,0.4082,0.1623,0.8425,0.3892,-0.3000,-1.1306,0.1102,-1.2594,-0.6673,9.8896,0.0020,0.0105,0.0049,0.9999,-0.0288,-0.0173,0.2475
21112,Right,0,0.3331,-0.0512,-0.9264,-0.1676,-0.4014,0.3236,-0.2042,-3.9891,-0.4308,0.3937,-3.6691,1.6688,10.1992,-0.0050,0.0040,-0.0026,1.0000,-0.0906,0.0432,0.2551
21113,Pelvis,0,-0.7003,0.0109,-0.7133,0.0245,0.6336,0.2781,-0.1404,1.6646,0.9964,0.4385,10.1606,-1.5058,1.8289,0.0079,0.0035,-0.0018,1.0000,0.2541,-0.0384,0.0445
21113,Left,0,0.1013,0.1072,-0.8989,0.4127,0.1133,1.2807,0.5635,-0.5489,-0.5070,0.2109,-1.8313,-1.2184,9.8083,0.0014,0.0160,0.0070,0.9998,-0.0416,-0.0311,0.2459
21113,Right,0,0.3180,-0.0512,-0.9321,-0.1654,-0.2512,0.1321,-0.0946,-3.9655,-0.4961,-0.3549,-2.9391,1.7604,9.6790,-0.0031,0.0017,-0.0012,1.0000,-0.0730,0.0449,0.2420
21114,Pelvis,0,-0.6939,0.0044,-0.7195,0.0280,0.7232,0.3985,-0.1316,1.8150,-1.0977,0.4723,10.2660,0.6567,2.1118,0.0090,0.0050,-0.0016,0.9999,0.2569,0.0155,0.0517
21114,Left,0,0.1200,0.1132,-0.8932,0.4183,0.1039,1.5941,0.7055,-0.5071,-0.3946,0.3988,-2.3504,-1.2200,9.8838,0.0013,0.0199,0.0088,0.9998,-0.0535,-0.0313,0.2482
21114,Right,0,0.3032,-0.0532,-0.9374,-0.1631,-0.1006,0.0811,-0.0248,-3.5366,-0.4126,-0.2424,-3.0103,1.6053,9.6244,-0.0013,0.0010,-0.0003,1.0000,-0.0750,0.0405,0.2406
21115,Pelvis,0,-0.6873,-0.0030,-0.7257,0.0314,0.5603,0.4064,-0.0950,1.9371,-2.4813,0.0008,9.8055,2.1633,2.3211,0.0070,0.0051,-0.0012,1.0000,0.2455,0.0534,0.0572
21115,Left,0,0.1410,0.1184,-0.8873,0.4229,0.2377,1.7495,0.6738,-0.4046,0.0845,0.2166,-3.1134,-1.3352,9.4498,0.0030,0.0219,0.0084,0.9997,-0.0724,-0.0347,0.2378
21115,Right,0,0.2895,-0.0569,-0.9419,-0.1609,0.0357,0.0693,0.0244,-3.3302,-0.3200,-0.4361,-2.7635,1.5463,9.4384,0.0004,0.0009,0.0003,1.0000,-0.0689,0.0385,0.2360
21116,Pelvis,0,-0.6814,-0.0112,-0.7311,0.0340,0.3317,0.3328,-0.0699,1.7776,-1.8853,-0.5550,9.1829,1.7016,2.2799,0.0041,0.0042,-0.0009,1.0000,0.2298,0.0421,0.0562
21116,Left,0,0.1626,0.1210,-0.8818,0.4259,0.4708,1.7178,0.5810,0.2042,0.0509,0.0417,-3.7982,-0.6904,9.0702,0.0059,0.0215,0.0073,0.9997,-0.0899,-0.0193,0.2286
21116,Right,0,0.2771,-0.0604,-0.9457,-0.1589,0.0483,0.0649,0.0282,-3.1812,-0.6481,-0.5311,-2.6764,1.9106,9.2668,0.0006,0.0008,0.0004,1.0000,-0.0667,0.0476,0.2318
21117,Pelvis,0,-0.6758,-0.0214,-0.7358,0.0379,0.2695,0.2833,-0.0701,1.3970,-0.9845,-0.7522,8.9429,0.9065,2.0534,0.0034,0.0035,-0.0009,1.0000,0.2238,0.0223,0.0506
21117,Left,0,0.1829,0.1248,-0.8760,0.4285,0.3471,1.6683,0.5432,0.2061,0.0604,0.1105,-4.2108,-0.5553,8.9717,0.0043,0.0209,0.0068,0.9998,-0.1005,-0.0156,0.2264
21117,Right,0,0.2659,-0.0632,-0.9490,-0.1569,-0.0166,0.0509,0.0138,-2.9624,-0.6270,-0.5135,-2.6407,1.9136,9.2200,-0.0002,0.0006,0.0002,1.0000,-0.0659,0.0479,0.2305
21118,Pelvis,0,-0.6703,-0.0310,-0.7403,0.0412,0.2518,0.2738,-0.0879,1.2190,-0.9433,-0.7372,8.9367,0.9626,1.9871,0.0031,0.0034,-0.0011,1.0000,0.2236,0.0237,0.0490
21118,Left,0,0.2018,0.1270,-0.8710,0.4296,0.4376,1.5089,0.4098,0.3931,0.1579,-0.2384,-4.5774,-0.3089,8.4149,0.0055,0.0189,0.0051,0.9998,-0.1104,-0.0095,0.2124
21118,Right,0,0.2561,-0.0657,-0.9519,-0.1549,-0.0307,0.0576,0.0088,-2.7181,-0.4404,-0.3840,-2.6662,1.7425,9.2918,-0.0004,0.0007,0.0001,1.0000,-0.0665,0.0436,0.2323
21119,Pelvis,0,-0.6649,-0.0397,-0.7446,0.0440,0.2085,0.2607,-0.0911,1.1826,-1.1001,-0.5448,9.0988,1.2221,2.0546,0.0026,0.0033,-0.0011,1.0000,0.2277,0.0302,0.0507
21119,Left,0,0.2190,0.1302,-0.8664,0.4295,0.3306,1.4197,0.2814,0.7677,-0.0642,-0.4637,-4.8197,0.2526,8.0444,0.0041,0.0177,0.0035,0.9998,-0.1169,0.0051,0.2032
21119,Right,0,0.2472,-0.0682,-0.9543,-0.1532,-0.0135,0.0561,0.0158,-2.4964,-0.5102,-0.2669,-2.7558,1.8158,9.3125,-0.0002,0.0007,0.0002,1.0000,-0.0687,0.0454,0.2329
21120,Pelvis,0,-0.6600,-0.0478,-0.7483,0.0464,0.1699,0.2225,-0.0949,1.0969,-0.9593,-0.3946,9.2214,1.1781,2.0983,0.0021,0.0028,-0.0012,1.0000,0.2307,0.0291,0.0519
21120,Left,0,0.2338,0.1334,-0.8627,0.4282,0.2672,1.2296,0.1329,0.5853,0.3299,-0.1604,-5.4026,-0.0526,8.0272,0.0033,0.0154,0.0017,0.9999,-0.1320,-0.0022,0.2027
21120,Right,0,0.2391,-0.0704,-0.9565,-0.1516,-0.0195,0.0354,0.0125,-2.3257,-0.5153,-0.2587,-2.7502,1.8354,9.2747,-0.0002,0.0004,0.0002,1.0000,-0.0687,0.0459,0.2319
21121,Pelvis,0,-0.6553,-0.0556,-0.7518,0.0484,0.1606,0.2071,-0.1167,1.1229,-0.7657,-0.1866,9.3899,1.0975,2.2655,0.0020,0.0026,-0.0015,1.0000,0.2349,0.0270,0.0561
21121,Left,0,0.2465,0.1357,-0.8596,0.4265,0.2613,1.0427,0.0759,0.5475,0.5283,-0.3374,-5.6467,-0.1275,7.6462,0.0033,0.0130,0.0009,0.9999,-0.1387,-0.0039,0.1930
21121,Right,0,0.2319,-0.0724,-0.9583,-0.1501,-0.0256,0.0352,0.0101,-2.2185,-0.4872,-0.2471,-2.7005,1.8375,9.2731,-0.0003,0.0004,0.0001,1.0000,-0.0674,0.0460,0.2318
21122,Pelvis,0,-0.6510,-0.0629,-0.7548,0.0499,0.1399,0.1678,-0.1307,1.0639,-0.7266,-0.1843,9.3682,1.1535,2.2963,0.0017,0.0021,-0.0016,1.0000,0.2344,0.0284,0.0570
21122,Left,0,0.2574,0.1376,-0.8565,0.4256,0.2181,0.8846,0.1166,0.4584,0.5063,-0.3609,-5.7576,-0.1231,7.5261,0.0027,0.0111,0.0015,0.9999,-0.1418,-0.0038,0.1897
21122,Right,0,0.2255,-0.0742,-0.9599,-0.1489,-0.0341,0.0356,-0.0027,-2.0773,-0.4910,-0.2189,-2.7111,1.8530,9.2635,-0.0004,0.0004,-0.0000,1.0000,-0.0677,0.0464,0.2316
21123,Pelvis,0,-0.6470,-0.0696,-0.7576,0.0510,0.1289,0.1504,-0.1375,0.8858,-0.4590,-0.2350,9.3177,0.9576,2.2337,0.0016,0.0019,-0.0017,1.0000,0.2331,0.0235,0.0554
21123,Left,0,0.2669,0.1390,-0.8533,0.4258,0.1803,0.7384,0.1901,0.2909,0.6118,-0.0037,-6.1001,-0.2628,7.7069,0.0023,0.0092,0.0024,1.0000,-0.1507,-0.0074,0.1941
21123,Right,0,0.2196,-0.0757,-0.9613,-0.1479,-0.0347,0.0259,-0.0055,-1.9149,-0.4432,-0.2004,-2.7356,1.8066,9.2472,-0.0004,0.0003,-0.0001,1.0000,-0.0683,0.0453,0.2312
21124,Pelvis,0,-0.6431,-0.0759,-0.7603,0.0522,0.1534,0.1566,-0.1374,0.7989,-0.3640,-0.2720,9.2698,0.9394,2.2322,0.0019,0.0020,-0.0017,1.0000,0.2319,0.0230,0.0554
21124,Left,0,0.2746,0.1399,-0.8500,0.4272,0.1288,0.5886,0.2759,0.2251,0.4710,-0.0271,-6.0959,-0.1639,7.6711,0.0016,0.0074,0.0034,1.0000,-0.1510,-0.0049,0.1929
21124,Right,0,0.2141,-0.0774,-0.9626,-0.1470,-0.0140,0.0159,-0.0003,-1.7641,-0.3833,-0.1488,-2.7717,1.7537,9.2678,-0.0002,0.0002,-0.0000,1.0000,-0.0692,0.0439,0.2317
21125,Pelvis,0,-0.6392,-0.0818,-0.7628,0.0536,0.1837,0.1621,-0.1182,0.7335,-0.3698,-0.2443,9.2823,1.0191,2.2423,0.0023,0.0020,-0.0015,1.0000,0.2322,0.0250,0.0556
21125,Left,0,0.2808,0.1403,-0.8465,0.4300,0.0760,0.4501,0.3672,0.2096,0.4802,-0.0642,-6.1784,-0.1115,7.5580,0.0010,0.0056,0.0046,1.0000,-0.1534,-0.0037,0.1898
21125,Right,0,0.2090,-0.0793,-0.9637,-0.1462,0.0148,0.0017,0.0072,-1.6570,-0.3355,-0.1368,-2.7636,1.7248,9.2665,0.0002,0.0000,0.0001,1.0000,-0.0691,0.0431,0.2317
21126,Pelvis,0,-0.6355,-0.0872,-0.7651,0.0554,0.2028,0.1576,-0.0793,0.7008,-0.3903,-0.2204,9.2866,1.1084,2.2772,0.0025,0.0020,-0.0010,1.0000,0.2323,0.0273,0.0565
21126,Left,0,0.2856,0.1409,-0.8425,0.4344,-0.0217,0.3544,0.4727,0.2131,0.4026,-0.1014,-6.1902,0.0079,7.4966,-0.0003,0.0044,0.0059,1.0000,-0.1539,-0.0007,0.1881
21126,Right,0,0.2042,-0.0812,-0.9646,-0.1455,0.0261,-0.0051,0.0135,-1.5956,-0.3171,-0.1796,-2.7067,1.7341,9.2255,0.0003,-0.0001,0.0002,1.0000,-0.0677,0.0433,0.2306
21127,Pelvis,0,-0.6322,-0.0921,-0.7672,0.0575,0.2080,0.1433,-0.0497,0.6510,-0.3463,-0.2004,9.2943,1.1198,2.3029,0.0026,0.0018,-0.0006,1.0000,0.2325,0.0277,0.0572
21127,Left,0,0.2892,0.1415,-0.8382,0.4401,-0.0995,0.2580,0.5580,0.2354,0.3451,-0.0466,-6.2595,0.1296,7.5069,-0.0012,0.0032,0.0070,1.0000,-0.1559,0.0024,0.1882
21127,Right,0,0.1999,-0.0830,-0.9655,-0.1448,0.0220,0.0004,0.0123,-1.5589,-0.3516,-0.2032,-2.6576,1.8000,9.1975,0.0003,0.0000,0.0002,1.0000,-0.0664,0.0449,0.2300
21128,Pelvis,0,-0.6290,-0.0966,-0.7691,0.0596,0.2125,0.1401,-0.0268,0.6037,-0.2524,-0.1585,9.3268,1.0753,2.3423,0.0027,0.0018,-0.0003,1.0000,0.2333,0.0267,0.0582
21128,Left,0,0.2915,0.1427,-0.8335,0.4472,-0.2161,0.1841,0.6400,0.2241,0.3034,-0.1928,-6.1837,0.2061,7.3759,-0.0027,0.0023,0.0080,1.0000,-0.1542,0.0044,0.1847
21128,Right,0,0.1960,-0.0846,-0.9662,-0.1442,0.0157,0.0097,0.0127,-1.4566,-0.3197,-0.1594,-2.6858,1.7854,9.2200,0.0002,0.0001,0.0002,1.0000,-0.0671,0.0446,0.2305
21129,Pelvis,0,-0.6260,-0.1007,-0.7708,0.0619,0.2195,0.1377,-0.0128,0.5515,-0.1683,-0.0978,9.3803,1.0336,2.3777,0.0027,0.0017,-0.0002,1.0000,0.2346,0.0256,0.0591
21129,Left,0,0.2929,0.1442,-0.8281,0.4557,-0.3148,0.1399,0.7386,0.1567,0.3589,-0.1619,-6.2442,0.1788,7.3668,-0.0039,0.0017,0.0092,0.9999,-0.1558,0.0038,0.1844
21129,Right,0,0.1925,-0.0862,-0.9669,-0.1437,0.0249,0.0119,0.0134,-1.3644,-0.2732,-0.1327,-2.7021,1.7563,9.2332,0.0003,0.0001,0.0002,1.0000,-0.0675,0.0438,0.2309
21130,Pelvis,0,-0.6231,-0.1047,-0.7724,0.0643,0.2405,0.1262,-0.0015,0.4795,-0.1247,-0.0773,9.3994,1.0183,2.3744,0.0030,0.0016,-0.0000,1.0000,0.2351,0.0253,0.0591
21130,Left,0,0.2934,0.1459,-0.8221,0.4656,-0.3951,0.0842,0.8437,0.1617,0.3271,-0.2246,-6.2098,0.2572,7.3101,-0.0049,0.0011,0.0105,0.9999,-0.1551,0.0057,0.1829
21130,Right,0,0.1893,-0.0876,-0.9675,-0.1432,0.0163,0.0150,0.0111,-1.3444,-0.3296,-0.1233,-2.6789,1.8425,9.2319,0.0002,0.0002,0.0001,1.0000,-0.0669,0.0460,0.2308
21131,Pelvis,0,-0.6207,-0.1084,-0.7737,0.0667,0.2389,0.1047,0.0030,0.4101,-0.1556,-0.0568,9.4180,1.0711,2.3501,0.0030,0.0013,0.0000,1.0000,0.2355,0.0266,0.0585
21131,Left,0,0.2930,0.1478,-0.8154,0.4768,-0.4879,0.0278,0.9300,0.1245,0.3249,-0.0534,-6.3110,0.2903,7.4466,-0.0061,0.0003,0.0116,0.9999,-0.1578,0.0066,0.1862
21131,Right,0,0.1866,-0.0886,-0.9680,-0.1428,-0.0114,0.0254,0.0013,-1.2848,-0.3379,-0.1094,-2.6873,1.8649,9.2315,-0.0001,0.0003,0.0000,1.0000,-0.0671,0.0467,0.2308
21132,Pelvis,0,-0.6184,-0.1119,-0.7748,0.0689,0.2346,0.0936,0.0054,0.3826,-0.1332,-0.0869,9.3819,1.0739,2.3623,0.0029,0.0012,0.0001,1.0000,0.2346,0.0267,0.0589
21132,Left,0,0.2916,0.1493,-0.8086,0.4887,-0.5114,-0.0484,0.9812,0.2101,0.2515,-0.2121,-6.1903,0.4528,7.3317,-0.0064,-0.0006,0.0123,0.9999,-0.1550,0.0106,0.1831
21132,Right,0,0.1842,-0.0893,-0.9684,-0.1425,-0.0322,0.0285,-0.0025,-1.1901,-0.3426,-0.0909,-2.7341,1.8657,9.2244,-0.0004,0.0004,-0.0000,1.0000,-0.0683,0.0467,0.2306
21133,Pelvis,0,-0.6163,-0.1152,-0.7758,0.0711,0.2291,0.0827,0.0108,0.2896,-0.0919,-0.1151,9.3649,1.0387,2.3139,0.0029,0.0010,0.0001,1.0000,0.2342,0.0258,0.0577
21133,Left,0,0.2893,0.1515,-0.8013,0.5013,-0.6172,-0.0854,1.0282,0.2599,0.1125,-0.1556,-6.1262,0.6167,7.4451,-0.0077,-0.0011,0.0129,0.9999,-0.1535,0.0149,0.1858
21133,Right,0,0.1819,-0.0897,-0.9688,-0.1422,-0.0490,0.0243,-0.0080,-1.1556,-0.3011,-0.1054,-2.7077,1.8314,9.2180,-0.0006,0.0003,-0.0001,1.0000,-0.0676,0.0459,0.2304
21134,Pelvis,0,-0.6144,-0.1182,-0.7767,0.0734,0.2318,0.0831,0.0197,0.2262,-0.0753,-0.0737,9.4097,1.0367,2.2994,0.0029,0.0010,0.0002,1.0000,0.2353,0.0258,0.0573
21134,Left,0,0.2859,0.1536,-0.7938,0.5144,-0.6683,-0.1520,1.0420,0.1487,0.1520,-0.1806,-6.0719,0.5383,7.4609,-0.0084,-0.0019,0.0130,0.9999,-0.1523,0.0130,0.1861
21134,Right,0,0.1799,-0.0900,-0.9692,-0.1420,-0.0553,0.0250,-0.0117,-1.0819,-0.2428,-0.0776,-2.7316,1.7697,9.2416,-0.0007,0.0003,-0.0001,1.0000,-0.0682,0.0444,0.2310
21135,Pelvis,0,-0.6126,-0.1211,-0.7774,0.0758,0.2361,0.0784,0.0312,0.1913,0.0040,-0.0262,9.4569,0.9782,2.3287,0.0030,0.0010,0.0004,1.0000,0.2365,0.0244,0.0581
21135,Left,0,0.2817,0.1560,-0.7862,0.5275,-0.7311,-0.1889,1.0345,0.2136,0.0337,-0.0975,-6.0148,0.6781,7.6022,-0.0091,-0.0024,0.0129,0.9999,-0.1510,0.0167,0.1895
21135,Right,0,0.1780,-0.0903,-0.9696,-0.1418,-0.0468,0.0223,-0.0052,-1.0093,-0.2498,-0.0534,-2.7720,1.7683,9.2473,-0.0006,0.0003,-0.0001,1.0000,-0.0692,0.0443,0.2312
21136,Pelvis,0,-0.6108,-0.1238,-0.7781,0.0783,0.2424,0.0773,0.0443,0.1619,0.0835,-0.0694,9.4157,0.9081,2.3420,0.0030,0.0010,0.0006,1.0000,0.2354,0.0227,0.0584
21136,Left,0,0.2767,0.1586,-0.7786,0.5404,-0.7686,-0.2232,1.0111,0.2376,-0.0453,-0.1948,-5.8526,0.7378,7.6004,-0.0096,-0.0028,0.0126,0.9999,-0.1471,0.0184,0.1894
21136,Right,0,0.1761,-0.0907,-0.9699,-0.1416,-0.0378,0.0147,-0.0005,-0.9547,-0.2130,-0.0442,-2.7815,1.7302,9.2547,-0.0005,0.0002,-0.0000,1.0000,-0.0695,0.0434,0.2314
21137,Pelvis,0,-0.6092,-0.1263,-0.7787,0.0808,0.2410,0.0832,0.0535,0.1777,0.0527,-0.0356,9.4355,0.9591,2.3825,0.0030,0.0010,0.0007,1.0000,0.2359,0.0240,0.0594
21137,Left,0,0.2712,0.1616,-0.7710,0.5530,-0.8113,-0.2360,0.9671,0.2123,-0.0920,-0.1599,-5.7748,0.7286,7.7039,-0.0101,-0.0029,0.0121,0.9999,-0.1452,0.0184,0.1920
21137,Right,0,0.1743,-0.0912,-0.9702,-0.1414,-0.0234,0.0058,0.0038,-0.9218,-0.2132,-0.0284,-2.7837,1.7361,9.2663,-0.0003,0.0001,0.0000,1.0000,-0.0696,0.0435,0.2317
21138,Pelvis,0,-0.6076,-0.1286,-0.7793,0.0833,0.2386,0.0819,0.0596,0.1362,0.0463,-0.0294,9.4438,0.9650,2.3699,0.0030,0.0010,0.0007,1.0000,0.2361,0.0241,0.0591
21138,Left,0,0.2656,0.1644,-0.7637,0.5649,-0.7844,-0.2441,0.9163,-0.0869,-0.0662,-0.0866,-5.7105,0.4253,7.8626,-0.0098,-0.0031,0.0115,0.9999,-0.1435,0.0109,0.1960
21138,Right,0,0.1724,-0.0919,-0.9705,-0.1411,-0.0096,-0.0057,0.0106,-0.8416,-0.1507,-0.0030,-2.8164,1.6720,9.2862,-0.0001,-0.0001,0.0001,1.0000,-0.0704,0.0418,0.2321
21139,Pelvis,0,-0.6062,-0.1307,-0.7798,0.0859,0.2340,0.0682,0.0662,0.0826,0.0974,-0.1063,9.3773,0.9012,2.3417,0.0029,0.0009,0.0008,1.0000,0.2345,0.0226,0.0584
21139,Left,0,0.2598,0.1673,-0.7567,0.5760,-0.7748,-0.2366,0.8520,0.0808,-0.1617,-0.1038,-5.6088,0.5876,7.9052,-0.0097,-0.0030,0.0106,0.9999,-0.1410,0.0151,0.1971
21139,Right,0,0.1704,-0.0926,-0.9708,-0.1409,0.0059,-0.0230,0.0183,-0.8113,-0.1572,-0.0068,-2.8091,1.6871,9.2791,0.0001,-0.0003,0.0002,1.0000,-0.0703,0.0421,0.2320
21140,Pelvis,0,-0.6051,-0.1327,-0.7801,0.0882,0.2164,0.0472,0.0645,-0.0092,0.0397,-0.1458,9.3556,0.9303,2.2488,0.0027,0.0006,0.0008,1.0000,0.2339,0.0233,0.0561
21140,Left,0,0.2540,0.1701,-0.7502,0.5863,-0.7441,-0.2448,0.7816,-0.0996,-0.1456,0.0362,-5.6125,0.3822,8.0862,-0.0093,-0.0031,0.0098,0.9999,-0.1410,0.0101,0.2016
21140,Right,0,0.1683,-0.0933,-0.9712,-0.1406,0.0076,-0.0394,0.0246,-0.8098,-0.1764,-0.0210,-2.7731,1.7228,9.2685,0.0001,-0.0005,0.0003,1.0000,-0.0695,0.0430,0.2317
21141,Pelvis,0,-0.6060,-0.1262,-0.7814,0.0795,0.1903,0.0324,0.0500,-0.0472,-0.0200,-0.1522,9.3537,0.9808,2.2075,0.0024,0.0004,0.0006,1.0000,0.2338,0.0245,0.0552
21141,Left,0,0.2483,0.1724,-0.7443,0.5955,-0.6853,-0.2504,0.7022,-0.2025,-0.1303,0.0104,-5.5377,0.2392,8.1135,-0.0086,-0.0031,0.0088,0.9999,-0.1391,0.0065,0.2023
21141,Right,0,0.1669,-0.0929,-0.9724,-0.1338,0.0089,-0.0367,0.0256,-0.8839,-0.1632,-0.1183,-2.6271,1.7285,9.2141,0.0001,-0.0005,0.0003,1.0000,-0.0658,0.0432,0.2303
21142,Pelvis,0,-0.6068,-0.1207,-0.7823,0.0721,0.1553,0.0110,0.0368,-0.0914,-0.0324,-0.1268,9.3862,0.9904,2.1779,0.0019,0.0001,0.0005,1.0000,0.2347,0.0248,0.0545
21142,Left,0,0.2432,0.1739,-0.7393,0.6033,-0.5628,-0.2583,0.5925,-0.2307,-0.1950,0.0278,-5.4380,0.1912,8.2048,-0.0070,-0.0032,0.0074,0.9999,-0.1366,0.0052,0.2046
21142,Right,0,0.1657,-0.0928,-0.9733,-0.1292,0.0063,-0.0114,0.0166,-0.8894,-0.2062,-0.1392,-2.5893,1.7787,9.1946,0.0001,-0.0001,0.0002,1.0000,-0.0648,0.0444,0.2299
21143,Pelvis,0,-0.6075,-0.1166,-0.7829,0.0662,0.1356,-0.0113,0.0240,-0.2481,0.0375,-0.1308,9.4231,0.8923,2.0520,0.0017,-0.0001,0.0003,1.0000,0.2356,0.0223,0.0514
21143,Left,0,0.2387,0.1748,-0.7356,0.6094,-0.4475,-0.2394,0.4613,-0.1728,-0.2666,0.0176,-5.3311,0.2312,8.2621,-0.0056,-0.0030,0.0058,1.0000,-0.1339,0.0062,0.2061
21143,Right,0,0.1647,-0.0927,-0.9740,-0.1251,-0.0005,-0.0053,0.0098,-0.7464,-0.1813,-0.0575,-2.7132,1.7362,9.2400,-0.0000,-0.0001,0.0001,1.0000,-0.0679,0.0434,0.2310
21144,Pelvis,0,-0.6082,-0.1141,-0.7831,0.0622,0.1319,-0.0302,0.0220,-0.3595,0.1315,-0.0683,9.5154,0.7907,1.9827,0.0016,-0.0004,0.0003,1.0000,0.2379,0.0198,0.0497
21144,Left,0,0.2350,0.1751,-0.7329,0.6139,-0.3288,-0.2253,0.3310,-0.1232,-0.2362,0.0193,-5.3147,0.2478,8.2724,-0.0041,-0.0028,0.0041,1.0000,-0.1335,0.0065,0.2064
21144,Right,0,0.1635,-0.0927,-0.9746,-0.1219,-0.0013,-0.0197,0.0065,-0.6947,-0.1906,-0.0186,-2.7475,1.7460,9.2653,-0.0000,-0.0002,0.0001,1.0000,-0.0687,0.0436,0.2316
21145,Pelvis,0,-0.6089,-0.1122,-0.7830,0.0595,0.1441,-0.0367,0.0370,-0.4001,0.1790,-0.0027,9.5923,0.7492,1.9636,0.0018,-0.0005,0.0005,1.0000,0.2398,0.0188,0.0492
21145,Left,0,0.2319,0.1755,-0.7313,0.6169,-0.2542,-0.1758,0.2002,-0.1330,-0.2043,-0.0955,-5.2330,0.2048,8.1888,-0.0032,-0.0022,0.0025,1.0000,-0.1313,0.0054,0.2044
21145,Right,0,0.1622,-0.0925,-0.9752,-0.1188,-0.0079,-0.0302,0.0066,-0.6818,-0.1558,-0.0373,-2.7165,1.7149,9.2589,-0.0001,-0.0004,0.0001,1.0000,-0.0680,0.0429,0.2314
21146,Pelvis,0,-0.6096,-0.1111,-0.7827,0.0582,0.1448,-0.0523,0.0591,-0.3715,0.1328,0.0438,9.6302,0.8063,1.9787,0.0018,-0.0007,0.0007,1.0000,0.2407,0.0202,0.0497
21146,Left,0,0.2293,0.1758,-0.7305,0.6188,-0.2006,-0.1456,0.1075,-0.0938,-0.1630,-0.0028,-5.2900,0.2131,8.2607,-0.0025,-0.0018,0.0013,1.0000,-0.1326,0.0057,0.2063
21146,Right,0,0.1607,-0.0929,-0.9754,-0.1187,-0.0080,-0.0343,0.0077,-0.6940,-0.1663,-0.0455,-2.6765,1.7376,9.2587,-0.0001,-0.0004,0.0001,1.0000,-0.0670,0.0435,0.2314
21147,Pelvis,0,-0.6104,-0.1101,-0.7823,0.0573,0.1328,-0.0676,0.0714,-0.2958,0.1473,0.0491,9.6206,0.8053,2.0392,0.0017,-0.0008,0.0009,1.0000,0.2405,0.0203,0.0512
21147,Left,0,0.2270,0.1763,-0.7301,0.6200,-0.1684,-0.1216,0.0505,-0.1070,-0.1050,-0.0811,-5.2651,0.1613,8.1841,-0.0021,-0.0015,0.0006,1.0000,-0.1319,0.0044,0.2044
21147,Right,0,0.1594,-0.0929,-0.9759,-0.1170,-0.0109,-0.0330,0.0097,-0.6854,-0.1801,-0.0816,-2.6468,1.7508,9.2264,-0.0001,-0.0004,0.0001,1.0000,-0.0663,0.0438,0.2306
21148,Pelvis,0,-0.6115,-0.1083,-0.7818,0.0555,0.1249,-0.0714,0.0738,-0.3012,0.2277,0.0545,9.6355,0.7198,2.0356,0.0016,-0.0009,0.0009,1.0000,0.2408,0.0181,0.0511
21148,Left,0,0.2251,0.1769,-0.7296,0.6211,-0.1630,-0.0889,0.0422,-0.1601,-0.0868,-0.0654,-5.2602,0.0789,8.2077,-0.0020,-0.0011,0.0005,1.0000,-0.1317,0.0023,0.2050
21148,Right,0,0.1583,-0.0928,-0.9762,-0.1155,-0.0202,-0.0192,0.0061,-0.6744,-0.2033,-0.0840,-2.6352,1.7757,9.2221,-0.0003,-0.0002,0.0001,1.0000,-0.0659,0.0444,0.2305
21149,Pelvis,0,-0.6123,-0.1080,-0.7812,0.0558,0.1223,-0.0729,0.0768,-0.2649,0.2458,0.0598,9.6372,0.7008,2.0567,0.0015,-0.0009,0.0010,1.0000,0.2409,0.0177,0.0517
21149,Left,0,0.2234,0.1775,-0.7292,0.6220,-0.1446,-0.0722,0.0416,-0.1775,-0.0471,-0.0530,-5.2808,0.0296,8.2096,-0.0018,-0.0009,0.0005,1.0000,-0.1322,0.0010,0.2051
21149,Right,0,0.1575,-0.0926,-0.9766,-0.1134,-0.0234,-0.0075,0.0076,-0.6600,-0.1605,-0.0534,-2.6282,1.7387,9.2615,-0.0003,-0.0001,0.0001,1.0000,-0.0657,0.0435,0.2315
21150,Pelvis,0,-0.6132,-0.1073,-0.7806,0.0557,0.1154,-0.0715,0.0795,-0.2581,0.2365,0.0938,9.6730,0.7036,2.0493,0.0014,-0.0009,0.0010,1.0000,0.2418,0.0178,0.0515
21150,Left,0,0.2219,0.1782,-0.7285,0.6231,-0.1413,-0.0567,0.0648,-0.2052,-0.0366,-0.0239,-5.2884,-0.0212,8.2399,-0.0018,-0.0007,0.0008,1.0000,-0.1324,-0.0003,0.2059
21150,Right,0,0.1567,-0.0926,-0.9769,-0.1121,-0.0198,-0.0003,0.0077,-0.5965,-0.1625,-0.0248,-2.6782,1.7328,9.2741,-0.0002,-0.0000,0.0001,1.0000,-0.0670,0.0434,0.2318
21151,Pelvis,0,-0.6141,-0.1065,-0.7800,0.0555,0.1061,-0.0688,0.0760,-0.2270,0.2020,0.0869,9.6621,0.7311,2.0501,0.0013,-0.0009,0.0010,1.0000,0.2415,0.0184,0.0515
21151,Left,0,0.2206,0.1787,-0.7276,0.6245,-0.1289,-0.0540,0.1032,-0.2506,0.0101,-0.0116,-5.3166,-0.0901,8.2371,-0.0016,-0.0007,0.0013,1.0000,-0.1331,-0.0021,0.2058
21151,Right,0,0.1559,-0.0926,-0.9773,-0.1096,-0.0016,-0.0075,0.0096,-0.5452,-0.1374,0.0046,-2.7123,1.7053,9.2967,-0.0000,-0.0001,0.0001,1.0000,-0.0678,0.0426,0.2324
21152,Pelvis,0,-0.6150,-0.1054,-0.7795,0.0549,0.0883,-0.0689,0.0695,-0.2301,0.1569,0.0337,9.6141,0.7573,2.0060,0.0011,-0.0009,0.0009,1.0000,0.2403,0.0191,0.0504
21152,Left,0,0.2194,0.1789,-0.7264,0.6262,-0.1197,-0.0603,0.1330,-0.2051,0.0168,0.0226,-5.3345,-0.0560,8.2653,-0.0015,-0.0008,0.0017,1.0000,-0.1335,-0.0013,0.2065
21152,Right,0,0.1548,-0.0932,-0.9774,-0.1095,0.0191,-0.0194,0.0119,-0.5319,-0.1237,0.0028,-2.7029,1.7003,9.2976,0.0002,-0.0002,0.0001,1.0000,-0.0676,0.0424,0.2324
21153,Pelvis,0,-0.6158,-0.1052,-0.7789,0.0555,0.0750,-0.0680,0.0634,-0.2227,0.1588,-0.0260,9.5592,0.7392,1.9826,0.0009,-0.0008,0.0008,1.0000,0.2389,0.0186,0.0498
21153,Left,0,0.2182,0.1787,-0.7253,0.6280,-0.0918,-0.0796,0.1490,-0.2320,0.0409,0.0240,-5.3375,-0.0900,8.2655,-0.0011,-0.0010,0.0019,1.0000,-0.1336,-0.0023,0.2065
21153,Right,0,0.1538,-0.0936,-0.9777,-0.1081,0.0217,-0.0259,0.0163,-0.5206,-0.1082,-0.0206,-2.6823,1.6919,9.2796,0.0003,-0.0003,0.0002,1.0000,-0.0671,0.0422,0.2320
21154,Pelvis,0,-0.6167,-0.1041,-0.7784,0.0550,0.0540,-0.0655,0.0644,-0.2107,0.1824,-0.0684,9.5207,0.7029,1.9724,0.0007,-0.0008,0.0008,1.0000,0.2380,0.0177,0.0495
21154,Left,0,0.2172,0.1782,-0.7240,0.6300,-0.0736,-0.0916,0.1739,-0.1876,-0.0015,-0.1034,-5.2209,-0.0383,8.1882,-0.0009,-0.0011,0.0022,1.0000,-0.1308,-0.0011,0.2046
21154,Right,0,0.1525,-0.0942,-0.9778,-0.1084,0.0221,-0.0341,0.0218,-0.5118,-0.1130,-0.0076,-2.6742,1.7111,9.2917,0.0003,-0.0004,0.0003,1.0000,-0.0670,0.0427,0.2323
21155,Pelvis,0,-0.6173,-0.1042,-0.7778,0.0562,0.0355,-0.0632,0.0713,-0.2570,0.2353,-0.0581,9.5481,0.6276,1.9270,0.0004,-0.0008,0.0009,1.0000,0.2387,0.0159,0.0484
21155,Left,0,0.2162,0.1777,-0.7225,0.6321,-0.0733,-0.0835,0.1978,-0.1773,-0.0595,-0.0906,-5.1624,-0.0117,8.2403,-0.0009,-0.0010,0.0025,1.0000,-0.1293,-0.0004,0.2059
21155,Right,0,0.1513,-0.0947,-0.9781,-0.1072,0.0250,-0.0473,0.0230,-0.4898,-0.1270,-0.0012,-2.6754,1.7337,9.2928,0.0003,-0.0006,0.0003,1.0000,-0.0670,0.0433,0.2323
21156,Pelvis,0,-0.6181,-0.1033,-0.7773,0.0564,0.0216,-0.0610,0.0750,-0.2785,0.2169,-0.0087,9.6046,0.6287,1.8972,0.0003,-0.0008,0.0009,1.0000,0.2401,0.0159,0.0476
21156,Left,0,0.2156,0.1775,-0.7209,0.6343,-0.0762,-0.0546,0.2080,-0.1677,-0.1206,-0.1069,-5.0890,0.0154,8.2672,-0.0010,-0.0007,0.0026,1.0000,-0.1274,0.0003,0.2066
21156,Right,0,0.1499,-0.0952,-0.9783,-0.1067,0.0227,-0.0558,0.0243,-0.5332,-0.1129,-0.0301,-2.5976,1.7399,9.2855,0.0003,-0.0007,0.0003,1.0000,-0.0651,0.0434,0.2321
21157,Pelvis,0,-0.6189,-0.1026,-0.7767,0.0568,0.0019,-0.0674,0.0706,-0.2838,0.1588,0.0413,9.6565,0.6706,1.8733,0.0000,-0.0008,0.0009,1.0000,0.2414,0.0170,0.0470
21157,Left,0,0.2153,0.1773,-0.7192,0.6363,-0.0572,-0.0180,0.1985,-0.1914,-0.1396,-0.0648,-5.0853,0.0060,8.3197,-0.0007,-0.0002,0.0025,1.0000,-0.1272,-0.0000,0.2080
21157,Right,0,0.1488,-0.0954,-0.9787,-0.1046,0.0221,-0.0423,0.0219,-0.5635,-0.1090,-0.1366,-2.5103,1.7384,9.1996,0.0003,-0.0005,0.0003,1.0000,-0.0629,0.0434,0.2300
21158,Pelvis,0,-0.6199,-0.1009,-0.7762,0.0559,-0.0325,-0.0723,0.0554,-0.2592,0.0956,0.0581,9.6694,0.7223,1.8680,-0.0004,-0.0009,0.0007,1.0000,0.2417,0.0182,0.0469
21158,Left,0,0.2155,0.1774,-0.7177,0.6379,-0.0410,0.0169,0.1763,-0.1807,-0.1140,-0.0318,-5.1248,0.0265,8.3336,-0.0005,0.0002,0.0022,1.0000,-0.1281,0.0005,0.2084
21158,Right,0,0.1479,-0.0961,-0.9786,-0.1062,0.0161,-0.0049,0.0115,-0.5539,-0.1218,-0.1208,-2.5096,1.7645,9.2110,0.0002,-0.0001,0.0001,1.0000,-0.0628,0.0441,0.2303
21159,Pelvis,0,-0.6208,-0.0997,-0.7757,0.0552,-0.0628,-0.0747,0.0330,-0.3059,0.1135,0.0239,9.6518,0.6781,1.8026,-0.0008,-0.0009,0.0004,1.0000,0.2412,0.0171,0.0453
21159,Left,0,0.2159,0.1774,-0.7166,0.6391,-0.0138,0.0270,0.1345,-0.1277,-0.1085,-0.0533,-5.1267,0.0908,8.3056,-0.0002,0.0003,0.0017,1.0000,-0.1281,0.0021,0.2077
21159,Right,0,0.1473,-0.0967,-0.9785,-0.1070,0.0143,0.0050,0.0101,-0.4848,-0.0997,-0.0374,-2.5848,1.7514,9.2765,0.0002,0.0001,0.0001,1.0000,-0.0646,0.0437,0.2319
21160,Pelvis,0,-0.6216,-0.0983,-0.7752,0.0541,-0.0777,-0.0682,0.0155,-0.3667,0.2032,-0.0064,9.6431,0.5655,1.7408,-0.0010,-0.0009,0.0002,1.0000,0.2410,0.0142,0.0437
21160,Left,0,0.2162,0.1772,-0.7158,0.6399,0.0114,0.0139,0.0918,-0.1089,-0.0641,-0.0455,-5.1732,0.1174,8.2849,0.0001,0.0002,0.0011,1.0000,-0.1293,0.0028,0.2071
21160,Right,0,0.1468,-0.0970,-0.9787,-0.1054,0.0156,0.0032,0.0080,-0.4569,-0.1594,-0.0079,-2.6198,1.8153,9.2849,0.0002,0.0000,0.0001,1.0000,-0.0655,0.0453,0.2321
21161,Pelvis,0,-0.6223,-0.0977,-0.7748,0.0539,-0.0697,-0.0645,0.0130,-0.3623,0.2411,-0.0334,9.6206,0.5188,1.7317,-0.0009,-0.0008,0.0002,1.0000,0.2405,0.0130,0.0435
21161,Left,0,0.2166,0.1770,-0.7155,0.6402,0.0242,0.0223,0.0446,-0.0985,-0.0545,-0.0926,-5.1598,0.1366,8.2371,0.0003,0.0003,0.0006,1.0000,-0.1289,0.0033,0.2060
21161,Right,0,0.1463,-0.0972,-0.9789,-0.1044,0.0145,-0.0044,0.0073,-0.4466,-0.1037,-0.0120,-2.6072,1.7678,9.2919,0.0002,-0.0001,0.0001,1.0000,-0.0652,0.0441,0.2323
21162,Pelvis,0,-0.6230,-0.0971,-0.7743,0.0537,-0.0493,-0.0582,0.0193,-0.3491,0.3000,-0.0217,9.6345,0.4568,1.7442,-0.0006,-0.0007,0.0002,1.0000,0.2408,0.0115,0.0438
21162,Left,0,0.2171,0.1771,-0.7154,0.6401,0.0214,0.0353,0.0137,-0.1186,-0.0187,-0.0959,-5.1916,0.1195,8.2136,0.0003,0.0004,0.0002,1.0000,-0.1297,0.0029,0.2054
21162,Right,0,0.1457,-0.0976,-0.9790,-0.1040,0.0115,-0.0022,0.0073,-0.4614,-0.0922,-0.0879,-2.5570,1.7568,9.2287,0.0001,-0.0000,0.0001,1.0000,-0.0639,0.0439,0.2307
21163,Pelvis,0,-0.6236,-0.0971,-0.7738,0.0543,-0.0240,-0.0560,0.0263,-0.3029,0.3114,-0.0043,9.6449,0.4472,1.7800,-0.0003,-0.0007,0.0003,1.0000,0.2411,0.0113,0.0447
21163,Left,0,0.2175,0.1773,-0.7153,0.6401,0.0125,0.0380,0.0050,-0.1086,0.0038,-0.0920,-5.2203,0.1304,8.1996,0.0002,0.0005,0.0001,1.0000,-0.1304,0.0032,0.2051
21163,Right,0,0.1454,-0.0977,-0.9791,-0.1036,-0.0016,0.0122,0.0029,-0.5207,-0.1252,-0.1050,-2.4932,1.8059,9.2222,-0.0000,0.0002,0.0000,1.0000,-0.0623,0.0451,0.2306
21164,Pelvis,0,-0.6242,-0.0968,-0.7733,0.0545,-0.0023,-0.0488,0.0258,-0.2977,0.2775,0.0127,9.6621,0.4738,1.7670,-0.0000,-0.0006,0.0003,1.0000,0.2415,0.0119,0.0443
21164,Left,0,0.2176,0.1776,-0.7152,0.6400,-0.0043,0.0271,0.0028,-0.1046,0.0148,-0.0834,-5.2406,0.1332,8.1968,-0.0001,0.0003,0.0000,1.0000,-0.1309,0.0033,0.2050
21164,Right,0,0.1453,-0.0975,-0.9792,-0.1031,-0.0276,0.0261,-0.0071,-0.4665,-0.1736,-0.0451,-2.5656,1.8506,9.2545,-0.0003,0.0003,-0.0001,1.0000,-0.0641,0.0463,0.2314
21165,Pelvis,0,-0.6247,-0.0967,-0.7729,0.0548,0.0292,-0.0405,0.0250,-0.3298,0.3656,-0.0012,9.6614,0.3725,1.7399,0.0004,-0.0005,0.0003,1.0000,0.2415,0.0094,0.0436
21165,Left,0,0.2175,0.1778,-0.7151,0.6401,-0.0147,0.0122,0.0027,-0.1461,0.0321,-0.0580,-5.2688,0.0878,8.2103,-0.0002,0.0002,0.0000,1.0000,-0.1317,0.0022,0.2053
21165,Right,0,0.1452,-0.0972,-0.9792,-0.1029,-0.0411,0.0239,-0.0067,-0.4228,-0.1258,-0.0537,-2.5928,1.7898,9.2470,-0.0005,0.0003,-0.0001,1.0000,-0.0647,0.0449,0.2312
21166,Pelvis,0,-0.6251,-0.0968,-0.7726,0.0553,0.0572,-0.0262,0.0241,-0.3303,0.3245,0.0260,9.6886,0.4084,1.7255,0.0007,-0.0003,0.0003,1.0000,0.2422,0.0103,0.0432
21166,Left,0,0.2173,0.1780,-0.7151,0.6402,-0.0182,-0.0097,0.0051,-0.2025,0.0561,-0.0361,-5.2956,0.0251,8.2208,-0.0002,-0.0001,0.0001,1.0000,-0.1324,0.0007,0.2055
21166,Right,0,0.1452,-0.0968,-0.9794,-0.1011,-0.0369,0.0257,-0.0035,-0.3867,-0.0605,-0.0277,-2.6201,1.7172,9.2783,-0.0005,0.0003,-0.0000,1.0000,-0.0654,0.0430,0.2320
21167,Pelvis,0,-0.6253,-0.0969,-0.7723,0.0558,0.0893,-0.0186,0.0273,-0.3305,0.2834,0.0531,9.7154,0.4453,1.7133,0.0011,-0.0002,0.0003,1.0000,0.2429,0.0112,0.0429
21167,Left,0,0.2168,0.1777,-0.7151,0.6403,-0.0033,-0.0417,0.0065,-0.2109,0.0440,-0.0181,-5.2888,0.0159,8.2468,-0.0000,-0.0005,0.0001,1.0000,-0.1323,0.0004,0.2061
21167,Right,0,0.1451,-0.0966,-0.9795,-0.1007,-0.0287,0.0247,-0.0004,-0.4109,-0.1030,-0.0181,-2.6050,1.7618,9.2857,-0.0004,0.0003,-0.0000,1.0000,-0.0651,0.0441,0.2321
21168,Pelvis,0,-0.6255,-0.0983,-0.7719,0.0578,0.1179,-0.0162,0.0354,-0.3213,0.2448,0.0513,9.7119,0.4784,1.7065,0.0015,-0.0002,0.0004,1.0000,0.2428,0.0120,0.0427
21168,Left,0,0.2162,0.1772,-0.7152,0.6406,-0.0046,-0.0648,0.0160,-0.1941,0.0248,-0.0654,-5.2373,0.0330,8.2230,-0.0001,-0.0008,0.0002,1.0000,-0.1311,0.0008,0.2055
21168,Right,0,0.1449,-0.0966,-0.9795,-0.1011,-0.0244,0.0184,0.0001,-0.3671,-0.0820,-0.0091,-2.6423,1.7318,9.2882,-0.0003,0.0002,0.0000,1.0000,-0.0660,0.0434,0.2322
21169,Pelvis,0,-0.6258,-0.0984,-0.7715,0.0585,0.1288,-0.0183,0.0456,-0.2599,0.1818,0.0246,9.6725,0.5439,1.7376,0.0016,-0.0002,0.0006,1.0000,0.2418,0.0137,0.0435
21169,Left,0,0.2154,0.1766,-0.7151,0.6411,-0.0116,-0.0726,0.0345,-0.1373,-0.0090,-0.0958,-5.1830,0.0928,8.2197,-0.0001,-0.0009,0.0004,1.0000,-0.1298,0.0023,0.2054
21169,Right,0,0.1446,-0.0966,-0.9795,-0.1016,-0.0186,0.0111,0.0039,-0.3536,-0.0403,0.0013,-2.6467,1.6902,9.3048,-0.0002,0.0001,0.0000,1.0000,-0.0661,0.0423,0.2326
21170,Pelvis,0,-0.6261,-0.0989,-0.7711,0.0597,0.1281,-0.0200,0.0501,-0.2776,0.2320,0.0208,9.6762,0.4825,1.7228,0.0016,-0.0002,0.0006,1.0000,0.2419,0.0121,0.0432
21170,Left,0,0.2145,0.1764,-0.7147,0.6419,-0.0469,-0.0722,0.0625,-0.0683,-0.0070,-0.0847,-5.1810,0.1601,8.2322,-0.0006,-0.0009,0.0008,1.0000,-0.1297,0.0040,0.2057
21170,Right,0,0.1443,-0.0966,-0.9796,-0.1009,-0.0103,0.0061,0.0054,-0.3668,-0.0376,-0.0007,-2.6273,1.6908,9.3085,-0.0001,0.0001,0.0001,1.0000,-0.0657,0.0423,0.2327
21171,Pelvis,0,-0.6264,-0.0993,-0.7707,0.0607,0.1319,-0.0222,0.0501,-0.3570,0.2889,0.0128,9.6887,0.4003,1.6494,0.0016,-0.0003,0.0006,1.0000,0.2422,0.0101,0.0413
21171,Left,0,0.2132,0.1764,-0.7140,0.6431,-0.0940,-0.0753,0.0900,-0.1493,-0.0019,-0.0994,-5.1551,0.0726,8.2335,-0.0012,-0.0009,0.0011,1.0000,-0.1291,0.0019,0.2057
21171,Right,0,0.1440,-0.0965,-0.9797,-0.1005,-0.0140,0.0012,0.0041,-0.3602,-0.0585,-0.0349,-2.6199,1.7052,9.2718,-0.0002,0.0000,0.0001,1.0000,-0.0655,0.0427,0.2318
21172,Pelvis,0,-0.6268,-0.0999,-0.7702,0.0620,0.1534,-0.0290,0.0503,-0.4048,0.3632,-0.0018,9.6886,0.3077,1.6081,0.0019,-0.0004,0.0006,1.0000,0.2422,0.0078,0.0403
21172,Left,0,0.2117,0.1767,-0.7132,0.6445,-0.1205,-0.0737,0.0976,-0.1327,-0.0355,-0.0403,-5.1436,0.0826,8.3099,-0.0015,-0.0009,0.0012,1.0000,-0.1288,0.0022,0.2076
21172,Right,0,0.1435,-0.0965,-0.9798,-0.1005,-0.0178,-0.0023,0.0029,-0.3730,-0.0579,-0.0463,-2.5969,1.7062,9.2666,-0.0002,-0.0000,0.0000,1.0000,-0.0649,0.0427,0.2317
21173,Pelvis,0,-0.6273,-0.1005,-0.7697,0.0631,0.1867,-0.0339,0.0549,-0.3919,0.4205,-0.0207,9.6714,0.2453,1.6180,0.0023,-0.0004,0.0007,1.0000,0.2418,0.0062,0.0406
21173,Left,0,0.2101,0.1770,-0.7123,0.6459,-0.1367,-0.0779,0.1041,-0.1391,-0.0269,-0.0705,-5.1182,0.0593,8.2904,-0.0017,-0.0010,0.0013,1.0000,-0.1282,0.0017,0.2071
21173,Right,0,0.1434,-0.0963,-0.9799,-0.0995,-0.0196,0.0045,-0.0021,-0.3735,-0.0152,-0.0788,-2.5728,1.6585,9.2477,-0.0002,0.0001,-0.0000,1.0000,-0.0643,0.0415,0.2312
21174,Pelvis,0,-0.6277,-0.1015,-0.7690,0.0649,0.2226,-0.0391,0.0616,-0.3953,0.4084,-0.0504,9.6450,0.2456,1.5933,0.0028,-0.0005,0.0008,1.0000,0.2411,0.0062,0.0400
21174,Left,0,0.2083,0.1774,-0.7111,0.6477,-0.1583,-0.0866,0.1293,-0.2098,0.0204,-0.0508,-5.1457,-0.0326,8.2982,-0.0020,-0.0011,0.0016,1.0000,-0.1289,-0.0006,0.2073
21174,Right,0,0.1432,-0.0959,-0.9800,-0.0991,-0.0318,0.0120,-0.0105,-0.3854,-0.0904,-0.0486,-2.5786,1.7351,9.2647,-0.0004,0.0002,-0.0001,1.0000,-0.0644,0.0435,0.2316
21175,Pelvis,0,-0.6281,-0.1031,-0.7683,0.0671,0.2630,-0.0392,0.0652,-0.4181,0.4392,-0.0619,9.6417,0.2011,1.5631,0.0033,-0.0005,0.0008,1.0000,0.2410,0.0051,0.0392
21175,Left,0,0.2062,0.1779,-0.7095,0.6500,-0.1891,-0.0995,0.1842,-0.1960,0.0298,-0.0325,-5.1449,-0.0368,8.3199,-0.0024,-0.0012,0.0023,1.0000,-0.1289,-0.0007,0.2078
21175,Right,0,0.1431,-0.0956,-0.9800,-0.0996,-0.0402,0.0121,-0.0178,-0.3636,-0.1460,-0.0409,-2.6076,1.7795,9.2561,-0.0005,0.0002,-0.0002,1.0000,-0.0651,0.0446,0.2314
21176,Pelvis,0,-0.6286,-0.1042,-0.7677,0.0687,0.3094,-0.0293,0.0654,-0.4528,0.4405,0.0007,9.7124,0.1897,1.5283,0.0039,-0.0004,0.0008,1.0000,0.2428,0.0048,0.0383
21176,Left,0,0.2037,0.1783,-0.7073,0.6531,-0.2314,-0.1304,0.2509,-0.1628,0.0639,-0.0503,-5.1429,-0.0243,8.2997,-0.0029,-0.0016,0.0031,1.0000,-0.1289,-0.0004,0.2073
21176,Right,0,0.1429,-0.0952,-0.9801,-0.0998,-0.0473,0.0130,-0.0188,-0.3401,-0.1074,-0.0188,-2.6274,1.7327,9.2813,-0.0006,0.0002,-0.0002,1.0000,-0.0656,0.0435,0.2320
21177,Pelvis,0,-0.6286,-0.1067,-0.7670,0.0720,0.3622,-0.0158,0.0740,-0.4076,0.3899,0.0491,9.7512,0.2457,1.5580,0.0045,-0.0002,0.0009,1.0000,0.2438,0.0062,0.0390
21177,Left,0,0.2005,0.1786,-0.7042,0.6573,-0.2899,-0.1666,0.3543,-0.2164,0.1255,-0.0752,-5.1483,-0.0999,8.2684,-0.0036,-0.0021,0.0044,1.0000,-0.1291,-0.0023,0.2065
21177,Right,0,0.1429,-0.0948,-0.9802,-0.0991,-0.0333,0.0156,-0.0116,-0.3143,-0.0748,-0.0154,-2.6444,1.6885,9.2869,-0.0004,0.0002,-0.0001,1.0000,-0.0661,0.0423,0.2322
21178,Pelvis,0,-0.6288,-0.1096,-0.7661,0.0758,0.4150,-0.0225,0.0857,-0.3520,0.3212,0.0725,9.7633,0.3199,1.5876,0.0052,-0.0003,0.0011,1.0000,0.2441,0.0081,0.0398
21178,Left,0,0.1968,0.1789,-0.7003,0.6625,-0.3428,-0.2071,0.4450,-0.2823,0.1232,-0.0074,-5.1401,-0.1806,8.3537,-0.0043,-0.0026,0.0056,1.0000,-0.1290,-0.0043,0.2085
21178,Right,0,0.1428,-0.0948,-0.9802,-0.0987,-0.0024,0.0125,-0.0046,-0.2963,-0.0010,-0.0141,-2.6469,1.6120,9.3003,-0.0000,0.0002,-0.0001,1.0000,-0.0661,0.0403,0.2325
21179,Pelvis,0,-0.6291,-0.1119,-0.7652,0.0788,0.4588,-0.0299,0.0881,-0.3307,0.2996,0.0597,9.7485,0.3387,1.5859,0.0057,-0.0004,0.0011,1.0000,0.2437,0.0085,0.0398
21179,Left,0,0.1924,0.1787,-0.6952,0.6691,-0.3942,-0.2661,0.5764,-0.2199,0.1936,-0.0006,-5.1591,-0.1351,8.3503,-0.0049,-0.0033,0.0072,1.0000,-0.1296,-0.0033,0.2083
21179,Right,0,0.1426,-0.0953,-0.9803,-0.0981,0.0300,0.0112,0.0054,-0.3059,-0.0607,-0.0084,-2.6465,1.6784,9.2952,0.0004,0.0001,0.0001,1.0000,-0.0661,0.0419,0.2324
21180,Pelvis,2,-0.6292,-0.1148,-0.7643,0.0822,0.5003,-0.0213,0.0803,-0.2720,0.2675,0.0160,9.6959,0.3775,1.6109,0.0063,-0.0003,0.0010,1.0000,0.2424,0.0094,0.0404
21180,Left,2,0.1870,0.1786,-0.6887,0.6774,-0.4988,-0.3280,0.7414,-0.1686,0.2188,-0.0572,-5.0934,-0.0956,8.3243,-0.0062,-0.0041,0.0093,0.9999,-0.1282,-0.0023,0.2076
21180,Right,2,0.1425,-0.0958,-0.9803,-0.0976,0.0390,0.0164,0.0132,-0.3198,-0.0874,-0.0327,-2.6274,1.7147,9.2690,0.0005,0.0002,0.0002,1.0000,-0.0656,0.0427,0.2318
21181,Pelvis,2,-0.6291,-0.1190,-0.7632,0.0871,0.5283,-0.0283,0.0822,-0.2737,0.1885,-0.0111,9.6705,0.4482,1.5688,0.0066,-0.0004,0.0010,1.0000,0.2417,0.0112,0.0394
21181,Left,2,0.1804,0.1787,-0.6804,0.6875,-0.6274,-0.3780,0.9159,-0.1060,0.1529,-0.1171,-4.9350,-0.0475,8.3476,-0.0078,-0.0047,0.0114,0.9999,-0.1243,-0.0010,0.2081
21181,Right,2,0.1423,-0.0966,-0.9803,-0.0975,0.0430,0.0212,0.0214,-0.2759,-0.0252,-0.0358,-2.6554,1.6586,9.2662,0.0005,0.0003,0.0003,1.0000,-0.0663,0.0413,0.2317
21182,Pelvis,2,-0.6291,-0.1235,-0.7619,0.0922,0.5636,-0.0382,0.0800,-0.2612,0.2063,0.0276,9.7092,0.4357,1.5764,0.0070,-0.0005,0.0010,1.0000,0.2427,0.0109,0.0396
21182,Left,2,0.1729,0.1789,-0.6703,0.6992,-0.7341,-0.4203,1.0871,-0.2126,0.1216,-0.0908,-4.8411,-0.1762,8.4326,-0.0092,-0.0053,0.0136,0.9999,-0.1221,-0.0041,0.2102
21182,Right,2,0.1421,-0.0975,-0.9802,-0.0972,0.0590,0.0131,0.0300,-0.2611,0.0070,-0.0230,-2.6652,1.6432,9.2792,0.0007,0.0002,0.0004,1.0000,-0.0666,0.0409,0.2320
21183,Pelvis,2,-0.6290,-0.1287,-0.7604,0.0976,0.6187,-0.0407,0.0690,-0.2636,0.2425,0.0701,9.7546,0.4052,1.5749,0.0077,-0.0005,0.0009,1.0000,0.2438,0.0100,0.0396
21183,Left,2,0.1644,0.1793,-0.6584,0.7123,-0.8385,-0.4547,1.2441,-0.1913,0.1188,-0.0714,-4.7601,-0.1833,8.5001,-0.0105,-0.0057,0.0155,0.9998,-0.1201,-0.0042,0.2119
21183,Right,2,0.1418,-0.0983,-0.9802,-0.0970,0.0519,0.0071,0.0298,-0.3150,-0.0748,-0.0252,-2.6229,1.7507,9.2712,0.0006,0.0001,0.0004,1.0000,-0.0656,0.0436,0.2318
21184,Pelvis,2,-0.6286,-0.1344,-0.7590,0.1033,0.6706,-0.0273,0.0531,-0.1962,0.2208,0.0869,9.7606,0.4551,1.6164,0.0084,-0.0003,0.0007,1.0000,0.2440,0.0112,0.0406
21184,Left,2,0.1553,0.1797,-0.6450,0.7263,-0.9132,-0.4885,1.3696,-0.2896,0.0660,-0.0658,-4.6311,-0.3207,8.5756,-0.0114,-0.0061,0.0171,0.9998,-0.1170,-0.0076,0.2138
21184,Right,2,0.1416,-0.0987,-0.9802,-0.0968,0.0218,0.0142,0.0189,-0.3584,-0.1563,-0.0061,-2.5975,1.8540,9.2810,0.0003,0.0002,0.0002,1.0000,-0.0649,0.0463,0.2321
21185,Pelvis,2,-0.6281,-0.1407,-0.7574,0.1092,0.7120,-0.0253,0.0399,-0.1165,0.0721,0.0893,9.7484,0.6345,1.6232,0.0089,-0.0003,0.0005,1.0000,0.2437,0.0156,0.0408
21185,Left,2,0.1459,0.1796,-0.6306,0.7408,-0.9225,-0.5211,1.4483,-0.3599,-0.0506,-0.0572,-4.4447,-0.4444,8.6805,-0.0115,-0.0065,0.0181,0.9997,-0.1123,-0.0106,0.2164
21185,Right,2,0.1415,-0.0987,-0.9802,-0.0968,-0.0118,0.0152,0.0040,-0.3146,-0.1213,-0.0223,-2.6257,1.8122,9.2621,-0.0001,0.0002,0.0000,1.0000,-0.0656,0.0453,0.2316
21186,Pelvis,2,-0.6275,-0.1472,-0.7558,0.1152,0.7363,-0.0273,0.0278,-0.1219,0.0226,0.0051,9.6683,0.6897,1.5664,0.0092,-0.0003,0.0003,1.0000,0.2417,0.0170,0.0394
21186,Left,2,0.1365,0.1790,-0.6159,0.7550,-0.8931,-0.5430,1.4646,-0.2613,-0.0523,-0.0959,-4.3121,-0.3865,8.7032,-0.0112,-0.0068,0.0183,0.9997,-0.1091,-0.0092,0.2169
21186,Right,2,0.1414,-0.0984,-0.9803,-0.0969,-0.0375,0.0151,-0.0038,-0.2926,-0.1085,-0.0441,-2.6357,1.7888,9.2399,-0.0005,0.0002,-0.0000,1.0000,-0.0658,0.0448,0.2310
21187,Pelvis,2,-0.6267,-0.1543,-0.7541,0.1215,0.7873,-0.0189,0.0211,-0.1525,0.1171,-0.0703,9.6027,0.6053,1.5408,0.0098,-0.0002,0.0003,1.0000,0.2401,0.0148,0.0387
21187,Left,2,0.1273,0.1779,-0.6010,0.7687,-0.8635,-0.5568,1.4619,-0.2155,-0.1326,-0.1111,-4.1212,-0.3972,8.7775,-0.0108,-0.0070,0.0183,0.9998,-0.1044,-0.0095,0.2188
21187,Right,2,0.1415,-0.0978,-0.9803,-0.0967,-0.0536,0.0157,-0.0047,-0.2778,-0.0822,-0.0501,-2.6433,1.7508,9.2379,-0.0007,0.0002,-0.0001,1.0000,-0.0660,0.0439,0.2309
21188,Pelvis,2,-0.6255,-0.1620,-0.7523,0.1284,0.8487,-0.0018,0.0198,-0.1642,0.1668,-0.0524,9.6241,0.5798,1.5362,0.0106,-0.0000,0.0002,0.9999,0.2406,0.0141,0.0386
21188,Left,2,0.1182,0.1765,-0.5866,0.7815,-0.8223,-0.5593,1.3866,-0.1355,-0.1284,-0.1401,-3.9868,-0.3608,8.8074,-0.0103,-0.0070,0.0173,0.9998,-0.1011,-0.0085,0.2196
21188,Right,2,0.1416,-0.0972,-0.9804,-0.0966,-0.0627,0.0195,-0.0035,-0.3043,-0.0808,-0.0424,-2.6202,1.7456,9.2545,-0.0008,0.0002,-0.0000,1.0000,-0.0654,0.0438,0.2313
21189,Pelvis,2,-0.6240,-0.1701,-0.7505,0.1359,0.9183,0.0196,0.0374,-0.1966,0.1773,-0.1023,9.5816,0.5764,1.4908,0.0115,0.0002,0.0005,0.9999,0.2395,0.0141,0.0374
21189,Left,2,0.1096,0.1750,-0.5735,0.7927,-0.7475,-0.5378,1.2426,-0.0982,-0.2577,-0.1038,-3.7709,-0.4108,8.9416,-0.0093,-0.0067,0.0155,0.9998,-0.0956,-0.0097,0.2230
21189,Right,2,0.1417,-0.0965,-0.9805,-0.0965,-0.0687,0.0212,-0.0044,-0.2826,-0.0686,-0.0335,-2.6421,1.7178,9.2621,-0.0009,0.0003,-0.0001,1.0000,-0.0660,0.0431,0.2315
21190,Pelvis,2,-0.6224,-0.1785,-0.7484,0.1441,0.9696,0.0201,0.0594,-0.1663,0.1399,-0.1003,9.5781,0.6435,1.4912,0.0121,0.0003,0.0007,0.9999,0.2395,0.0158,0.0374
21190,Left,2,0.1019,0.1732,-0.5625,0.8020,-0.6371,-0.5012,1.0317,-0.1079,-0.2638,-0.0929,-3.6694,-0.4733,8.9927,-0.0080,-0.0063,0.0129,0.9999,-0.0930,-0.0112,0.2243
21190,Right,2,0.1417,-0.0956,-0.9805,-0.0964,-0.0772,0.0175,-0.0072,-0.2647,-0.0722,-0.0309,-2.6603,1.7027,9.2618,-0.0010,0.0002,-0.0001,1.0000,-0.0665,0.0428,0.2315
21191,Pelvis,2,-0.6207,-0.1870,-0.7460,0.1526,0.9942,0.0097,0.0769,-0.2158,-0.0133,-0.1234,9.5646,0.7724,1.3603,0.0124,0.0001,0.0010,0.9999,0.2391,0.0191,0.0342
21191,Left,2,0.0949,0.1715,-0.5536,0.8093,-0.5484,-0.4537,0.8212,-0.0955,-0.2616,-0.0541,-3.5867,-0.5136,9.0653,-0.0069,-0.0057,0.0103,0.9999,-0.0908,-0.0122,0.2262
21191,Right,2,0.1417,-0.0948,-0.9806,-0.0963,-0.0781,0.0104,-0.0072,-0.2147,0.0018,-0.0066,-2.7009,1.6091,9.2909,-0.0010,0.0001,-0.0001,1.0000,-0.0675,0.0405,0.2322
21192,Pelvis,2,-0.6189,-0.1955,-0.7435,0.1612,1.0092,0.0150,0.0837,-0.2274,-0.1274,0.0159,9.7049,0.8913,1.2999,0.0126,0.0002,0.0010,0.9999,0.2426,0.0221,0.0327
21192,Left,2,0.0884,0.1701,-0.5464,0.8153,-0.4930,-0.4115,0.6539,-0.1858,-0.1590,-0.0070,-3.6355,-0.6147,9.0894,-0.0062,-0.0051,0.0082,0.9999,-0.0919,-0.0147,0.2269
21192,Right,2,0.1415,-0.0940,-0.9807,-0.0963,-0.0686,0.0021,-0.0059,-0.2327,0.0089,0.0102,-2.6846,1.5935,9.3165,-0.0009,0.0000,-0.0001,1.0000,-0.0671,0.0400,0.2329
21193,Pelvis,2,-0.6167,-0.2040,-0.7410,0.1702,1.0269,0.0494,0.0942,-0.1110,-0.1631,0.1463,9.8134,0.9997,1.3853,0.0128,0.0006,0.0012,0.9999,0.2453,0.0248,0.0348
21193,Left,2,0.0826,0.1678,-0.5405,0.8203,-0.3905,-0.4320,0.5486,-0.6961,-0.0210,0.1246,-3.8965,-1.0826,9.1039,-0.0049,-0.0054,0.0069,0.9999,-0.0985,-0.0266,0.2272
21193,Right,2,0.1414,-0.0933,-0.9808,-0.0963,-0.0625,-0.0032,-0.0040,-0.2280,0.0041,-0.0085,-2.6815,1.5797,9.2999,-0.0008,-0.0000,-0.0000,1.0000,-0.0670,0.0397,0.2325
21194,Pelvis,2,-0.6140,-0.2127,-0.7386,0.1796,1.0648,0.0776,0.1145,0.0029,-0.1094,0.1585,9.8055,1.0213,1.4989,0.0133,0.0010,0.0014,0.9999,0.2451,0.0254,0.0376
21194,Left,2,0.0771,0.1644,-0.5342,0.8256,-0.3280,-0.4897,0.5926,-0.2554,-0.1261,-0.2246,-3.4301,-0.7366,8.9278,-0.0041,-0.0061,0.0074,0.9999,-0.0870,-0.0181,0.2227
21194,Right,2,0.1412,-0.0927,-0.9809,-0.0962,-0.0536,-0.0058,-0.0023,-0.2392,0.0183,-0.0135,-2.6613,1.5560,9.3047,-0.0007,-0.0001,-0.0000,1.0000,-0.0665,0.0391,0.2326
21195,Pelvis,2,-0.6114,-0.2213,-0.7358,0.1894,1.0783,0.0642,0.1387,0.0267,-0.0536,0.0611,9.7061,0.9844,1.5227,0.0135,0.0008,0.0017,0.9999,0.2426,0.0245,0.0382
21195,Left,2,0.0715,0.1622,-0.5264,0.8316,-0.4070,-0.4188,0.7155,0.1093,-0.5306,-0.3282,-2.8191,-0.6033,9.0519,-0.0051,-0.0052,0.0089,0.9999,-0.0715,-0.0146,0.2260
21195,Right,2,0.1409,-0.0922,-0.9810,-0.0963,-0.0499,-0.0041,-0.0033,-0.2558,-0.0277,0.0084,-2.6543,1.5972,9.3233,-0.0006,-0.0001,-0.0000,1.0000,-0.0664,0.0401,0.2331
21196,Pelvis,2,-0.6088,-0.2295,-0.7329,0.1991,1.0533,0.0630,0.1556,-0.0946,-0.1464,0.0732,9.7424,0.9959,1.3619,0.0132,0.0008,0.0019,0.9999,0.2435,0.0249,0.0342
21196,Left,2,0.0665,0.1601,-0.5185,0.8373,-0.3725,-0.3801,0.7190,-0.2420,-0.0615,-0.0386,-3.3788,-0.7646,9.1431,-0.0047,-0.0048,0.0090,0.9999,-0.0854,-0.0188,0.2283
21196,Right,2,0.1407,-0.0916,-0.9811,-0.0963,-0.0535,-0.0010,-0.0094,-0.2514,-0.0502,0.0050,-2.6562,1.6071,9.3174,-0.0007,-0.0000,-0.0001,1.0000,-0.0664,0.0403,0.2329
21197,Pelvis,2,-0.6061,-0.2374,-0.7299,0.2085,1.0250,0.0677,0.1608,0.0243,-0.4105,0.0942,9.7478,1.2745,1.2931,0.0128,0.0008,0.0020,0.9999,0.2437,0.0319,0.0325
21197,Left,2,0.0610,0.1582,-0.5106,0.8430,-0.4179,-0.3888,0.7023,-0.1201,0.0330,-0.0791,-3.3200,-0.6436,9.1281,-0.0052,-0.0049,0.0088,0.9999,-0.0840,-0.0156,0.2279
21197,Right,2,0.1405,-0.0911,-0.9812,-0.0963,-0.0435,-0.0024,-0.0041,-0.2203,-0.0113,0.0169,-2.6784,1.5548,9.3315,-0.0005,-0.0000,-0.0001,1.0000,-0.0670,0.0390,0.2333
21198,Pelvis,2,-0.6034,-0.2449,-0.7270,0.2177,0.9878,0.0733,0.1582,0.1764,-0.4999,0.0492,9.6815,1.4239,1.3345,0.0123,0.0009,0.0020,0.9999,0.2420,0.0357,0.0336
21198,Left,2,0.0552,0.1561,-0.5035,0.8480,-0.4057,-0.4081,0.6183,-0.1767,-0.0126,-0.1048,-3.2183,-0.7552,9.1295,-0.0051,-0.0051,0.0077,0.9999,-0.0815,-0.0184,0.2279
21198,Right,2,0.1403,-0.0909,-0.9812,-0.0962,-0.0265,-0.0033,0.0023,-0.2259,-0.0133,-0.0135,-2.6595,1.5474,9.3063,-0.0003,-0.0000,0.0000,1.0000,-0.0665,0.0388,0.2326
21199,Pelvis,2,-0.6007,-0.2517,-0.7243,0.2263,0.9127,0.0773,0.1584,0.1450,-0.4253,-0.0220,9.6187,1.3307,1.3301,0.0114,0.0010,0.0020,0.9999,0.2404,0.0334,0.0334
21199,Left,2,0.0500,0.1535,-0.4983,0.8518,-0.3290,-0.4142,0.4593,-0.3158,-0.3142,-0.0696,-2.9571,-1.0698,9.2325,-0.0041,-0.0052,0.0057,1.0000,-0.0750,-0.0262,0.2305
21199,Right,2,0.1401,-0.0907,-0.9813,-0.0962,-0.0178,0.0018,0.0033,-0.2314,0.0096,-0.0309,-2.6402,1.5198,9.2982,-0.0002,0.0000,0.0000,1.0000,-0.0660,0.0380,0.2324
21200,Pelvis,2,-0.5982,-0.2577,-0.7217,0.2344,0.8362,0.0758,0.1632,0.1303,-0.2986,-0.0285,9.6145,1.2123,1.3883,0.0105,0.0009,0.0020,0.9999,0.2403,0.0304,0.0348
21200,Left,2,0.0457,0.1511,-0.4954,0.8542,-0.2343,-0.3562,0.2522,-0.1410,-0.2785,-0.0430,-2.8356,-0.9440,9.3066,-0.0029,-0.0045,0.0032,1.0000,-0.0719,-0.0231,0.2324
21200,Right,2,0.1399,-0.0907,-0.9813,-0.0962,-0.0095,0.0032,0.0018,-0.2070,0.0179,-0.0007,-2.6667,1.5103,9.3234,-0.0001,0.0000,0.0000,1.0000,-0.0667,0.0378,0.2331
21201,Pelvis,2,-0.5958,-0.2635,-0.7191,0.2418,0.7886,0.0645,0.1443,0.1364,-0.2046,-0.0451,9.5967,1.1336,1.4437,0.0099,0.0008,0.0018,0.9999,0.2399,0.0284,0.0362
21201,Left,2,0.0424,0.1488,-0.4946,0.8552,-0.1369,-0.2958,0.0669,-0.1946,-0.2037,-0.0167,-2.8588,-0.9881,9.3216,-0.0017,-0.0037,0.0008,1.0000,-0.0723,-0.0244,0.2328
21201,Right,2,0.1396,-0.0906,-0.9813,-0.0964,-0.0050,0.0028,0.0041,-0.2203,0.0069,-0.0401,-2.6397,1.5163,9.2890,-0.0001,0.0000,0.0001,1.0000,-0.0660,0.0379,0.2322
21202,Pelvis,2,-0.5934,-0.2689,-0.7167,0.2488,0.7374,0.0662,0.1358,0.1582,-0.1905,-0.0134,9.6255,1.1329,1.4670,0.0092,0.0008,0.0017,1.0000,0.2406,0.0284,0.0367
21202,Left,2,0.0395,0.1470,-0.4950,0.8554,-0.1147,-0.2383,-0.0469,-0.0995,-0.1213,-0.1010,-2.7966,-0.8887,9.2591,-0.0014,-0.0030,-0.0006,1.0000,-0.0706,-0.0218,0.2313
21202,Right,2,0.1396,-0.0908,-0.9813,-0.0962,0.0009,0.0120,0.0067,-0.2255,0.0044,-0.0396,-2.6335,1.5219,9.2905,0.0000,0.0001,0.0001,1.0000,-0.0658,0.0380,0.2323
21203,Pelvis,2,-0.5912,-0.2738,-0.7144,0.2553,0.6829,0.0619,0.1340,0.2116,-0.2533,-0.0626,9.5722,1.2025,1.4490,0.0085,0.0008,0.0017,1.0000,0.2393,0.0302,0.0363
21203,Left,2,0.0368,0.1459,-0.4957,0.8554,-0.1254,-0.1875,-0.0736,-0.1664,-0.2223,-0.1331,-2.6836,-1.0286,9.2472,-0.0016,-0.0023,-0.0009,1.0000,-0.0677,-0.0253,0.2311
21203,Right,2,0.1395,-0.0909,-0.9813,-0.0962,0.0035,0.0201,0.0082,-0.2380,-0.0056,-0.0481,-2.6200,1.5353,9.2835,0.0000,0.0003,0.0001,1.0000,-0.0654,0.0384,0.2321
21204,Pelvis,2,-0.5890,-0.2784,-0.7122,0.2614,0.6374,0.0648,0.1206,0.2308,-0.2710,-0.0357,9.5980,1.2229,1.4487,0.0080,0.0008,0.0015,1.0000,0.2399,0.0306,0.0363
21204,Left,2,0.0343,0.1451,-0.4964,0.8552,-0.1283,-0.1556,-0.0807,-0.2058,-0.1444,-0.0814,-2.7403,-1.0638,9.2801,-0.0016,-0.0019,-0.0010,1.0000,-0.0690,-0.0262,0.2319
21204,Right,2,0.1396,-0.0912,-0.9813,-0.0964,0.0133,0.0343,0.0094,-0.2314,0.0415,-0.0409,-2.6214,1.4930,9.2975,0.0002,0.0004,0.0001,1.0000,-0.0654,0.0373,0.2325
21205,Pelvis,2,-0.5869,-0.2827,-0.7103,0.2669,0.5935,0.0667,0.0964,0.1869,-0.2188,-0.0645,9.5759,1.1478,1.4474,0.0074,0.0008,0.0012,1.0000,0.2394,0.0287,0.0362
21205,Left,2,0.0317,0.1443,-0.4973,0.8549,-0.1254,-0.1561,-0.0982,-0.2937,-0.1404,-0.0689,-2.7495,-1.1759,9.2793,-0.0016,-0.0020,-0.0012,1.0000,-0.0692,-0.0289,0.2319
21205,Right,2,0.1401,-0.0916,-0.9812,-0.0960,0.0224,0.0490,0.0161,-0.1573,-0.0438,0.0094,-2.7264,1.5732,9.3054,0.0003,0.0006,0.0002,1.0000,-0.0680,0.0393,0.2327
21206,Pelvis,2,-0.5849,-0.2867,-0.7083,0.2718,0.5442,0.0466,0.0859,0.1278,-0.1772,-0.1752,9.4756,1.0646,1.4171,0.0068,0.0006,0.0011,1.0000,0.2369,0.0266,0.0355
21206,Left,2,0.0293,0.1432,-0.4983,0.8546,-0.0974,-0.1761,-0.1023,-0.4295,-0.1140,-0.0245,-2.8055,-1.3181,9.2951,-0.0012,-0.0022,-0.0013,1.0000,-0.0707,-0.0326,0.2323
21206,Right,2,0.1406,-0.0921,-0.9811,-0.0956,0.0327,0.0592,0.0211,-0.2427,0.0328,-0.0493,-2.6254,1.5180,9.2837,0.0004,0.0007,0.0003,1.0000,-0.0655,0.0378,0.2322
21207,Pelvis,2,-0.5834,-0.2905,-0.7063,0.2763,0.4988,0.0167,0.0794,0.0481,-0.1838,-0.3317,9.3364,0.9955,1.3283,0.0062,0.0002,0.0010,1.0000,0.2334,0.0249,0.0333
21207,Left,2,0.0272,0.1414,-0.4992,0.8544,-0.0540,-0.2091,-0.0888,-0.3660,-0.2416,-0.1529,-2.5857,-1.3417,9.2205,-0.0007,-0.0026,-0.0011,1.0000,-0.0653,-0.0333,0.2304
21207,Right,2,0.1413,-0.0928,-0.9810,-0.0952,0.0412,0.0775,0.0220,-0.2488,-0.0201,-0.0652,-2.6356,1.5795,9.2539,0.0005,0.0010,0.0003,1.0000,-0.0657,0.0394,0.2314
21208,Pelvis,2,-0.5822,-0.2942,-0.7043,0.2802,0.4632,-0.0146,0.0657,-0.1062,-0.1365,-0.4118,9.2827,0.8415,1.2370,0.0058,-0.0002,0.0008,1.0000,0.2320,0.0210,0.0311
21208,Left,2,0.0255,0.1391,-0.5001,0.8543,-0.0039,-0.2179,-0.0711,-0.3539,-0.1585,-0.1231,-2.6064,-1.3065,9.2487,-0.0000,-0.0027,-0.0009,1.0000,-0.0658,-0.0326,0.2310
21208,Right,2,0.1423,-0.0935,-0.9808,-0.0946,0.0383,0.1087,0.0344,-0.2591,-0.0307,-0.0428,-2.6497,1.6079,9.2689,0.0005,0.0014,0.0004,1.0000,-0.0659,0.0401,0.2318
21209,Pelvis,2,-0.5811,-0.2979,-0.7022,0.2836,0.4360,-0.0340,0.0350,-0.1882,-0.1031,-0.4951,9.2144,0.7524,1.1804,0.0054,-0.0004,0.0004,1.0000,0.2303,0.0187,0.0297
21209,Left,2,0.0241,0.1369,-0.5008,0.8544,0.0081,-0.2138,-0.0554,-0.2015,-0.2009,-0.0937,-2.4559,-1.2048,9.3304,0.0001,-0.0027,-0.0007,1.0000,-0.0620,-0.0301,0.2331
21209,Right,2,0.1436,-0.0942,-0.9807,-0.0939,0.0328,0.1222,0.0444,-0.1303,0.0007,-0.0213,-2.7956,1.5664,9.2531,0.0004,0.0015,0.0006,1.0000,-0.0696,0.0390,0.2315
21210,Pelvis,2,-0.5798,-0.3017,-0.7005,0.2865,0.4133,-0.0207,-0.0114,0.0435,-0.0342,-0.4113,9.2566,0.8968,1.3785,0.0052,-0.0003,-0.0001,1.0000,0.2314,0.0222,0.0346
21210,Left,2,0.0227,0.1347,-0.5015,0.8543,0.0063,-0.2082,-0.0620,-0.1897,-0.2011,-0.0840,-2.4017,-1.1997,9.3550,0.0001,-0.0026,-0.0008,1.0000,-0.0607,-0.0300,0.2337
21210,Right,2,0.1446,-0.0953,-0.9805,-0.0931,0.0680,0.1151,0.0708,0.0108,0.2228,-0.0740,-2.8979,1.3308,9.2046,0.0009,0.0014,0.0009,1.0000,-0.0721,0.0330,0.2302
21211,Pelvis,2,-0.5782,-0.3049,-0.6996,0.2886,0.3294,0.0242,-0.0527,0.9473,0.1037,0.2383,9.7406,1.5673,2.1438,0.0041,0.0003,-0.0007,1.0000,0.2436,0.0388,0.0537
21211,Left,2,0.0213,0.1332,-0.5025,0.8540,-0.0143,-0.1528,-0.0871,0.0019,-0.2483,-0.0162,-2.2459,-1.0718,9.4784,-0.0002,-0.0019,-0.0011,1.0000,-0.0566,-0.0267,0.2369
21211,Right,2,0.1449,-0.0965,-0.9804,-0.0921,0.0698,0.0450,0.0680,-0.2232,-0.0598,-0.0106,-2.7556,1.6869,9.2571,0.0009,0.0006,0.0008,1.0000,-0.0688,0.0419,0.2315
21212,Pelvis,2,-0.5772,-0.3056,-0.7001,0.2888,0.0643,0.0715,-0.0602,1.5772,-0.3659,1.0152,10.4208,2.4442,2.3018,0.0008,0.0009,-0.0008,1.0000,0.2606,0.0609,0.0574
21212,Left,2,0.0202,0.1325,-0.5034,0.8536,-0.0302,-0.0966,-0.0832,-0.2092,-0.2284,0.0153,-2.3356,-1.2597,9.4680,-0.0004,-0.0012,-0.0010,1.0000,-0.0587,-0.0313,0.2366
21212,Right,2,0.1447,-0.0965,-0.9805,-0.0920,-0.0149,-0.0127,0.0033,-0.2928,-0.2022,0.0558,-2.7318,1.8616,9.3051,-0.0002,-0.0002,0.0000,1.0000,-0.0683,0.0466,0.2326
21213,Pelvis,2,-0.5771,-0.3049,-0.7009,0.2876,-0.1156,0.0310,-0.0605,0.9765,-0.6316,0.9748,10.4889,2.1723,1.7285,-0.0014,0.0004,-0.0008,1.0000,0.2623,0.0542,0.0430
21213,Left,2,0.0194,0.1323,-0.5040,0.8533,-0.0274,-0.0403,-0.0607,-0.2569,-0.3309,-0.0760,-2.2288,-1.3554,9.3900,-0.0003,-0.0005,-0.0008,1.0000,-0.0559,-0.0338,0.2347
21213,Right,2,0.1444,-0.0959,-0.9805,-0.0921,-0.0497,-0.0053,-0.0272,-0.2244,0.0230,0.0380,-2.7495,1.6224,9.3217,-0.0006,-0.0001,-0.0003,1.0000,-0.0687,0.0407,0.2330
21214,Pelvis,2,-0.5776,-0.3044,-0.7014,0.2860,-0.1268,-0.0323,-0.0629,-0.4019,-0.0592,0.3036,10.0288,0.7076,1.1945,-0.0016,-0.0004,-0.0008,1.0000,0.2507,0.0175,0.0299
21214,Left,2,0.0190,0.1327,-0.5042,0.8531,-0.0332,0.0148,-0.0295,-0.2156,-0.2506,-0.0962,-2.2689,-1.2902,9.3652,-0.0004,0.0002,-0.0004,1.0000,-0.0567,-0.0321,0.2342
21214,Right,2,0.1445,-0.0954,-0.9806,-0.0924,-0.0357,0.0143,-0.0258,-0.1613,0.0063,0.0467,-2.8131,1.6138,9.3122,-0.0004,0.0002,-0.0003,1.0000,-0.0703,0.0405,0.2328
21215,Pelvis,2,-0.5777,-0.3049,-0.7014,0.2854,-0.0036,-0.0308,-0.0530,-1.0517,0.3605,-0.2863,9.5377,-0.0994,1.0051,-0.0000,-0.0004,-0.0007,1.0000,0.2384,-0.0026,0.0252
21215,Left,2,0.0186,0.1334,-0.5044,0.8529,-0.0418,0.0347,-0.0182,-0.2374,-0.1413,-0.0879,-2.3792,-1.2687,9.3477,-0.0005,0.0004,-0.0002,1.0000,-0.0594,-0.0316,0.2337
21215,Right,2,0.1445,-0.0949,-0.9806,-0.0926,-0.0305,0.0118,-0.0202,-0.1140,0.0006,0.0411,-2.8576,1.5984,9.2946,-0.0004,0.0001,-0.0003,1.0000,-0.0714,0.0401,0.2324
21216,Pelvis,2,-0.5775,-0.3063,-0.7007,0.2860,0.1253,-0.0348,-0.0196,-1.0596,0.3925,-0.5971,9.2325,-0.1469,0.9709,0.0016,-0.0004,-0.0002,1.0000,0.2308,-0.0038,0.0244
21216,Left,2,0.0181,0.1338,-0.5046,0.8527,-0.0435,0.0102,-0.0272,-0.2475,-0.0130,-0.0396,-2.5097,-1.2331,9.3678,-0.0005,0.0001,-0.0003,1.0000,-0.0627,-0.0307,0.2342
21216,Right,2,0.1446,-0.0947,-0.9806,-0.0925,-0.0273,-0.0143,-0.0080,-0.0897,0.0131,0.0304,-2.8792,1.5746,9.2804,-0.0003,-0.0002,-0.0001,1.0000,-0.0720,0.0395,0.2320
21217,Pelvis,2,-0.5773,-0.3079,-0.6995,0.2873,0.1799,-0.0493,0.0184,-0.7710,0.2147,-0.6491,9.1420,0.1845,1.0011,0.0022,-0.0006,0.0002,1.0000,0.2285,0.0046,0.0252
21217,Left,2,0.0171,0.1337,-0.5050,0.8525,-0.0504,-0.0496,-0.0422,-0.2381,0.0204,-0.0926,-2.5151,-1.2185,9.3127,-0.0006,-0.0006,-0.0005,1.0000,-0.0630,-0.0303,0.2328
21217,Right,2,0.1439,-0.0943,-0.9807,-0.0924,-0.0317,-0.0451,-0.0008,-0.1281,-0.0168,-0.0049,-2.8270,1.5996,9.2552,-0.0004,-0.0006,-0.0000,1.0000,-0.0708,0.0401,0.2313
21218,Pelvis,2,-0.5777,-0.3094,-0.6980,0.2888,0.1809,-0.0905,0.0505,-0.4659,0.0963,-0.4255,9.3186,0.5102,1.1171,0.0023,-0.0011,0.0006,1.0000,0.2329,0.0128,0.0282
21218,Left,2,0.0158,0.1330,-0.5056,0.8523,-0.0432,-0.0996,-0.0579,-0.2019,-0.0973,-0.1130,-2.3737,-1.2587,9.3228,-0.0005,-0.0012,-0.0007,1.0000,-0.0597,-0.0313,0.2330
21218,Right,2,0.1432,-0.0939,-0.9809,-0.0924,-0.0296,-0.0489,-0.0004,-0.1847,0.0381,-0.0655,-2.7343,1.5423,9.2298,-0.0004,-0.0006,-0.0000,1.0000,-0.0685,0.0386,0.2307
21219,Pelvis,2,-0.5786,-0.3106,-0.6963,0.2897,0.1309,-0.1297,0.0558,-0.2152,0.0894,-0.1017,9.6007,0.7285,1.2858,0.0016,-0.0016,0.0007,1.0000,0.2400,0.0183,0.0326
21219,Left,2,0.0146,0.1323,-0.5061,0.8521,-0.0349,-0.0875,-0.0551,-0.3334,-0.3394,-0.1065,-2.2033,-1.5061,9.3441,-0.0004,-0.0011,-0.0007,1.0000,-0.0554,-0.0375,0.2336
21219,Right,2,0.1424,-0.0937,-0.9810,-0.0924,-0.0190,-0.0410,0.0045,-0.1714,0.0476,-0.0471,-2.7350,1.5293,9.2510,-0.0002,-0.0005,0.0001,1.0000,-0.0685,0.0383,0.2312
21220,Pelvis,2,-0.5796,-0.3116,-0.6949,0.2899,0.0706,-0.1346,0.0179,-0.0387,0.0952,0.0736,9.7499,0.8701,1.3901,0.0009,-0.0017,0.0002,1.0000,0.2437,0.0218,0.0352
21220,Left,2,0.0139,0.1318,-0.5065,0.8520,-0.0136,-0.0625,-0.0375,-0.2695,-0.2115,-0.0248,-2.2842,-1.4080,9.4191,-0.0002,-0.0008,-0.0005,1.0000,-0.0573,-0.0351,0.2354
21220,Right,2,0.1417,-0.0935,-0.9812,-0.0923,-0.0105,-0.0374,0.0075,-0.1508,-0.0087,-0.0302,-2.7525,1.5793,9.2547,-0.0001,-0.0005,0.0001,1.0000,-0.0689,0.0395,0.2313
21221,Pelvis,2,-0.5806,-0.3126,-0.6939,0.2893,0.0256,-0.1409,-0.0349,-0.0730,0.1540,0.1772,9.8599,0.8194,1.3924,0.0003,-0.0018,-0.0004,1.0000,0.2464,0.0204,0.0352
21221,Left,2,0.0134,0.1316,-0.5069,0.8518,-0.0153,-0.0333,-0.0327,-0.2293,-0.2448,-0.0385,-2.2213,-1.3955,9.4215,-0.0002,-0.0004,-0.0004,1.0000,-0.0556,-0.0348,0.2355
21221,Right,2,0.1411,-0.0935,-0.9813,-0.0921,-0.0120,-0.0351,0.0062,-0.1863,0.0080,-0.0369,-2.7035,1.5705,9.2642,-0.0001,-0.0004,0.0001,1.0000,-0.0677,0.0393,0.2316
21222,Pelvis,2,-0.5818,-0.3134,-0.6930,0.2882,-0.0169,-0.1487,-0.0517,-0.0080,0.1899,0.3249,9.9983,0.8706,1.4432,-0.0002,-0.0019,-0.0006,1.0000,0.2499,0.0216,0.0365
21222,Left,2,0.0131,0.1316,-0.5072,0.8516,-0.0118,-0.0097,-0.0276,-0.2533,-0.2389,-0.0806,-2.2208,-1.4161,9.3753,-0.0001,-0.0001,-0.0003,1.0000,-0.0556,-0.0353,0.2344
21222,Right,2,0.1403,-0.0937,-0.9814,-0.0919,-0.0060,-0.0198,0.0019,-0.2148,-0.0060,-0.1461,-2.6302,1.5783,9.1696,-0.0001,-0.0002,0.0000,1.0000,-0.0658,0.0395,0.2292
21223,Pelvis,2,-0.5831,-0.3138,-0.6923,0.2870,-0.0475,-0.1419,-0.0401,-0.0093,0.2269,0.2367,9.9146,0.8467,1.4237,-0.0006,-0.0018,-0.0005,1.0000,0.2478,0.0211,0.0360
21223,Left,2,0.0130,0.1316,-0.5074,0.8515,0.0102,-0.0013,-0.0165,-0.2833,-0.2578,-0.0901,-2.2133,-1.4540,9.3628,0.0001,-0.0000,-0.0002,1.0000,-0.0553,-0.0364,0.2341
21223,Right,2,0.1403,-0.0936,-0.9814,-0.0919,-0.0111,0.0006,-0.0048,-0.2083,0.0416,-0.0774,-2.6455,1.5414,9.2437,-0.0001,0.0000,-0.0001,1.0000,-0.0661,0.0386,0.2311
21224,Pelvis,2,-0.5842,-0.3139,-0.6917,0.2859,-0.0492,-0.1147,-0.0291,-0.1639,0.3169,0.1491,9.8532,0.6685,1.3538,-0.0006,-0.0014,-0.0004,1.0000,0.2463,0.0166,0.0342
21224,Left,2,0.0133,0.1314,-0.5075,0.8515,0.0361,0.0021,0.0010,-0.2842,-0.2269,-0.1032,-2.2367,-1.4358,9.3457,0.0005,0.0000,0.0000,1.0000,-0.0559,-0.0360,0.2336
21224,Right,2,0.1400,-0.0934,-0.9814,-0.0919,-0.0255,-0.0017,-0.0128,-0.1822,-0.0202,-0.0270,-2.6892,1.6025,9.2733,-0.0003,-0.0000,-0.0002,1.0000,-0.0672,0.0401,0.2318
21225,Pelvis,2,-0.5851,-0.3142,-0.6911,0.2853,-0.0235,-0.1026,-0.0159,-0.3743,0.3528,0.1311,9.8700,0.4867,1.2203,-0.0003,-0.0013,-0.0002,1.0000,0.2467,0.0121,0.0308
21225,Left,2,0.0136,0.1312,-0.5075,0.8515,0.0427,0.0018,0.0019,-0.2370,-0.1788,-0.0741,-2.2638,-1.3680,9.3773,0.0005,0.0000,0.0000,1.0000,-0.0566,-0.0343,0.2344
21225,Right,2,0.1396,-0.0927,-0.9815,-0.0921,-0.0443,-0.0059,-0.0205,-0.1522,0.0024,-0.0123,-2.7097,1.5664,9.2884,-0.0006,-0.0001,-0.0003,1.0000,-0.0677,0.0393,0.2322
21226,Pelvis,2,-0.5859,-0.3148,-0.6902,0.2850,0.0194,-0.1059,-0.0078,-0.4214,0.3654,0.0081,9.7584,0.4322,1.1598,0.0002,-0.0013,-0.0001,1.0000,0.2439,0.0108,0.0293
21226,Left,2,0.0140,0.1311,-0.5075,0.8515,0.0427,0.0085,0.0055,-0.2277,-0.1890,-0.0729,-2.2520,-1.3573,9.3828,0.0005,0.0001,0.0001,1.0000,-0.0563,-0.0341,0.2346
21226,Right,2,0.1394,-0.0921,-0.9816,-0.0923,-0.0461,-0.0092,-0.0195,-0.1231,0.0321,-0.0598,-2.7155,1.5121,9.2452,-0.0006,-0.0001,-0.0002,1.0000,-0.0679,0.0380,0.2311
21227,Pelvis,2,-0.5868,-0.3159,-0.6891,0.2848,0.0602,-0.1260,-0.0170,-0.3698,0.3382,-0.0175,9.7293,0.4893,1.1393,0.0008,-0.0016,-0.0002,1.0000,0.2432,0.0122,0.0289
21227,Left,2,0.0145,0.1308,-0.5076,0.8515,0.0532,-0.0038,0.0077,-0.2823,-0.1604,-0.0213,-2.3138,-1.3873,9.4180,0.0007,-0.0000,0.0001,1.0000,-0.0579,-0.0348,0.2354
21227,Right,2,0.1395,-0.0915,-0.9816,-0.0924,-0.0390,-0.0080,-0.0121,-0.1371,0.0380,-0.0219,-2.7132,1.5029,9.2876,-0.0005,-0.0001,-0.0002,1.0000,-0.0678,0.0377,0.2322
21228,Pelvis,2,-0.5876,-0.3171,-0.6878,0.2848,0.0865,-0.1334,-0.0113,-0.2492,0.3464,0.1258,9.8566,0.5948,1.2042,0.0011,-0.0017,-0.0001,1.0000,0.2464,0.0148,0.0305
21228,Left,2,0.0149,0.1300,-0.5077,0.8515,0.0697,-0.0328,0.0026,-0.2759,-0.1146,-0.0101,-2.3484,-1.3486,9.4258,0.0009,-0.0004,0.0000,1.0000,-0.0588,-0.0339,0.2356
21228,Right,2,0.1391,-0.0911,-0.9817,-0.0924,-0.0402,-0.0074,-0.0114,-0.1629,0.0167,-0.0479,-2.6760,1.5186,9.2688,-0.0005,-0.0001,-0.0001,1.0000,-0.0669,0.0381,0.2317
21229,Pelvis,2,-0.5882,-0.3181,-0.6866,0.2852,0.0876,-0.0963,0.0090,-0.0485,0.3003,0.0925,9.7987,0.7758,1.2608,0.0011,-0.0012,0.0001,1.0000,0.2449,0.0194,0.0318
21229,Left,2,0.0153,0.1288,-0.5079,0.8516,0.0903,-0.0627,-0.0021,-0.2679,-0.2076,-0.1075,-2.2300,-1.3601,9.3532,0.0011,-0.0008,-0.0000,1.0000,-0.0559,-0.0343,0.2337
21229,Right,2,0.1391,-0.0907,-0.9818,-0.0923,-0.0393,-0.0050,-0.0063,-0.1189,0.0211,0.0051,-2.7314,1.5047,9.3101,-0.0005,-0.0001,-0.0001,1.0000,-0.0683,0.0377,0.2327
21230,Pelvis,2,-0.5887,-0.3191,-0.6855,0.2858,0.0992,-0.0860,0.0173,-0.0479,0.2464,-0.1507,9.5622,0.7841,1.1696,0.0012,-0.0011,0.0002,1.0000,0.2390,0.0196,0.0295
21230,Left,2,0.0159,0.1278,-0.5080,0.8517,0.0931,-0.0429,0.0092,-0.2345,-0.2955,-0.1409,-2.1187,-1.3510,9.3473,0.0012,-0.0005,0.0001,1.0000,-0.0531,-0.0341,0.2336
21230,Right,2,0.1389,-0.0902,-0.9819,-0.0923,-0.0417,-0.0118,-0.0009,-0.1111,0.0108,0.0293,-2.7445,1.5087,9.3310,-0.0005,-0.0001,-0.0000,1.0000,-0.0686,0.0378,0.2332
21231,Pelvis,2,-0.5891,-0.3202,-0.6844,0.2865,0.1136,-0.0840,0.0173,-0.1106,0.1407,-0.2148,9.5122,0.7938,1.0193,0.0014,-0.0010,0.0002,1.0000,0.2378,0.0199,0.0258
21231,Left,2,0.0168,0.1272,-0.5079,0.8518,0.0938,-0.0090,0.0241,-0.1997,-0.2301,-0.1068,-2.1613,-1.2724,9.3812,0.0012,-0.0001,0.0003,1.0000,-0.0540,-0.0321,0.2345
21231,Right,2,0.1386,-0.0898,-0.9820,-0.0922,-0.0503,-0.0169,-0.0033,-0.1226,-0.0016,0.0022,-2.7208,1.5123,9.3090,-0.0006,-0.0002,-0.0000,1.0000,-0.0681,0.0380,0.2327
21232,Pelvis,2,-0.5893,-0.3214,-0.6833,0.2873,0.1265,-0.0687,0.0100,-0.0759,0.0091,-0.1541,9.5716,0.9079,0.9239,0.0016,-0.0009,0.0001,1.0000,0.2393,0.0227,0.0233
21232,Left,2,0.0176,0.1267,-0.5077,0.8520,0.0865,0.0028,0.0274,-0.2232,-0.1578,-0.0517,-2.2466,-1.2435,9.4212,0.0011,0.0000,0.0003,1.0000,-0.0561,-0.0314,0.2355
21232,Right,2,0.1382,-0.0892,-0.9821,-0.0920,-0.0558,-0.0227,-0.0069,-0.1347,0.0322,-0.0180,-2.6916,1.4691,9.3033,-0.0007,-0.0003,-0.0001,1.0000,-0.0674,0.0369,0.2325
21233,Pelvis,2,-0.5891,-0.3225,-0.6825,0.2884,0.1380,-0.0160,0.0157,-0.0310,-0.0945,0.0350,9.7554,1.0251,0.8761,0.0017,-0.0002,0.0002,1.0000,0.2439,0.0256,0.0220
21233,Left,2,0.0183,0.1261,-0.5077,0.8521,0.0792,-0.0118,0.0166,-0.2391,-0.1772,0.0139,-2.2515,-1.2550,9.4872,0.0010,-0.0001,0.0002,1.0000,-0.0563,-0.0316,0.2371
21233,Right,2,0.1376,-0.0885,-0.9822,-0.0919,-0.0607,-0.0243,-0.0073,-0.1112,0.0279,0.0151,-2.7107,1.4620,9.3335,-0.0008,-0.0003,-0.0001,1.0000,-0.0678,0.0367,0.2333
21234,Pelvis,2,-0.5885,-0.3234,-0.6819,0.2899,0.1486,0.0225,0.0378,0.0091,-0.1190,-0.0238,9.6927,1.0608,0.8727,0.0019,0.0003,0.0005,1.0000,0.2423,0.0266,0.0218
21234,Left,2,0.0186,0.1253,-0.5078,0.8521,0.0664,-0.0406,0.0065,-0.1708,-0.0097,-0.1228,-2.3265,-1.0862,9.3451,0.0008,-0.0005,0.0001,1.0000,-0.0583,-0.0274,0.2336
21234,Right,2,0.1370,-0.0878,-0.9824,-0.0918,-0.0576,-0.0298,-0.0015,-0.0883,-0.0051,0.0568,-2.7384,1.4840,9.3656,-0.0007,-0.0004,-0.0000,1.0000,-0.0685,0.0373,0.2341
21235,Pelvis,2,-0.5880,-0.3239,-0.6812,0.2920,0.1622,0.0391,0.0831,-0.0570,-0.1184,-0.1384,9.5896,0.9851,0.8243,0.0020,0.0005,0.0010,1.0000,0.2397,0.0248,0.0205
21235,Left,2,0.0189,0.1246,-0.5077,0.8523,0.0551,-0.0371,0.0175,-0.1556,-0.2247,-0.1832,-2.1112,-1.1591,9.3275,0.0007,-0.0005,0.0002,1.0000,-0.0529,-0.0291,0.2331
21235,Right,2,0.1365,-0.0873,-0.9825,-0.0917,-0.0460,-0.0280,0.0035,-0.0841,0.0597,-0.0225,-2.6985,1.3985,9.3070,-0.0006,-0.0003,0.0000,1.0000,-0.0675,0.0351,0.2326
21236,Pelvis,2,-0.5877,-0.3242,-0.6803,0.2944,0.1593,0.0305,0.1243,-0.1034,-0.1676,-0.0883,9.6484,0.9613,0.7663,0.0020,0.0004,0.0016,1.0000,0.2412,0.0244,0.0191
21236,Left,2,0.0190,0.1245,-0.5076,0.8523,0.0257,0.0000,0.0131,-0.0702,-0.1181,-0.1266,-2.1729,-1.0308,9.3838,0.0003,0.0000,0.0002,1.0000,-0.0543,-0.0259,0.2346
21236,Right,2,0.1360,-0.0870,-0.9826,-0.0915,-0.0207,-0.0276,0.0098,-0.0838,0.0611,-0.0440,-2.6828,1.3855,9.2910,-0.0003,-0.0003,0.0001,1.0000,-0.0672,0.0347,0.2322
21237,Pelvis,2,-0.5874,-0.3247,-0.6793,0.2968,0.1697,0.0169,0.1226,-0.1450,-0.1744,-0.0248,9.7197,0.9109,0.7434,0.0021,0.0002,0.0015,1.0000,0.2430,0.0231,0.0186
21237,Left,2,0.0190,0.1245,-0.5077,0.8523,0.0045,0.0010,-0.0033,-0.1591,-0.0671,-0.0467,-2.2752,-1.0898,9.4361,0.0001,0.0000,-0.0000,1.0000,-0.0569,-0.0273,0.2359
21237,Right,2,0.1352,-0.0870,-0.9828,-0.0912,-0.0028,-0.0235,0.0222,-0.0073,0.0632,0.0106,-2.7538,1.3759,9.3287,-0.0000,-0.0003,0.0003,1.0000,-0.0689,0.0344,0.2332
21238,Pelvis,2,-0.5870,-0.3254,-0.6782,0.2993,0.1906,0.0238,0.1092,-0.0317,-0.1546,0.0844,9.8148,0.9718,0.8387,0.0024,0.0003,0.0014,1.0000,0.2453,0.0246,0.0210
21238,Left,2,0.0185,0.1243,-0.5079,0.8522,-0.0094,-0.0253,-0.0221,-0.1732,-0.0355,-0.0560,-2.3028,-1.0899,9.4198,-0.0001,-0.0003,-0.0003,1.0000,-0.0577,-0.0272,0.2355
21238,Right,2,0.1346,-0.0872,-0.9829,-0.0908,0.0269,-0.0290,0.0433,-0.0364,-0.0748,0.0879,-2.7586,1.5299,9.3850,0.0003,-0.0004,0.0005,1.0000,-0.0691,0.0381,0.2346
21239,Pelvis,2,-0.5863,-0.3261,-0.6773,0.3020,0.2065,0.0503,0.1155,0.0142,-0.0953,0.1430,9.8674,0.9526,0.9229,0.0026,0.0006,0.0014,1.0000,0.2467,0.0241,0.0230
21239,Left,2,0.0178,0.1239,-0.5083,0.8520,-0.0198,-0.0541,-0.0371,-0.1683,-0.0898,-0.0659,-2.2409,-1.1187,9.4214,-0.0002,-0.0007,-0.0005,1.0000,-0.0562,-0.0279,0.2355
21239,Right,2,0.1333,-0.0875,-0.9831,-0.0902,0.0368,-0.0672,0.0725,0.0213,-0.2159,0.3235,-2.8815,1.6977,9.5710,0.0005,-0.0008,0.0009,1.0000,-0.0723,0.0423,0.2392
21240,Pelvis,2,-0.5855,-0.3265,-0.6764,0.3050,0.2090,0.0688,0.1409,0.0399,-0.0889,0.1061,9.8291,0.9380,0.9490,0.0026,0.0009,0.0018,1.0000,0.2457,0.0238,0.0236
21240,Left,2,0.0170,0.1234,-0.5088,0.8519,-0.0182,-0.0672,-0.0421,-0.2857,-0.1780,-0.0734,-2.2002,-1.2720,9.4079,-0.0002,-0.0008,-0.0005,1.0000,-0.0552,-0.0317,0.2352
21240,Right,2,0.1313,-0.0881,-0.9834,-0.0891,0.0396,-0.1243,0.1063,0.0093,-0.1309,0.2674,-2.8081,1.6262,9.5445,0.0005,-0.0016,0.0013,1.0000,-0.0706,0.0404,0.2385
21241,Pelvis,2,-0.5850,-0.3270,-0.6751,0.3082,0.2200,0.0448,0.1611,-0.0545,-0.0530,0.1112,9.8473,0.8086,0.9309,0.0027,0.0006,0.0020,1.0000,0.2462,0.0206,0.0232
21241,Left,2,0.0163,0.1228,-0.5092,0.8517,-0.0101,-0.0627,-0.0363,-0.2737,-0.2706,-0.1052,-2.0905,-1.3111,9.3965,-0.0001,-0.0008,-0.0005,1.0000,-0.0525,-0.0327,0.2349
21241,Right,2,0.1290,-0.0888,-0.9838,-0.0878,0.0629,-0.1715,0.1446,-0.0504,-0.0947,0.1203,-2.6667,1.5986,9.4345,0.0008,-0.0021,0.0018,1.0000,-0.0672,0.0397,0.2358
21242,Pelvis,2,-0.5842,-0.3278,-0.6738,0.3117,0.2570,0.0544,0.1579,-0.2054,0.0241,0.1483,9.9022,0.6100,0.9153,0.0032,0.0007,0.0020,1.0000,0.2475,0.0157,0.0228
21242,Left,2,0.0157,0.1225,-0.5094,0.8516,-0.0115,-0.0432,-0.0221,-0.2449,-0.2429,-0.0895,-2.0909,-1.2810,9.4152,-0.0001,-0.0005,-0.0003,1.0000,-0.0524,-0.0320,0.2354
21242,Right,2,0.1260,-0.0894,-0.9842,-0.0861,0.0396,-0.1997,0.1541,-0.0797,-0.0333,0.1115,-2.5709,1.5695,9.4565,0.0005,-0.0025,0.0019,1.0000,-0.0649,0.0390,0.2363
21243,Pelvis,2,-0.5830,-0.3290,-0.6724,0.3157,0.3159,0.0755,0.1554,-0.3894,0.0770,0.2238,9.9985,0.4031,0.8705,0.0039,0.0009,0.0019,1.0000,0.2500,0.0105,0.0216
21243,Left,2,0.0151,0.1223,-0.5097,0.8515,-0.0250,-0.0367,-0.0245,-0.1995,-0.2147,-0.0911,-2.0837,-1.2359,9.4195,-0.0003,-0.0005,-0.0003,1.0000,-0.0522,-0.0308,0.2355
21243,Right,2,0.1228,-0.0897,-0.9848,-0.0844,0.0081,-0.2264,0.1491,-0.1292,-0.1433,0.0081,-2.4529,1.6880,9.3605,0.0001,-0.0028,0.0019,1.0000,-0.0621,0.0421,0.2338
21244,Pelvis,2,-0.5821,-0.3306,-0.6704,0.3199,0.3607,0.0283,0.1767,-0.3622,0.0648,0.2311,10.0035,0.3974,0.8860,0.0045,0.0004,0.0022,1.0000,0.2501,0.0104,0.0221
21244,Left,2,0.0144,0.1223,-0.5099,0.8514,-0.0260,-0.0272,-0.0282,-0.2150,-0.2567,-0.0982,-2.0437,-1.2790,9.4165,-0.0003,-0.0003,-0.0004,1.0000,-0.0512,-0.0319,0.2354
21244,Right,2,0.1198,-0.0894,-0.9853,-0.0823,-0.0394,-0.2168,0.1765,-0.0021,-0.1579,0.1326,-2.5448,1.7075,9.4627,-0.0005,-0.0027,0.0022,1.0000,-0.0644,0.0427,0.2364
21245,Pelvis,2,-0.5818,-0.3324,-0.6677,0.3244,0.3810,-0.0361,0.2096,-0.3420,0.0905,0.0077,9.7804,0.3424,0.8904,0.0048,-0.0005,0.0026,1.0000,0.2445,0.0091,0.0224
21245,Left,2,0.0137,0.1223,-0.5102,0.8512,-0.0369,-0.0248,-0.0254,-0.2503,-0.0664,-0.0959,-2.2170,-1.2303,9.3837,-0.0005,-0.0003,-0.0003,1.0000,-0.0555,-0.0306,0.2346
21245,Right,2,0.1159,-0.0888,-0.9860,-0.0801,-0.0535,-0.2753,0.1946,0.1753,-0.0814,0.4779,-2.7172,1.6590,9.7876,-0.0007,-0.0034,0.0024,1.0000,-0.0689,0.0415,0.2444
21246,Pelvis,2,-0.5821,-0.3343,-0.6644,0.3288,0.3854,-0.0965,0.2390,-0.3018,0.0234,-0.0433,9.7319,0.3625,0.8325,0.0048,-0.0012,0.0030,1.0000,0.2432,0.0097,0.0212
21246,Left,2,0.0129,0.1222,-0.5105,0.8510,-0.0351,-0.0336,-0.0349,-0.2591,-0.2206,-0.0440,-2.0905,-1.3300,9.4553,-0.0004,-0.0004,-0.0004,1.0000,-0.0524,-0.0331,0.2364
21246,Right,2,0.1110,-0.0871,-0.9870,-0.0773,-0.1462,-0.3717,0.2385,0.1000,-0.4552,0.4991,-2.6075,2.0318,9.7788,-0.0018,-0.0046,0.0030,1.0000,-0.0665,0.0510,0.2441
21247,Pelvis,2,-0.5822,-0.3357,-0.6613,0.3333,0.3664,-0.0632,0.2501,-0.4411,-0.0387,-0.0392,9.7571,0.2287,0.6816,0.0046,-0.0008,0.0031,1.0000,0.2439,0.0064,0.0173
21247,Left,2,0.0120,0.1220,-0.5111,0.8508,-0.0367,-0.0446,-0.0536,-0.2771,-0.0832,-0.0264,-2.2100,-1.2954,9.4495,-0.0005,-0.0006,-0.0007,1.0000,-0.0554,-0.0322,0.2362
21247,Right,2,0.1051,-0.0848,-0.9882,-0.0727,-0.2058,-0.4090,0.3901,-0.2886,-1.1485,0.1856,-2.1277,2.7033,9.4622,-0.0026,-0.0051,0.0049,1.0000,-0.0547,0.0679,0.2361
21248,Pelvis,2,-0.5824,-0.3376,-0.6578,0.3379,0.3947,-0.0972,0.2460,-0.5999,-0.0818,-0.0524,9.7642,0.0634,0.5361,0.0049,-0.0012,0.0031,1.0000,0.2441,0.0023,0.0137
21248,Left,2,0.0110,0.1217,-0.5116,0.8505,-0.0412,-0.0602,-0.0586,-0.4005,-0.1390,-0.0830,-2.1895,-1.4388,9.3799,-0.0005,-0.0008,-0.0007,1.0000,-0.0549,-0.0358,0.2345
21248,Right,2,0.0996,-0.0819,-0.9896,-0.0643,-0.2946,-0.3851,0.6716,-0.6439,-2.3454,0.0512,-1.7606,3.8785,9.2234,-0.0037,-0.0048,0.0084,0.9999,-0.0459,0.0974,0.2300
21249,Pelvis,2,-0.5826,-0.3398,-0.6542,0.3423,0.4138,-0.1133,0.2291,-0.6891,-0.0417,-0.0974,9.7270,-0.0896,0.4913,0.0052,-0.0014,0.0029,1.0000,0.2432,-0.0016,0.0126
21249,Left,2,0.0100,0.1214,-0.5122,0.8502,-0.0362,-0.0532,-0.0537,-0.0988,-0.2173,-0.0336,-1.9816,-1.2330,9.4995,-0.0005,-0.0007,-0.0007,1.0000,-0.0497,-0.0307,0.2375
21249,Right,2,0.0944,-0.0789,-0.9912,-0.0495,-0.3553,-0.3198,1.2069,-0.9231,-3.9446,0.0883,-1.4758,5.4550,9.0836,-0.0044,-0.0040,0.0151,0.9999,-0.0399,0.1368,0.2263
21250,Pelvis,2,-0.5825,-0.3424,-0.6505,0.3468,0.4485,-0.1135,0.2028,-0.7083,0.0292,-0.0233,9.7994,-0.1891,0.5206,0.0056,-0.0014,0.0025,1.0000,0.2450,-0.0042,0.0133
21250,Left,2,0.0092,0.1210,-0.5127,0.8499,-0.0262,-0.0553,-0.0505,-0.2847,-0.2136,-0.0880,-2.0406,-1.4006,9.4112,-0.0003,-0.0007,-0.0006,1.0000,-0.0512,-0.0349,0.2353
21250,Right,2,0.0898,-0.0758,-0.9927,-0.0257,-0.4516,-0.2182,1.8790,-0.7186,-4.6874,-0.2399,-1.3811,6.0885,8.6694,-0.0056,-0.0027,0.0235,0.9997,-0.0387,0.1526,0.2158
21251,Pelvis,2,-0.5820,-0.3453,-0.6469,0.3515,0.4802,-0.0976,0.1917,-0.5934,0.0185,0.1118,9.9258,-0.1243,0.5580,0.0060,-0.0012,0.0024,1.0000,0.2481,-0.0026,0.0142
21251,Left,2,0.0084,0.1206,-0.5131,0.8498,-0.0190,-0.0516,-0.0363,-0.1672,-0.2761,-0.0556,-1.9260,-1.3414,9.4761,-0.0002,-0.0006,-0.0005,1.0000,-0.0483,-0.0335,0.2369
21251,Right,2,0.0871,-0.0721,-0.9936,0.0074,-0.5769,-0.0545,2.5502,-0.1680,-4.6346,-0.4061,-1.5235,5.9619,8.4935,-0.0072,-0.0007,0.0319,0.9995,-0.0430,0.1493,0.2112
21252,Pelvis,2,-0.5814,-0.3485,-0.6430,0.3565,0.5168,-0.0959,0.1906,-0.6280,-0.0192,0.1015,9.9207,-0.1777,0.4842,0.0065,-0.0012,0.0024,1.0000,0.2480,-0.0039,0.0124
21252,Left,2,0.0079,0.1200,-0.5133,0.8498,0.0018,-0.0638,-0.0166,-0.2433,-0.2914,-0.0763,-1.9267,-1.4191,9.4454,0.0000,-0.0008,-0.0002,1.0000,-0.0484,-0.0355,0.2361
21252,Right,2,0.0846,-0.0670,-0.9930,0.0485,-0.7162,0.0599,3.2632,0.9156,-5.2320,0.2212,-2.2229,6.6515,8.9293,-0.0090,0.0007,0.0408,0.9991,-0.0622,0.1658,0.2218
21253,Pelvis,2,-0.5804,-0.3521,-0.6390,0.3618,0.5732,-0.0848,0.1861,-0.6176,0.0626,0.0884,9.9027,-0.2519,0.5385,0.0072,-0.0011,0.0023,1.0000,0.2476,-0.0058,0.0137
21253,Left,2,0.0075,0.1189,-0.5133,0.8499,0.0346,-0.0846,0.0054,-0.2359,-0.2282,-0.0640,-1.9625,-1.3829,9.4541,0.0004,-0.0011,0.0001,1.0000,-0.0493,-0.0347,0.2363
21253,Right,2,0.0812,-0.0596,-0.9900,0.0989,-0.9493,0.0624,4.0205,2.6649,-4.6953,0.1905,-3.4177,6.3511,8.7881,-0.0119,0.0008,0.0502,0.9987,-0.0932,0.1568,0.2179
21254,Pelvis,2,-0.5788,-0.3558,-0.6350,0.3678,0.6212,-0.0394,0.1929,-0.5032,0.1258,0.1896,9.9926,-0.2205,0.6441,0.0078,-0.0005,0.0024,1.0000,0.2498,-0.0050,0.0162
21254,Left,2,0.0072,0.1176,-0.5134,0.8501,0.0439,-0.1028,0.0039,-0.2418,-0.1646,-0.0480,-2.0010,-1.3532,9.4657,0.0005,-0.0013,0.0000,1.0000,-0.0503,-0.0340,0.2366
21254,Right,2,0.0779,-0.0487,-0.9837,0.1546,-1.2581,0.1523,4.4345,2.9155,-2.3221,-1.1861,-3.4220,4.0381,7.7661,-0.0157,0.0019,0.0554,0.9983,-0.0907,0.0991,0.1928
21255,Pelvis,2,-0.5769,-0.3595,-0.6309,0.3742,0.6503,-0.0108,0.2184,-0.2497,0.2311,0.2999,10.0814,-0.0868,0.8600,0.0081,-0.0001,0.0027,1.0000,0.2520,-0.0017,0.0215
21255,Left,2,0.0068,0.1161,-0.5134,0.8502,0.0444,-0.1141,0.0009,-0.2416,-0.1828,-0.0782,-1.9524,-1.3508,9.4454,0.0006,-0.0014,0.0000,1.0000,-0.0491,-0.0339,0.2360
21255,Right,2,0.0773,-0.0359,-0.9734,0.2127,-1.3665,0.4240,4.6631,3.1689,-0.8930,-1.3835,-3.7419,2.8885,7.7171,-0.0171,0.0053,0.0583,0.9981,-0.0966,0.0699,0.1922
21256,Pelvis,2,-0.5752,-0.3630,-0.6265,0.3807,0.6532,-0.0342,0.2375,-0.1914,0.2208,0.1207,9.9002,-0.0793,0.8588,0.0082,-0.0004,0.0030,1.0000,0.2475,-0.0014,0.0216
21256,Left,2,0.0064,0.1147,-0.5135,0.8504,0.0446,-0.1118,0.0007,-0.1713,-0.2154,-0.1130,-1.8580,-1.2934,9.4358,0.0006,-0.0014,0.0000,1.0000,-0.0468,-0.0325,0.2358
21256,Right,2,0.0785,-0.0216,-0.9590,0.2713,-1.4439,0.6135,4.7584,3.4995,0.3739,-0.8993,-4.4444,2.1255,8.2200,-0.0180,0.0077,0.0594,0.9980,-0.1126,0.0502,0.2054
21257,Pelvis,2,-0.5736,-0.3665,-0.6220,0.3870,0.6370,-0.0415,0.2377,-0.5038,0.2063,-0.0483,9.7469,-0.4031,0.6880,0.0080,-0.0005,0.0030,1.0000,0.2437,-0.0095,0.0173
21257,Left,2,0.0061,0.1136,-0.5136,0.8504,0.0421,-0.0856,-0.0009,-0.1828,-0.1996,-0.1370,-1.8480,-1.2861,9.4140,0.0005,-0.0011,-0.0000,1.0000,-0.0465,-0.0323,0.2353
21257,Right,2,0.0809,-0.0050,-0.9412,0.3279,-1.5817,0.7681,4.6658,3.1522,0.6842,-0.6324,-4.2564,1.9000,8.5415,-0.0198,0.0096,0.0583,0.9981,-0.1071,0.0455,0.2137
21258,Pelvis,2,-0.5713,-0.3699,-0.6180,0.3936,0.6638,0.0170,0.2173,-0.8862,0.3138,-0.0811,9.7206,-0.8418,0.6243,0.0083,0.0002,0.0027,1.0000,0.2431,-0.0205,0.0154
21258,Left,2,0.0059,0.1125,-0.5138,0.8505,0.0414,-0.0783,-0.0054,-0.1928,-0.1535,-0.1088,-1.8779,-1.2694,9.4386,0.0005,-0.0010,-0.0001,1.0000,-0.0472,-0.0319,0.2359
21258,Right,2,0.0840,0.0166,-0.9202,0.3820,-1.9141,0.9818,4.5206,3.7100,0.6133,-0.5694,-4.5878,2.4406,8.5191,-0.0239,0.0123,0.0565,0.9980,-0.1155,0.0596,0.2130
21259,Pelvis,2,-0.5682,-0.3735,-0.6141,0.4006,0.7040,0.0719,0.2019,-0.9435,0.3151,-0.0219,9.7762,-0.9368,0.6313,0.0088,0.0009,0.0025,1.0000,0.2445,-0.0229,0.0154
21259,Left,2,0.0058,0.1114,-0.5140,0.8505,0.0535,-0.0799,-0.0136,-0.1651,-0.1759,-0.0183,-1.8438,-1.2575,9.5398,0.0007,-0.0010,-0.0002,1.0000,-0.0463,-0.0316,0.2384
21259,Right,2,0.0873,0.0427,-0.8959,0.4334,-2.2338,1.1496,4.3926,3.9136,0.8940,-0.0587,-4.9678,2.4820,8.9675,-0.0279,0.0144,0.0549,0.9980,-0.1244,0.0615,0.2243
21260,Pelvis,2,-0.5649,-0.3773,-0.6102,0.4076,0.7226,0.0749,0.1881,-0.8028,-0.0953,0.0386,9.8545,-0.6853,0.3485,0.0090,0.0009,0.0024,1.0000,0.2464,-0.0166,0.0083
21260,Left,2,0.0058,0.1103,-0.5142,0.8505,0.0601,-0.0688,-0.0130,-0.0852,-0.1928,-0.1211,-1.7543,-1.1749,9.4611,0.0008,-0.0009,-0.0002,1.0000,-0.0441,-0.0295,0.2365
21260,Right,2,0.0974,0.0537,-0.8737,0.4735,-0.8193,1.1355,3.6314,-2.9333,1.3897,0.2711,-1.5154,-3.2084,9.9829,-0.0102,0.0142,0.0454,0.9988,-0.0307,-0.0791,0.2509
21261,Pelvis,2,-0.5611,-0.3815,-0.6061,0.4151,0.7823,0.0986,0.1830,-0.8132,-0.5191,0.2240,10.0663,-0.5785,0.0009,0.0098,0.0012,0.0023,0.9999,0.2517,-0.0139,-0.0004
21261,Left,2,0.0060,0.1096,-0.5144,0.8505,0.0530,-0.0372,-0.0055,-0.1611,-0.2480,-0.1368,-1.7232,-1.2557,9.4427,0.0007,-0.0005,-0.0001,1.0000,-0.0432,-0.0315,0.2360
21261,Right,2,0.1153,0.0540,-0.8579,0.4977,0.3730,1.3002,2.3940,-1.5982,-2.8483,0.1163,0.8235,0.2279,10.4178,0.0047,0.0162,0.0299,0.9994,0.0247,0.0052,0.2601
21262,Pelvis,2,-0.5564,-0.3858,-0.6018,0.4235,0.8716,0.1504,0.2036,-1.0230,-0.5512,0.5427,10.3884,-0.8162,-0.0346,0.0109,0.0019,0.0025,0.9999,0.2598,-0.0197,-0.0016
21262,Left,2,0.0061,0.1093,-0.5144,0.8506,0.0328,-0.0096,0.0103,-0.1401,-0.2249,-0.1237,-1.7301,-1.2206,9.4586,0.0004,-0.0001,0.0001,1.0000,-0.0433,-0.0306,0.2364
21262,Right,2,0.1326,0.0543,-0.8477,0.5107,0.4702,1.2547,1.4000,-2.5682,-4.8221,-0.6108,2.8195,0.4019,10.3161,0.0059,0.0157,0.0175,0.9997,0.0743,0.0098,0.2568
21263,Pelvis,2,-0.5510,-0.3905,-0.5970,0.4329,0.9741,0.1822,0.2268,-0.8524,-0.3907,0.5662,10.3901,-0.7678,0.2363,0.0122,0.0023,0.0028,0.9999,0.2598,-0.0185,0.0051
21263,Left,2,0.0062,0.1093,-0.5142,0.8506,0.0179,0.0046,0.0166,-0.1694,-0.1862,-0.1365,-1.7733,-1.2232,9.4367,0.0002,0.0001,0.0002,1.0000,-0.0443,-0.0306,0.2359
21263,Right,2,0.1451,0.0532,-0.8417,0.5174,0.4561,0.8644,0.7944,-1.3010,-5.9635,0.7663,2.5888,2.1811,11.7352,0.0057,0.0108,0.0099,0.9999,0.0674,0.0535,0.2930
21264,Pelvis,2,-0.5451,-0.3959,-0.5917,0.4427,1.0535,0.1697,0.2185,-0.4746,-0.3887,0.0518,9.8660,-0.4567,0.3725,0.0132,0.0021,0.0027,0.9999,0.2467,-0.0109,0.0086
21264,Left,2,0.0062,0.1095,-0.5140,0.8507,0.0007,0.0205,0.0220,-0.1188,-0.1932,-0.1178,-1.7507,-1.1841,9.4645,0.0000,0.0003,0.0003,1.0000,-0.0437,-0.0296,0.2366
21264,Right,2,0.1492,0.0479,-0.8375,0.5234,0.4046,0.1125,0.6998,0.1828,-5.8504,2.0683,1.3897,3.6292,12.6617,0.0051,0.0014,0.0087,0.9999,0.0344,0.0894,0.3169
21265,Pelvis,2,-0.5392,-0.4018,-0.5860,0.4522,1.0727,0.1351,0.1886,-0.1391,-0.5387,-0.3221,9.5000,-0.1295,0.3376,0.0134,0.0017,0.0024,0.9999,0.2375,-0.0028,0.0080
21265,Left,2,0.0061,0.1100,-0.5138,0.8508,-0.0147,0.0292,0.0185,-0.1928,-0.1844,-0.1576,-1.7892,-1.2444,9.4096,-0.0002,0.0004,0.0002,1.0000,-0.0446,-0.0311,0.2353
21265,Right,2,0.1457,0.0372,-0.8332,0.5321,0.4124,-0.6301,0.9200,1.4242,-4.9426,1.3827,0.4670,4.3953,11.5007,0.0052,-0.0079,0.0115,0.9999,0.0082,0.1085,0.2882
21266,Pelvis,2,-0.5332,-0.4078,-0.5803,0.4611,1.0600,0.1077,0.1582,-0.1025,-0.6426,-0.5795,9.2521,-0.0978,0.2534,0.0132,0.0013,0.0020,0.9999,0.2313,-0.0021,0.0060
21266,Left,2,0.0059,0.1106,-0.5136,0.8509,-0.0265,0.0389,0.0209,-0.2201,-0.2186,-0.1812,-1.7746,-1.2890,9.3835,-0.0003,0.0005,0.0003,1.0000,-0.0442,-0.0322,0.2346
21266,Right,2,0.1405,0.0241,-0.8270,0.5438,0.4612,-0.8337,1.2277,1.8695,-3.5464,-0.0275,-0.2209,4.1854,9.7090,0.0058,-0.0104,0.0153,0.9998,-0.0096,0.1031,0.2432
21267,Pelvis,2,-0.5271,-0.4138,-0.5749,0.4695,1.0354,0.1102,0.1248,-0.4435,-0.8257,-0.6013,9.2496,-0.4158,0.0223,0.0129,0.0014,0.0016,0.9999,0.2313,-0.0100,0.0001
21267,Left,2,0.0057,0.1113,-0.5132,0.8510,-0.0393,0.0433,0.0276,-0.2477,-0.2197,-0.1103,-1.8092,-1.3308,9.4446,-0.0005,0.0005,0.0003,1.0000,-0.0451,-0.0332,0.2362
21267,Right,2,0.1384,0.0109,-0.8168,0.5600,0.5387,-0.5829,1.7143,2.4129,-2.3694,-0.9304,-0.9179,4.2402,8.4569,0.0067,-0.0073,0.0214,0.9997,-0.0267,0.1040,0.2119
21268,Pelvis,2,-0.5208,-0.4203,-0.5692,0.4777,1.0655,0.0816,0.0950,-0.5748,-1.0168,-0.4304,9.4385,-0.5361,-0.1409,0.0133,0.0010,0.0012,0.9999,0.2360,-0.0131,-0.0039
21268,Left,2,0.0055,0.1121,-0.5128,0.8511,-0.0326,0.0478,0.0361,-0.2305,-0.2507,-0.1298,-1.7814,-1.3385,9.4292,-0.0004,0.0006,0.0005,1.0000,-0.0444,-0.0334,0.2358
21268,Right,2,0.1417,0.0014,-0.7998,0.5833,0.4627,0.0018,2.4380,2.7959,-0.4470,0.0539,-2.7496,4.2285,8.9408,0.0058,0.0000,0.0305,0.9995,-0.0719,0.1023,0.2241
21269,Pelvis,2,-0.5144,-0.4274,-0.5629,0.4856,1.1002,0.0349,0.0763,-0.6865,-1.2004,-0.1963,9.6895,-0.6447,-0.2889,0.0138,0.0004,0.0010,0.9999,0.2423,-0.0158,-0.0075
21269,Left,2,0.0055,0.1130,-0.5123,0.8513,-0.0364,0.0649,0.0464,-0.1940,-0.2740,-0.1084,-1.7624,-1.3293,9.4559,-0.0005,0.0008,0.0006,1.0000,-0.0438,-0.0332,0.2364
21269,Right,2,0.1419,-0.0108,-0.7767,0.6136,0.3986,-0.2514,3.2078,1.9019,5.0742,7.3704,-9.0032,3.4001,15.2342,0.0050,-0.0031,0.0401,0.9992,-0.2294,0.0740,0.3805
21270,Pelvis,2,-0.5073,-0.4352,-0.5564,0.4936,1.1698,0.0294,0.0352,-0.5899,-1.2624,-0.1568,9.7347,-0.5652,-0.3065,0.0146,0.0004,0.0004,0.9999,0.2434,-0.0139,-0.0080
21270,Left,2,0.0054,0.1142,-0.5117,0.8515,-0.0433,0.0822,0.0497,-0.1826,-0.2228,-0.0819,-1.8250,-1.3084,9.4725,-0.0005,0.0010,0.0006,1.0000,-0.0454,-0.0326,0.2369
21270,Right,2,0.1252,-0.0293,-0.7525,0.6459,-0.0467,-1.6035,3.4649,0.0100,6.2487,3.9717,-8.5234,1.4681,12.4233,-0.0006,-0.0200,0.0433,0.9989,-0.2206,0.0274,0.3062
21271,Pelvis,2,-0.4996,-0.4431,-0.5500,0.5015,1.1923,0.0536,0.0081,-0.0461,-1.1613,-0.0222,9.8585,-0.0567,-0.1019,0.0149,0.0007,0.0001,0.9999,0.2465,-0.0014,-0.0027
21271,Left,2,0.0055,0.1155,-0.5111,0.8517,-0.0413,0.0919,0.0497,-0.1925,-0.2430,-0.0718,-1.8349,-1.3386,9.4774,-0.0005,0.0011,0.0006,1.0000,-0.0456,-0.0334,0.2370
21271,Right,2,0.1092,-0.0439,-0.7318,0.6713,-0.1738,-1.4116,2.8184,-2.5459,5.3763,-2.7146,-5.9285,-1.6830,6.9143,-0.0022,-0.0176,0.0352,0.9992,-0.1496,-0.0470,0.1703
21272,Pelvis,2,-0.4924,-0.4506,-0.5436,0.5089,1.1346,0.0300,0.0089,0.2354,-1.1769,-0.0573,9.8261,0.2174,-0.0859,0.0142,0.0004,0.0001,0.9999,0.2457,0.0055,-0.0022
21272,Left,2,0.0057,0.1168,-0.5105,0.8519,-0.0325,0.1038,0.0520,-0.2457,-0.2195,-0.0914,-1.8991,-1.3812,9.4392,-0.0004,0.0013,0.0006,1.0000,-0.0471,-0.0345,0.2361
21272,Right,2,0.1040,-0.0598,-0.7151,0.6886,0.5401,-0.9166,2.0932,-2.7233,6.1833,-2.4537,-6.6254,-1.4633,7.3340,0.0068,-0.0115,0.0262,0.9996,-0.1667,-0.0422,0.1812
21273,Pelvis,2,-0.4855,-0.4578,-0.5375,0.5155,1.0683,0.0190,-0.0066,0.0333,-1.1202,-0.1864,9.6911,0.0076,-0.0588,0.0134,0.0002,-0.0001,0.9999,0.2423,0.0002,-0.0015
21273,Left,2,0.0059,0.1182,-0.5100,0.8520,-0.0325,0.1103,0.0442,-0.1860,-0.1742,-0.0961,-1.9362,-1.3155,9.4338,-0.0004,0.0014,0.0006,1.0000,-0.0481,-0.0328,0.2359
21273,Right,2,0.1056,-0.0770,-0.7001,0.7019,1.0186,-0.6394,1.7456,-1.9543,7.3430,-1.7185,-7.7411,-0.1074,7.9589,0.0127,-0.0080,0.0218,0.9996,-0.1950,-0.0094,0.1973
21274,Pelvis,2,-0.4787,-0.4649,-0.5315,0.5218,1.0454,0.0103,-0.0179,-0.1276,-0.9785,-0.1211,9.7400,-0.1604,0.0840,0.0131,0.0001,-0.0002,0.9999,0.2435,-0.0041,0.0020
21274,Left,2,0.0063,0.1200,-0.5096,0.8520,-0.0382,0.1382,0.0339,-0.1771,-0.2369,-0.1407,-1.8979,-1.3426,9.3931,-0.0005,0.0017,0.0004,1.0000,-0.0470,-0.0335,0.2349
21274,Right,2,0.1040,-0.0913,-0.6854,0.7149,0.6788,-0.6707,1.6999,-1.2913,8.7577,-1.7438,-8.9954,1.0506,7.8408,0.0085,-0.0084,0.0212,0.9997,-0.2270,0.0198,0.1943
21275,Pelvis,2,-0.4719,-0.4720,-0.5254,0.5278,1.0349,-0.0095,-0.0286,-0.1150,-0.9893,-0.0964,9.7658,-0.1429,0.0779,0.0129,-0.0001,-0.0004,0.9999,0.2441,-0.0037,0.0019
21275,Left,2,0.0069,0.1226,-0.5093,0.8518,-0.0547,0.2091,0.0245,-0.1477,-0.3083,-0.2377,-1.8426,-1.3533,9.3043,-0.0007,0.0026,0.0003,1.0000,-0.0454,-0.0337,0.2328
21275,Right,2,0.0998,-0.0970,-0.6726,0.7268,0.0555,-0.3549,1.4648,-2.3239,7.2160,-5.4810,-7.3541,-0.6296,4.6650,0.0007,-0.0044,0.0183,0.9998,-0.1840,-0.0192,0.1158
21276,Pelvis,2,-0.4653,-0.4789,-0.5192,0.5335,1.0057,-0.0224,-0.0237,-0.1516,-1.1021,-0.0219,9.8521,-0.1759,-0.0287,0.0126,-0.0003,-0.0003,0.9999,0.2463,-0.0045,-0.0007
21276,Left,2,0.0075,0.1268,-0.5087,0.8515,-0.1207,0.3204,0.0338,-0.1860,-0.3215,-0.2271,-1.9121,-1.4163,9.2930,-0.0015,0.0040,0.0004,1.0000,-0.0469,-0.0351,0.2326
21276,Right,2,0.1026,-0.0960,-0.6627,0.7356,0.1074,0.3611,1.0186,-2.9584,6.6411,-5.4924,-6.8541,-1.0514,4.8416,0.0013,0.0045,0.0127,0.9999,-0.1704,-0.0286,0.1218
21277,Pelvis,2,-0.4589,-0.4858,-0.5127,0.5390,1.0127,-0.0445,-0.0076,-0.4390,-1.2708,-0.0950,9.7970,-0.4701,-0.1991,0.0127,-0.0006,-0.0001,0.9999,0.2449,-0.0117,-0.0050
21277,Left,2,0.0079,0.1323,-0.5079,0.8512,-0.1945,0.4021,0.0486,-0.2764,-0.2259,0.0615,-2.1852,-1.5205,9.5153,-0.0024,0.0050,0.0006,1.0000,-0.0534,-0.0375,0.2382
21277,Right,2,0.1092,-0.0902,-0.6541,0.7430,0.0786,0.8209,0.7954,-0.5491,6.4769,-2.7901,-6.5104,2.1525,6.6749,0.0010,0.0103,0.0099,0.9999,-0.1616,0.0520,0.1686
21278,Pelvis,2,-0.4519,-0.4930,-0.5056,0.5450,1.0857,-0.0452,0.0022,-0.5120,-1.2341,-0.1248,9.7628,-0.5483,-0.1625,0.0136,-0.0006,0.0000,0.9999,0.2441,-0.0136,-0.0041
21278,Left,2,0.0087,0.1362,-0.5068,0.8512,-0.0973,0.2978,0.0822,-0.4222,-0.2662,0.0514,-2.2979,-1.6996,9.4542,-0.0012,0.0037,0.0010,1.0000,-0.0565,-0.0423,0.2366
21278,Right,2,0.1122,-0.0732,-0.6460,0.7515,-0.7320,1.2892,0.7411,-1.9707,2.7254,0.2904,-3.1985,1.2198,10.0835,-0.0091,0.0161,0.0093,0.9998,-0.0762,0.0321,0.2530
21279,Pelvis,2,-0.4452,-0.5003,-0.4977,0.5511,1.1129,-0.0774,0.0526,-0.2354,-1.0631,0.1685,10.0368,-0.2693,0.0085,0.0139,-0.0010,0.0007,0.9999,0.2509,-0.0066,0.0004
21279,Left,2,0.0101,0.1384,-0.5055,0.8516,0.0038,0.2113,0.1219,-0.4139,-0.3154,-0.0209,-2.2973,-1.7160,9.3770,0.0000,0.0026,0.0015,1.0000,-0.0567,-0.0430,0.2346
21279,Right,2,0.1140,-0.0620,-0.6375,0.7595,-0.4957,0.8798,0.7964,-1.1803,-1.5471,0.2343,0.8925,1.2276,10.1207,-0.0062,0.0110,0.0100,0.9999,0.0248,0.0325,0.2526
21280,Pelvis,2,-0.4393,-0.5070,-0.4893,0.5573,1.0804,-0.1030,0.1276,0.0791,-0.9706,0.3923,10.2511,0.0298,0.0658,0.0135,-0.0013,0.0016,0.9999,0.2563,0.0011,0.0020
21280,Left,2,0.0121,0.1401,-0.5040,0.8522,0.0667,0.1943,0.1508,-0.4135,-0.3365,-0.0011,-2.3361,-1.7157,9.3888,0.0008,0.0024,0.0019,1.0000,-0.0578,-0.0432,0.2348
21280,Right,2,0.1217,-0.0512,-0.6322,0.7634,-0.0997,1.1090,0.3668,-5.1539,-1.2422,-0.8515,-0.3196,-2.8698,10.0039,-0.0012,0.0139,0.0046,0.9999,-0.0042,-0.0715,0.2503
21281,Pelvis,2,-0.4337,-0.5133,-0.4812,0.5630,1.0140,-0.0962,0.1205,0.4332,-0.5444,0.0877,9.9094,0.4074,0.3735,0.0127,-0.0012,0.0015,0.9999,0.2477,0.0104,0.0098
21281,Left,2,0.0146,0.1417,-0.5022,0.8530,0.0969,0.2088,0.1882,-0.2278,-0.3630,-0.0360,-2.2735,-1.5389,9.3931,0.0012,0.0026,0.0024,1.0000,-0.0561,-0.0389,0.2349
21281,Right,2,0.1314,-0.0420,-0.6334,0.7615,0.1434,1.0258,-0.3121,-4.4747,-0.1172,-0.2822,-1.6085,-1.8851,10.2338,0.0018,0.0128,-0.0039,0.9999,-0.0371,-0.0474,0.2562
21282,Pelvis,2,-0.4283,-0.5183,-0.4746,0.5681,0.8793,-0.0223,0.0855,0.5396,0.0543,0.0078,9.7754,0.5945,0.9071,0.0110,-0.0003,0.0011,0.9999,0.2444,0.0149,0.0229
21282,Left,2,0.0176,0.1444,-0.4997,0.8539,0.0788,0.2960,0.2456,-0.1999,-0.6350,-0.0940,-2.0808,-1.6141,9.3788,0.0010,0.0037,0.0031,1.0000,-0.0510,-0.0407,0.2346
21282,Right,2,0.1428,-0.0308,-0.6344,0.7591,0.1542,1.2379,-0.3530,2.1967,1.3329,0.8112,-2.1331,5.0113,9.4772,0.0019,0.0155,-0.0044,0.9999,-0.0491,0.1250,0.2380
21283,Pelvis,2,-0.4237,-0.5217,-0.4693,0.5727,0.7136,0.0400,0.0987,0.7439,0.4345,0.7529,10.4854,0.8639,1.2982,0.0089,0.0005,0.0012,1.0000,0.2621,0.0216,0.0325
21283,Left,2,0.0221,0.1492,-0.4967,0.8547,0.0967,0.5110,0.2858,0.2433,-0.6571,-0.0373,-1.9769,-1.2206,9.5212,0.0012,0.0064,0.0036,1.0000,-0.0478,-0.0310,0.2383
21283,Right,2,0.1527,-0.0189,-0.6332,0.7585,0.0057,1.2216,-0.1331,-0.3761,1.4236,1.4468,-3.1396,2.7373,10.5643,0.0001,0.0153,-0.0017,0.9999,-0.0743,0.0685,0.2653
21284,Pelvis,2,-0.4208,-0.5237,-0.4651,0.5765,0.5121,0.0459,0.1331,0.8482,0.3007,1.4127,11.1584,0.9269,1.2049,0.0064,0.0006,0.0017,1.0000,0.2789,0.0234,0.0301
21284,Left,2,0.0274,0.1577,-0.4938,0.8547,0.0067,0.8028,0.2474,0.4971,-0.4180,0.0577,-2.2503,-0.8704,9.5931,0.0001,0.0100,0.0031,0.9999,-0.0538,-0.0219,0.2404
21284,Right,2,0.1559,-0.0093,-0.6324,0.7587,-0.2882,0.7523,-0.0727,0.5257,2.7561,3.4094,-4.8550,4.2508,11.8769,-0.0036,0.0094,-0.0009,0.9999,-0.1185,0.1075,0.2977
21285,Pelvis,2,-0.4182,-0.5254,-0.4616,0.5796,0.4290,0.0430,0.1039,0.3621,-0.0095,1.1380,10.9067,0.3627,0.9808,0.0054,0.0005,0.0013,1.0000,0.2727,0.0093,0.0244
21285,Left,2,0.0331,0.1706,-0.4908,0.8538,-0.1482,1.1321,0.2119,0.4395,-0.5389,0.0865,-2.4208,-0.9914,9.5729,-0.0019,0.0142,0.0026,0.9999,-0.0571,-0.0245,0.2402
21285,Right,2,0.1584,-0.0023,-0.6318,0.7587,-0.2037,0.5466,-0.0730,-1.5352,0.3826,0.7398,-2.6823,1.1814,10.2601,-0.0025,0.0068,-0.0009,1.0000,-0.0653,0.0302,0.2569
21286,Pelvis,2,-0.4147,-0.5280,-0.4583,0.5824,0.4828,0.0324,0.0083,-0.3712,-0.1914,0.5216,10.2944,-0.3999,0.9149,0.0060,0.0004,0.0001,1.0000,0.2574,-0.0101,0.0227
21286,Left,2,0.0395,0.1868,-0.4876,0.8519,-0.2236,1.3928,0.1961,0.3137,-0.5248,0.0916,-2.7964,-1.1255,9.4548,-0.0028,0.0174,0.0025,0.9998,-0.0657,-0.0276,0.2376
21286,Right,2,0.1606,0.0027,-0.6313,0.7587,-0.1182,0.4114,-0.0462,-0.2713,0.5769,0.4542,-2.6816,2.3082,9.6590,-0.0015,0.0051,-0.0006,1.0000,-0.0658,0.0581,0.2417
21287,Pelvis,2,-0.4095,-0.5312,-0.4552,0.5856,0.5975,0.0853,-0.0741,-0.1992,0.1951,0.4922,10.2305,-0.1208,1.2608,0.0075,0.0011,-0.0009,1.0000,0.2558,-0.0035,0.0312
21287,Left,2,0.0461,0.2049,-0.4836,0.8497,-0.2988,1.5412,0.2317,-0.0397,-0.4714,0.1002,-3.3524,-1.4457,9.2290,-0.0037,0.0193,0.0029,0.9998,-0.0792,-0.0355,0.2324
21287,Right,2,0.1620,0.0063,-0.6309,0.7587,-0.0880,0.2808,-0.0398,-0.1701,0.6455,0.4998,-2.8237,2.3991,9.6470,-0.0011,0.0035,-0.0005,1.0000,-0.0697,0.0603,0.2414
21288,Pelvis,2,-0.4036,-0.5344,-0.4519,0.5894,0.6543,0.1293,-0.0677,0.2314,0.4540,0.3118,10.0315,0.3965,1.4065,0.0082,0.0016,-0.0008,1.0000,0.2509,0.0094,0.0348
21288,Left,2,0.0531,0.2238,-0.4789,0.8472,-0.3001,1.6140,0.2650,0.0659,-0.3635,0.0452,-3.7388,-1.3436,9.0301,-0.0038,0.0202,0.0033,0.9998,-0.0888,-0.0330,0.2277
21288,Right,2,0.1632,0.0091,-0.6303,0.7589,-0.0705,0.2264,-0.0053,-0.1747,0.2405,0.0303,-2.4004,2.2016,9.2933,-0.0009,0.0028,-0.0001,1.0000,-0.0593,0.0552,0.2325
21289,Pelvis,2,-0.3978,-0.5369,-0.4485,0.5935,0.6351,0.1682,-0.0308,0.4259,0.6660,-0.0551,9.6435,0.6714,1.5454,0.0079,0.0021,-0.0004,1.0000,0.2412,0.0164,0.0383
21289,Left,2,0.0600,0.2432,-0.4734,0.8445,-0.3511,1.6579,0.3156,-0.1093,-0.3166,0.0258,-4.2176,-1.5094,8.7668,-0.0044,0.0207,0.0039,0.9998,-0.1007,-0.0372,0.2215
21289,Right,2,0.1649,0.0116,-0.6294,0.7593,-0.0285,0.2436,0.0253,-0.3786,0.1363,-0.0111,-2.3895,1.9694,9.3083,-0.0004,0.0030,0.0003,1.0000,-0.0590,0.0493,0.2329
21290,Pelvis,2,-0.3925,-0.5391,-0.4453,0.5975,0.5984,0.1637,-0.0114,0.3907,0.9417,-0.4462,9.2182,0.7401,1.8021,0.0075,0.0020,-0.0001,1.0000,0.2305,0.0181,0.0447
21290,Left,2,0.0670,0.2629,-0.4667,0.8418,-0.3743,1.6901,0.3983,0.0023,-0.3886,0.0629,-4.5075,-1.5046,8.6668,-0.0047,0.0211,0.0050,0.9998,-0.1079,-0.0371,0.2192
21290,Right,2,0.1665,0.0140,-0.6286,0.7596,-0.0193,0.2260,0.0187,-0.2211,0.2159,-0.0066,-2.4885,2.1298,9.2481,-0.0002,0.0028,0.0002,1.0000,-0.0616,0.0533,0.2314
21291,Pelvis,2,-0.3874,-0.5412,-0.4423,0.6011,0.5555,0.1479,-0.0263,0.4604,1.1228,-0.7298,8.9112,0.8864,1.9436,0.0069,0.0018,-0.0003,1.0000,0.2229,0.0218,0.0483
21291,Left,2,0.0728,0.2833,-0.4573,0.8398,-0.5483,1.6878,0.5812,-0.0272,-0.3935,0.5885,-5.1701,-1.6468,8.8835,-0.0069,0.0211,0.0073,0.9997,-0.1242,-0.0405,0.2250
21291,Right,2,0.1673,0.0164,-0.6281,0.7598,-0.0728,0.1834,-0.0063,-0.0567,0.3274,0.2853,-2.6763,2.3630,9.4517,-0.0009,0.0023,-0.0001,1.0000,-0.0664,0.0593,0.2364
21292,Pelvis,2,-0.3826,-0.5431,-0.4400,0.6042,0.4912,0.1541,-0.0499,0.7069,1.1707,-0.6228,9.0100,1.1692,1.9436,0.0061,0.0019,-0.0006,1.0000,0.2254,0.0288,0.0483
21292,Left,2,0.0771,0.3021,-0.4440,0.8400,-0.6883,1.5041,0.8963,-0.1570,-1.0928,0.6284,-5.1271,-2.2034,8.8944,-0.0086,0.0188,0.0112,0.9997,-0.1233,-0.0546,0.2252
21292,Right,2,0.1676,0.0180,-0.6276,0.7601,-0.0628,0.1058,0.0075,-0.3227,0.2566,0.1584,-2.6708,2.0512,9.3942,-0.0008,0.0013,0.0001,1.0000,-0.0665,0.0515,0.2349
21293,Pelvis,2,-0.3786,-0.5443,-0.4384,0.6068,0.3831,0.1550,-0.0527,0.9436,1.2365,-0.4907,9.1304,1.4478,1.9644,0.0048,0.0019,-0.0007,1.0000,0.2284,0.0358,0.0488
21293,Left,2,0.0797,0.3188,-0.4267,0.8425,-0.8383,1.2692,1.2182,0.0658,-1.1990,0.7763,-5.4074,-2.1451,8.9298,-0.0105,0.0159,0.0152,0.9997,-0.1308,-0.0533,0.2259
21293,Right,2,0.1692,0.0180,-0.6268,0.7604,0.0947,0.0792,0.0538,-0.3877,0.2289,0.1320,-2.6738,1.9842,9.3815,0.0012,0.0010,0.0007,1.0000,-0.0666,0.0493,0.2347
21294,Pelvis,2,-0.3758,-0.5453,-0.4372,0.6085,0.2787,0.0944,-0.0420,0.9619,1.0758,-0.2957,9.3365,1.4410,1.8465,0.0035,0.0012,-0.0005,1.0000,0.2335,0.0357,0.0460
21294,Left,2,0.0802,0.3316,-0.4060,0.8478,-0.9526,0.8826,1.5156,0.1697,-1.0520,0.7657,-5.7597,-1.9819,8.7145,-0.0119,0.0110,0.0189,0.9997,-0.1406,-0.0496,0.2200
21294,Right,2,0.1730,0.0168,-0.6254,0.7607,0.2870,0.1328,0.1113,-0.2556,0.1089,0.1044,-2.5472,2.1357,9.3476,0.0036,0.0017,0.0014,1.0000,-0.0634,0.0525,0.2340
21295,Pelvis,2,-0.3741,-0.5463,-0.4362,0.6094,0.1843,0.0286,-0.0334,0.9078,0.9184,-0.1953,9.4504,1.3571,1.7346,0.0023,0.0004,-0.0004,1.0000,0.2363,0.0337,0.0434
21295,Left,2,0.0803,0.3388,-0.3831,0.8555,-0.8743,0.4422,1.7686,2.1652,-2.2163,0.1729,-3.9597,-1.2035,9.6014,-0.0109,0.0055,0.0221,0.9997,-0.0970,-0.0296,0.2409
21295,Right,2,0.1790,0.0147,-0.6233,0.7611,0.4692,0.1925,0.1668,-0.4219,-0.0094,-0.0944,-2.4554,2.0057,9.1963,0.0059,0.0024,0.0021,1.0000,-0.0609,0.0487,0.2303
21296,Pelvis,2,-0.3732,-0.5474,-0.4356,0.6094,0.1077,-0.0312,-0.0456,0.6910,0.7564,-0.1543,9.5054,1.1136,1.6559,0.0013,-0.0004,-0.0006,1.0000,0.2376,0.0276,0.0415
21296,Left,2,0.0840,0.3308,-0.3545,0.8705,-0.3555,-0.6459,2.5799,8.2797,-2.1703,0.7027,-1.2839,3.0722,13.1440,-0.0044,-0.0081,0.0322,0.9994,-0.0372,0.0771,0.3280
21296,Right,2,0.1849,0.0134,-0.6215,0.7612,0.4256,0.2306,0.1315,-0.2779,0.1030,-0.2437,-2.5340,2.2338,8.9578,0.0053,0.0029,0.0016,1.0000,-0.0628,0.0545,0.2244
21297,Pelvis,2,-0.3724,-0.5489,-0.4354,0.6086,0.0756,-0.0837,-0.0995,0.3227,0.6833,-0.0567,9.6045,0.7649,1.7084,0.0009,-0.0010,-0.0012,1.0000,0.2401,0.0188,0.0430
21297,Left,2,0.0849,0.3129,-0.3252,0.8884,-0.3178,-1.4854,2.7050,3.7666,-4.5823,-1.6861,-0.4610,-1.5706,9.9274,-0.0040,-0.0186,0.0338,0.9992,-0.0148,-0.0387,0.2481
21297,Right,2,0.1902,0.0128,-0.6199,0.7612,0.3565,0.2397,0.0938,-0.1289,0.1932,0.0029,-2.6944,2.5506,9.0904,0.0045,0.0030,0.0012,1.0000,-0.0668,0.0627,0.2277
21298,Pelvis,2,-0.3711,-0.5510,-0.4354,0.6075,0.1013,-0.1040,-0.1629,0.2604,0.6133,0.0158,9.6856,0.7187,1.6479,0.0013,-0.0013,-0.0020,1.0000,0.2421,0.0174,0.0415
21298,Left,2,0.0817,0.2951,-0.3045,0.9020,-0.3646,-1.5309,1.8723,1.8840,-5.1518,-2.6900,-0.4435,-3.2021,8.3890,-0.0046,-0.0191,0.0234,0.9995,-0.0132,-0.0794,0.2098
21298,Right,2,0.1949,0.0131,-0.6187,0.7610,0.2753,0.2594,0.0573,-0.0617,0.1802,-0.0203,-2.7135,2.6825,9.0205,0.0034,0.0032,0.0007,1.0000,-0.0672,0.0662,0.2260
21299,Pelvis,2,-0.3696,-0.5535,-0.4353,0.6062,0.1264,-0.1221,-0.1831,0.4937,0.6289,0.0760,9.7477,0.9904,1.5577,0.0016,-0.0015,-0.0023,1.0000,0.2437,0.0241,0.0394
21299,Left,2,0.0729,0.2778,-0.2929,0.9120,-0.5405,-1.6046,0.9966,1.9862,-4.2707,-1.4117,-1.3201,-2.5531,9.1928,-0.0068,-0.0201,0.0125,0.9997,-0.0368,-0.0627,0.2295
21299,Right,2,0.1994,0.0139,-0.6176,0.7606,0.2427,0.2845,0.0253,-0.1594,0.1616,-0.0104,-2.7812,2.6509,9.0208,0.0030,0.0036,0.0003,1.0000,-0.0687,0.0656,0.2260
21300,Pelvis,2,-0.3683,-0.5560,-0.4350,0.6050,0.1244,-0.1359,-0.1610,0.7506,0.7441,0.0511,9.7118,1.3163,1.5362,0.0016,-0.0017,-0.0020,1.0000,0.2428,0.0324,0.0389
21300,Left,2,0.0628,0.2596,-0.2865,0.9201,-0.4874,-1.6771,0.5489,1.7043,-2.9724,-0.9330,-2.0770,-1.7589,9.1210,-0.0061,-0.0210,0.0069,0.9997,-0.0564,-0.0430,0.2271
21300,Right,2,0.2046,0.0143,-0.6165,0.7602,0.3036,0.2858,0.0310,-0.3822,0.2174,0.0206,-2.9582,2.5216,9.0431,0.0038,0.0036,0.0004,1.0000,-0.0732,0.0622,0.2266
21301,Pelvis,2,-0.3675,-0.5581,-0.4348,0.6037,0.0882,-0.1375,-0.1376,0.8497,0.8858,0.0830,9.7276,1.4998,1.5988,0.0011,-0.0017,-0.0017,1.0000,0.2432,0.0370,0.0404
21301,Left,2,0.0529,0.2406,-0.2831,0.9269,-0.3790,-1.7279,0.3057,1.4478,-2.0237,0.3237,-2.9766,-1.2407,9.9275,-0.0047,-0.0216,0.0038,0.9997,-0.0796,-0.0301,0.2466
21301,Right,2,0.2099,0.0143,-0.6154,0.7597,0.3382,0.2726,0.0419,-0.2427,0.2612,0.0047,-3.0227,2.7301,8.9398,0.0042,0.0034,0.0005,1.0000,-0.0748,0.0673,0.2240
21302,Pelvis,2,-0.3670,-0.5601,-0.4349,0.6021,0.0395,-0.1403,-0.1432,0.7735,0.9364,-0.0011,9.6389,1.4790,1.6270,0.0005,-0.0018,-0.0018,1.0000,0.2410,0.0365,0.0411
21302,Left,2,0.0426,0.2209,-0.2817,0.9328,-0.3533,-1.7717,0.1342,1.5141,-1.1064,-0.0225,-2.7949,-0.5040,9.5559,-0.0044,-0.0221,0.0017,0.9997,-0.0751,-0.0117,0.2373
21302,Right,2,0.2150,0.0138,-0.6141,0.7592,0.3416,0.2337,0.0573,-0.1836,0.3766,0.1771,-3.2182,2.9354,9.0000,0.0043,0.0029,0.0007,1.0000,-0.0798,0.0724,0.2255
21303,Pelvis,2,-0.3667,-0.5621,-0.4354,0.6001,0.0014,-0.1613,-0.1657,0.6866,0.8606,-0.0935,9.5566,1.4046,1.5403,0.0000,-0.0020,-0.0021,1.0000,0.2389,0.0346,0.0390
21303,Left,2,0.0336,0.2030,-0.2807,0.9375,-0.2838,-1.5859,0.0953,1.4703,-0.5009,-0.3677,-2.5835,-0.0769,9.2170,-0.0035,-0.0198,0.0012,0.9998,-0.0691,-0.0012,0.2291
21303,Right,2,0.2198,0.0131,-0.6130,0.7588,0.3364,0.2068,0.0564,-0.1778,0.2616,0.0282,-3.1138,2.9572,8.8602,0.0042,0.0026,0.0007,1.0000,-0.0773,0.0729,0.2220
21304,Pelvis,2,-0.3667,-0.5638,-0.4364,0.5977,-0.0541,-0.1589,-0.1834,0.6849,0.7045,-0.1451,9.5224,1.3861,1.3529,-0.0007,-0.0020,-0.0023,1.0000,0.2381,0.0341,0.0343
21304,Left,2,0.0269,0.1868,-0.2784,0.9417,-0.1748,-1.4064,0.2098,0.8949,-0.3798,0.0255,-2.8852,-0.3531,9.4496,-0.0022,-0.0176,0.0026,0.9998,-0.0762,-0.0085,0.2349
21304,Right,2,0.2236,0.0132,-0.6122,0.7584,0.2365,0.1972,0.0195,0.1813,0.2907,-0.1236,-3.0496,3.3149,8.5853,0.0030,0.0025,0.0002,1.0000,-0.0757,0.0822,0.2151
21305,Pelvis,2,-0.3671,-0.5655,-0.4377,0.5948,-0.1092,-0.1808,-0.1943,0.6394,0.6107,-0.2164,9.4615,1.3491,1.2370,-0.0014,-0.0023,-0.0024,1.0000,0.2365,0.0332,0.0314
21305,Left,2,0.0206,0.1715,-0.2753,0.9457,-0.1689,-1.3077,0.2710,0.0786,-0.8321,0.6911,-3.1980,-1.2344,9.9643,-0.0021,-0.0163,0.0034,0.9999,-0.0839,-0.0306,0.2478
21305,Right,2,0.2254,0.0153,-0.6120,0.7579,0.0145,0.2150,-0.0563,0.1727,0.2120,-0.1106,-3.0298,3.3246,8.6008,0.0002,0.0027,-0.0007,1.0000,-0.0751,0.0831,0.2152
21306,Pelvis,2,-0.3678,-0.5671,-0.4394,0.5916,-0.1453,-0.1934,-0.2059,0.4433,0.4483,-0.1712,9.5274,1.1557,1.1178,-0.0018,-0.0024,-0.0026,1.0000,0.2382,0.0283,0.0285
21306,Left,2,0.0124,0.1574,-0.2724,0.9491,-0.3427,-1.2651,0.2162,-0.2550,-0.7721,1.0831,-3.2978,-1.4318,10.3181,-0.0043,-0.0158,0.0027,0.9999,-0.0864,-0.0349,0.2568
21306,Right,2,0.2263,0.0177,-0.6121,0.7575,-0.0446,0.1768,-0.0766,-0.0045,0.3330,0.0566,-3.2844,3.2223,8.7374,-0.0006,0.0022,-0.0010,1.0000,-0.0815,0.0808,0.2186
21307,Pelvis,2,-0.3683,-0.5686,-0.4412,0.5885,-0.1427,-0.1771,-0.2168,0.2731,0.3508,-0.1132,9.5994,1.0133,1.0503,-0.0018,-0.0022,-0.0027,1.0000,0.2400,0.0247,0.0267
21307,Left,2,0.0027,0.1446,-0.2698,0.9520,-0.4765,-1.1875,0.1570,0.0179,-0.2956,0.3094,-2.7782,-0.9283,9.6939,-0.0060,-0.0148,0.0020,0.9999,-0.0730,-0.0219,0.2414
21307,Right,2,0.2270,0.0196,-0.6122,0.7572,-0.0437,0.1393,-0.0660,-0.1360,0.2318,-0.0023,-3.2475,3.0497,8.7446,-0.0005,0.0017,-0.0008,1.0000,-0.0807,0.0764,0.2187
21308,Pelvis,2,-0.3688,-0.5699,-0.4429,0.5856,-0.1380,-0.1578,-0.2012,0.3928,0.3872,-0.0475,9.6553,1.1893,1.0119,-0.0017,-0.0020,-0.0025,1.0000,0.2414,0.0292,0.0257
21308,Left,2,-0.0069,0.1336,-0.2672,0.9543,-0.5042,-1.0446,0.1558,0.3680,0.3053,0.0994,-2.4699,-0.3324,9.6059,-0.0063,-0.0131,0.0019,0.9999,-0.0649,-0.0069,0.2394
21308,Right,2,0.2276,0.0216,-0.6122,0.7569,-0.0513,0.1419,-0.0590,-0.2000,0.1835,0.0084,-3.2589,2.9705,8.7797,-0.0006,0.0018,-0.0007,1.0000,-0.0810,0.0745,0.2196
21309,Pelvis,2,-0.3699,-0.5712,-0.4445,0.5825,-0.1698,-0.1928,-0.1677,0.4810,0.3100,-0.1782,9.5276,1.2776,0.8618,-0.0021,-0.0024,-0.0021,1.0000,0.2382,0.0315,0.0221
21309,Left,2,-0.0155,0.1242,-0.2640,0.9564,-0.4682,-0.8880,0.1954,0.1753,0.6558,-0.0191,-2.5415,-0.2295,9.4799,-0.0059,-0.0111,0.0024,0.9999,-0.0661,-0.0045,0.2363
21309,Right,2,0.2276,0.0236,-0.6124,0.7567,-0.0918,0.1175,-0.0645,0.0326,0.3045,-0.0357,-3.3320,3.1713,8.6328,-0.0011,0.0015,-0.0008,1.0000,-0.0829,0.0796,0.2158
21310,Pelvis,2,-0.3713,-0.5726,-0.4460,0.5791,-0.1904,-0.2286,-0.1662,0.3926,0.1823,-0.3520,9.3702,1.1751,0.7145,-0.0024,-0.0029,-0.0021,1.0000,0.2343,0.0289,0.0185
21310,Left,2,-0.0214,0.1162,-0.2609,0.9581,-0.2941,-0.7335,0.2197,-0.4458,0.6161,-0.1798,-2.8056,-0.6395,9.2246,-0.0037,-0.0092,0.0027,0.9999,-0.0722,-0.0153,0.2300
21310,Right,2,0.2265,0.0256,-0.6129,0.7566,-0.1555,0.0466,-0.0840,0.0425,0.3606,-0.0115,-3.4129,3.1633,8.6337,-0.0019,0.0006,-0.0011,1.0000,-0.0851,0.0796,0.2157
21311,Pelvis,2,-0.3728,-0.5739,-0.4479,0.5753,-0.2192,-0.2326,-0.1907,0.3468,0.1598,-0.4672,9.2589,1.1538,0.6526,-0.0027,-0.0029,-0.0024,1.0000,0.2315,0.0283,0.0169
21311,Left,2,-0.0243,0.1093,-0.2584,0.9595,-0.0838,-0.5768,0.1892,-0.6612,0.7270,-0.1290,-2.8981,-0.6892,9.2665,-0.0010,-0.0072,0.0024,1.0000,-0.0741,-0.0172,0.2311
21311,Right,2,0.2240,0.0278,-0.6140,0.7564,-0.2475,-0.0146,-0.1258,0.0226,0.3076,-0.0070,-3.3832,3.0856,8.6764,-0.0031,-0.0002,-0.0016,1.0000,-0.0845,0.0779,0.2167
21312,Pelvis,2,-0.3747,-0.5750,-0.4501,0.5714,-0.2641,-0.2315,-0.1886,0.4758,0.1994,-0.4306,9.2817,1.3318,0.6039,-0.0033,-0.0029,-0.0024,1.0000,0.2321,0.0328,0.0157
21312,Left,2,-0.0257,0.1045,-0.2566,0.9605,-0.0130,-0.3846,0.1460,-0.2244,0.8074,-0.9224,-2.3020,-0.3277,8.6216,-0.0002,-0.0048,0.0018,1.0000,-0.0586,-0.0083,0.2153
21312,Right,2,0.2204,0.0300,-0.6154,0.7562,-0.3184,-0.0700,-0.1506,-0.1736,0.2177,-0.0119,-3.3492,2.8128,8.7753,-0.0040,-0.0009,-0.0019,1.0000,-0.0838,0.0714,0.2190
21313,Pelvis,2,-0.3770,-0.5756,-0.4525,0.5673,-0.3167,-0.2243,-0.1659,0.5717,0.1862,-0.3195,9.3840,1.4661,0.5241,-0.0040,-0.0028,-0.0021,1.0000,0.2346,0.0362,0.0136
21313,Left,2,-0.0269,0.1033,-0.2549,0.9611,-0.0618,-0.1052,0.1335,-0.2602,0.7617,-0.6341,-2.3059,-0.4187,8.9108,-0.0008,-0.0013,0.0017,1.0000,-0.0579,-0.0104,0.2227
21313,Right,2,0.2168,0.0321,-0.6167,0.7561,-0.3085,-0.0805,-0.1391,-0.2356,0.1875,-0.0168,-3.3291,2.6672,8.8235,-0.0039,-0.0010,-0.0017,1.0000,-0.0833,0.0677,0.2202
21314,Pelvis,2,-0.3799,-0.5759,-0.4549,0.5631,-0.3610,-0.2389,-0.1284,0.4896,0.1028,-0.2379,9.4750,1.4016,0.4324,-0.0045,-0.0030,-0.0016,1.0000,0.2369,0.0347,0.0114
21314,Left,2,-0.0288,0.1011,-0.2536,0.9616,-0.0993,-0.1831,0.1003,-1.3949,1.0231,2.0698,-3.8556,-1.0405,11.3242,-0.0012,-0.0023,0.0013,1.0000,-0.0970,-0.0258,0.2829
21314,Right,2,0.2133,0.0339,-0.6179,0.7560,-0.2887,-0.0936,-0.1274,-0.2143,0.1733,0.0499,-3.3224,2.6270,8.9111,-0.0036,-0.0012,-0.0016,1.0000,-0.0832,0.0666,0.2224
21315,Pelvis,2,-0.3833,-0.5763,-0.4567,0.5589,-0.3506,-0.2836,-0.0944,0.1990,-0.0211,-0.1467,9.5963,1.1211,0.3557,-0.0044,-0.0035,-0.0012,1.0000,0.2399,0.0278,0.0096
21315,Left,2,-0.0323,0.0940,-0.2535,0.9622,-0.1045,-0.6000,-0.0150,-1.7417,1.0372,1.5571,-3.9532,-1.1695,10.7883,-0.0013,-0.0075,-0.0002,1.0000,-0.1009,-0.0289,0.2690
21315,Right,2,0.2093,0.0354,-0.6193,0.7559,-0.3116,-0.1361,-0.1320,-0.1769,0.2266,-0.0053,-3.3291,2.5771,8.8625,-0.0039,-0.0017,-0.0016,1.0000,-0.0835,0.0654,0.2212
21316,Pelvis,2,-0.3866,-0.5770,-0.4582,0.5547,-0.3191,-0.2979,-0.0810,0.0299,-0.0993,-0.1024,9.6594,0.9609,0.2714,-0.0040,-0.0037,-0.0010,1.0000,0.2415,0.0238,0.0076
21316,Left,2,-0.0346,0.0865,-0.2545,0.9626,-0.0014,-0.6017,-0.1028,-1.6586,0.9744,-0.5887,-3.3448,-0.9718,8.7551,-0.0000,-0.0075,-0.0013,1.0000,-0.0853,-0.0242,0.2182
21316,Right,2,0.2050,0.0366,-0.6207,0.7559,-0.3075,-0.1693,-0.1262,-0.1420,0.2088,-0.0696,-3.2597,2.5108,8.8353,-0.0038,-0.0021,-0.0016,1.0000,-0.0819,0.0637,0.2205
21317,Pelvis,2,-0.3900,-0.5778,-0.4591,0.5506,-0.2869,-0.3194,-0.0595,0.1392,-0.1606,-0.0806,9.6752,1.0663,0.1152,-0.0036,-0.0040,-0.0007,1.0000,0.2419,0.0265,0.0037
21317,Left,2,-0.0351,0.0820,-0.2565,0.9624,0.0834,-0.3347,-0.1672,-1.6597,1.2522,-1.1142,-3.2976,-0.6794,8.2856,0.0010,-0.0042,-0.0021,1.0000,-0.0833,-0.0170,0.2068
21317,Right,2,0.2010,0.0378,-0.6219,0.7559,-0.2956,-0.1490,-0.1152,-0.0428,0.0934,-0.1107,-3.0910,2.5012,8.8504,-0.0037,-0.0019,-0.0014,1.0000,-0.0776,0.0635,0.2209
21318,Pelvis,2,-0.3935,-0.5789,-0.4595,0.5468,-0.2486,-0.3407,-0.0264,0.1785,-0.1980,-0.0460,9.7074,1.1078,-0.0036,-0.0031,-0.0043,-0.0003,1.0000,0.2427,0.0276,0.0009
21318,Left,2,-0.0352,0.0807,-0.2591,0.9618,0.0470,-0.0672,-0.2076,-1.9210,1.6020,-0.7128,-3.7030,-0.5543,8.6629,0.0006,-0.0008,-0.0026,1.0000,-0.0928,-0.0137,0.2165
21318,Right,2,0.1971,0.0406,-0.6233,0.7557,-0.3634,-0.0566,-0.1554,0.0345,0.1355,-0.1191,-3.0965,2.4954,8.8414,-0.0045,-0.0007,-0.0019,1.0000,-0.0774,0.0635,0.2207
21319,Pelvis,2,-0.3967,-0.5799,-0.4595,0.5433,-0.2156,-0.3185,-0.0078,0.2507,-0.3209,0.0513,9.8018,1.1593,-0.2134,-0.0027,-0.0040,-0.0001,1.0000,0.2451,0.0289,-0.0044
21319,Left,2,-0.0362,0.0785,-0.2622,0.9611,-0.0036,-0.1659,-0.2661,-3.1479,2.2156,2.2047,-5.4185,-0.9760,11.3545,-0.0000,-0.0021,-0.0033,1.0000,-0.1361,-0.0239,0.2836
21319,Right,2,0.1931,0.0442,-0.6246,0.7554,-0.4090,-0.0060,-0.1716,-0.0740,0.1175,0.0433,-3.1572,2.3296,9.0425,-0.0051,-0.0001,-0.0021,1.0000,-0.0788,0.0596,0.2258
21320,Pelvis,2,-0.3994,-0.5807,-0.4594,0.5406,-0.1680,-0.2635,0.0043,0.2731,-0.3883,0.1390,9.8874,1.1744,-0.3494,-0.0021,-0.0033,0.0001,1.0000,0.2472,0.0294,-0.0080
21320,Left,2,-0.0384,0.0672,-0.2664,0.9608,0.1063,-0.8851,-0.3683,-3.2661,2.1116,1.6156,-5.2332,-1.0920,10.8240,0.0013,-0.0111,-0.0046,0.9999,-0.1339,-0.0270,0.2691
21320,Right,2,0.1885,0.0482,-0.6261,0.7551,-0.4695,-0.0125,-0.1927,-0.0362,0.2801,0.0470,-3.3099,2.2763,9.0088,-0.0059,-0.0002,-0.0024,1.0000,-0.0826,0.0584,0.2249
21321,Pelvis,2,-0.4012,-0.5815,-0.4592,0.5386,-0.0987,-0.2033,-0.0029,0.2083,-0.3524,0.1912,9.9422,1.1285,-0.3517,-0.0012,-0.0025,-0.0000,1.0000,0.2486,0.0282,-0.0082
21321,Left,2,-0.0400,0.0564,-0.2696,0.9605,0.1392,-0.8444,-0.2938,-1.7295,2.0581,-2.2838,-3.2729,0.0564,7.2937,0.0017,-0.0106,-0.0037,0.9999,-0.0837,0.0014,0.1815
21321,Right,2,0.1840,0.0520,-0.6274,0.7548,-0.4413,-0.0184,-0.1724,-0.3016,0.0924,-0.0242,-3.1765,1.8593,9.0756,-0.0055,-0.0002,-0.0022,1.0000,-0.0794,0.0479,0.2266
21322,Pelvis,2,-0.4027,-0.5822,-0.4588,0.5369,-0.0723,-0.1714,0.0024,0.3660,-0.3027,0.4636,10.1945,1.3221,-0.3887,-0.0009,-0.0021,0.0000,1.0000,0.2549,0.0331,-0.0092
21322,Left,2,-0.0420,0.0512,-0.2710,0.9603,-0.0195,-0.4225,-0.1291,-2.3587,2.1102,-1.6564,-3.7674,-0.2997,7.8904,-0.0002,-0.0053,-0.0016,1.0000,-0.0952,-0.0073,0.1968
21322,Right,2,0.1817,0.0548,-0.6282,0.7546,-0.2690,0.0383,-0.1177,-0.5253,0.0678,-0.0301,-3.2074,1.5456,9.1270,-0.0034,0.0005,-0.0015,1.0000,-0.0800,0.0395,0.2281
21323,Pelvis,2,-0.4046,-0.5827,-0.4582,0.5355,-0.0805,-0.1785,0.0498,0.5374,-0.1843,0.5135,10.2236,1.5170,-0.3605,-0.0010,-0.0022,0.0006,1.0000,0.2556,0.0381,-0.0085
21323,Left,2,-0.0434,0.0480,-0.2714,0.9603,-0.0246,-0.2725,-0.0464,-2.7940,1.9575,-1.0796,-4.0271,-0.7325,8.4351,-0.0003,-0.0034,-0.0006,1.0000,-0.1014,-0.0182,0.2105
21323,Right,2,0.1810,0.0570,-0.6285,0.7543,-0.1429,0.0925,-0.0796,-0.3126,0.1463,-0.0109,-3.2621,1.7116,9.0897,-0.0018,0.0012,-0.0010,1.0000,-0.0812,0.0433,0.2273
21324,Pelvis,2,-0.4067,-0.5830,-0.4575,0.5343,-0.0835,-0.1600,0.0793,0.4431,-0.2083,0.3695,10.0908,1.3910,-0.3993,-0.0010,-0.0020,0.0010,1.0000,0.2523,0.0350,-0.0095
21324,Left,2,-0.0447,0.0456,-0.2712,0.9604,-0.0325,-0.2019,0.0054,-2.8601,2.2168,-0.6476,-4.1964,-0.6052,8.8948,-0.0004,-0.0025,0.0001,1.0000,-0.1055,-0.0150,0.2221
21324,Right,2,0.1811,0.0594,-0.6288,0.7538,-0.1053,0.1377,-0.0816,-0.0827,0.0817,-0.0085,-3.1865,1.8904,9.0779,-0.0013,0.0017,-0.0010,1.0000,-0.0792,0.0476,0.2270
21325,Pelvis,2,-0.4085,-0.5828,-0.4569,0.5335,-0.0822,-0.1189,0.0889,0.4391,-0.2360,0.2935,10.0172,1.3532,-0.4570,-0.0010,-0.0015,0.0011,1.0000,0.2504,0.0341,-0.0111
21325,Left,2,-0.0460,0.0429,-0.2702,0.9607,-0.0298,-0.2404,0.0664,-2.8767,2.0202,-0.8576,-4.0455,-0.7636,8.6949,-0.0004,-0.0030,0.0008,1.0000,-0.1018,-0.0191,0.2171
21325,Right,2,0.1815,0.0624,-0.6290,0.7533,-0.1135,0.2009,-0.0880,-0.1296,0.0803,-0.0826,-3.2138,1.7982,9.0076,-0.0014,0.0025,-0.0011,1.0000,-0.0797,0.0454,0.2253
21326,Pelvis,2,-0.4102,-0.5824,-0.4565,0.5330,-0.0832,-0.0734,0.1004,0.5644,-0.1589,0.3630,10.0754,1.4780,-0.4359,-0.0010,-0.0009,0.0013,1.0000,0.2518,0.0373,-0.0107
21326,Left,2,-0.0467,0.0421,-0.2687,0.9612,-0.0282,-0.0809,0.1198,-2.2962,1.5954,-1.8584,-3.2396,-0.7143,7.7514,-0.0004,-0.0010,0.0015,1.0000,-0.0812,-0.0179,0.1937
21326,Right,2,0.1830,0.0661,-0.6291,0.7526,-0.0874,0.2984,-0.0877,-0.2679,-0.0105,-0.0327,-3.2344,1.6305,9.0885,-0.0011,0.0037,-0.0011,1.0000,-0.0800,0.0411,0.2275
21327,Pelvis,2,-0.4121,-0.5815,-0.4563,0.5328,-0.1038,-0.0498,0.1182,0.7634,-0.0703,0.4642,10.1599,1.6757,-0.4130,-0.0013,-0.0006,0.0015,1.0000,0.2539,0.0423,-0.0102
21327,Left,2,-0.0475,0.0486,-0.2677,0.9611,-0.1923,0.4766,0.0941,-3.3408,1.3013,-2.6242,-3.9696,-1.4261,6.8365,-0.0024,0.0060,0.0012,1.0000,-0.0982,-0.0354,0.1716
21327,Right,2,0.1861,0.0701,-0.6289,0.7516,0.0115,0.3997,-0.0860,-0.2280,-0.1019,-0.0232,-3.2287,1.6421,9.0982,0.0001,0.0050,-0.0011,1.0000,-0.0795,0.0411,0.2279
21328,Pelvis,2,-0.4139,-0.5804,-0.4560,0.5327,-0.1043,-0.0284,0.1332,0.7905,-0.0549,0.4262,10.1241,1.6724,-0.4100,-0.0013,-0.0004,0.0017,1.0000,0.2530,0.0422,-0.0102
21328,Left,2,-0.0479,0.0560,-0.2691,0.9603,-0.1742,0.5628,-0.0996,-2.3346,1.1266,1.5977,-3.4291,-1.6007,11.0724,-0.0022,0.0070,-0.0012,1.0000,-0.0838,-0.0393,0.2775
21328,Right,2,0.1911,0.0747,-0.6285,0.7502,0.0894,0.5419,-0.0980,-0.2160,-0.1989,0.0069,-3.2587,1.6495,9.1199,0.0011,0.0068,-0.0012,1.0000,-0.0799,0.0411,0.2286
21329,Pelvis,2,-0.4161,-0.5792,-0.4558,0.5327,-0.1238,-0.0345,0.1546,0.7597,-0.1047,0.3293,10.0359,1.5883,-0.4532,-0.0015,-0.0004,0.0019,1.0000,0.2508,0.0402,-0.0113
21329,Left,2,-0.0511,0.0598,-0.2707,0.9594,-0.3097,0.2237,-0.1397,0.3581,0.1021,0.1625,-0.5940,-0.9908,9.9151,-0.0039,0.0028,-0.0017,1.0000,-0.0142,-0.0238,0.2480
21329,Right,2,0.1977,0.0799,-0.6282,0.7483,0.1639,0.6587,-0.1231,-0.1955,-0.1357,0.0706,-3.4766,1.7094,9.0956,0.0020,0.0082,-0.0015,1.0000,-0.0850,0.0424,0.2282
21330,Pelvis,2,-0.4180,-0.5779,-0.4556,0.5327,-0.1150,-0.0178,0.1432,0.6806,-0.2995,0.2913,10.0107,1.4277,-0.6254,-0.0014,-0.0002,0.0018,1.0000,0.2502,0.0361,-0.0156
21330,Left,2,-0.0525,0.0652,-0.2713,0.9589,-0.2088,0.3844,-0.0395,-0.3347,-0.4294,0.0893,-0.9675,-1.8564,9.6936,-0.0026,0.0048,-0.0005,1.0000,-0.0230,-0.0458,0.2426
21330,Right,2,0.2052,0.0856,-0.6277,0.7460,0.2021,0.7422,-0.1290,-0.2199,0.0131,0.0137,-3.7590,1.7236,8.9168,0.0025,0.0093,-0.0016,1.0000,-0.0918,0.0427,0.2239
21331,Pelvis,2,-0.4196,-0.5768,-0.4555,0.5328,-0.0981,-0.0063,0.1289,0.6924,-0.3259,0.1979,9.9211,1.3944,-0.6521,-0.0012,-0.0001,0.0016,1.0000,0.2480,0.0352,-0.0163
21331,Left,2,-0.0512,0.0696,-0.2705,0.9588,0.0200,0.3607,0.0786,-0.4205,-0.6216,-0.5853,-0.9628,-1.9974,8.9885,0.0003,0.0045,0.0010,1.0000,-0.0230,-0.0500,0.2248
21331,Right,2,0.2132,0.0919,-0.6269,0.7437,0.2033,0.7988,-0.1230,-0.1950,0.1363,0.0493,-4.0554,1.8027,8.8104,0.0025,0.0100,-0.0015,0.9999,-0.0991,0.0447,0.2214
21332,Pelvis,2,-0.4207,-0.5756,-0.4552,0.5333,-0.0564,0.0293,0.1265,0.6682,-0.3615,0.0591,9.7890,1.3231,-0.6737,-0.0007,0.0004,0.0016,1.0000,0.2447,0.0335,-0.0170
21332,Left,2,-0.0493,0.0751,-0.2705,0.9585,0.0400,0.4582,0.0306,-0.3754,-0.2204,0.1267,-1.3109,-1.7255,9.7101,0.0005,0.0057,0.0004,1.0000,-0.0314,-0.0433,0.2429
21332,Right,2,0.2214,0.0984,-0.6260,0.7413,0.1934,0.8283,-0.1198,-0.1714,0.1562,0.0446,-4.2504,1.8575,8.7010,0.0024,0.0104,-0.0015,0.9999,-0.1039,0.0461,0.2187
21333,Pelvis,2,-0.4215,-0.5743,-0.4550,0.5344,-0.0274,0.0705,0.1330,0.6568,-0.4085,-0.0245,9.7114,1.2655,-0.7026,-0.0003,0.0009,0.0017,1.0000,0.2427,0.0320,-0.0178
21333,Left,2,-0.0472,0.0791,-0.2699,0.9585,0.0816,0.3511,0.0682,-0.5141,0.4052,0.4010,-1.8913,-1.2890,9.9754,0.0010,0.0044,0.0009,1.0000,-0.0462,-0.0325,0.2496
21333,Right,2,0.2295,0.1050,-0.6248,0.7388,0.1911,0.8368,-0.1113,-0.2540,0.2223,0.0196,-4.4997,1.8082,8.5601,0.0024,0.0105,-0.0014,0.9999,-0.1102,0.0448,0.2153
21334,Pelvis,2,-0.4216,-0.5728,-0.4547,0.5361,0.0199,0.1305,0.1379,0.5571,-0.4210,0.0305,9.7792,1.1386,-0.6686,0.0002,0.0016,0.0017,1.0000,0.2444,0.0289,-0.0171
21334,Left,2,-0.0446,0.0825,-0.2691,0.9585,0.1358,0.3064,0.0952,-0.5423,-0.1947,0.0994,-1.6472,-1.7465,9.6342,0.0017,0.0038,0.0012,1.0000,-0.0402,-0.0441,0.2409
21334,Right,2,0.2375,0.1119,-0.6234,0.7365,0.1665,0.8548,-0.1004,-0.0493,0.1120,-0.0166,-4.5319,2.0125,8.4495,0.0021,0.0107,-0.0013,0.9999,-0.1110,0.0500,0.2125
21335,Pelvis,2,-0.4211,-0.5713,-0.4544,0.5384,0.0563,0.1806,0.1319,0.5802,-0.3415,0.0708,9.8234,1.1502,-0.5608,0.0007,0.0023,0.0016,1.0000,0.2455,0.0292,-0.0146
21335,Left,2,-0.0424,0.0833,-0.2686,0.9587,0.1687,0.0970,0.0569,-0.9913,0.3236,1.0484,-2.4778,-1.6185,10.5020,0.0021,0.0012,0.0007,1.0000,-0.0616,-0.0411,0.2625
21335,Right,2,0.2458,0.1192,-0.6219,0.7339,0.1587,0.8917,-0.1017,-0.1572,0.2519,0.0470,-4.8920,1.9581,8.3390,0.0020,0.0111,-0.0013,0.9999,-0.1199,0.0487,0.2099
21336,Pelvis,2,-0.4204,-0.5698,-0.4541,0.5407,0.0773,0.1881,0.1245,0.5633,-0.3178,0.1243,9.8835,1.1121,-0.4914,0.0010,0.0024,0.0016,1.0000,0.2470,0.0282,-0.0128
21336,Left,2,-0.0406,0.0839,-0.2682,0.9589,0.1381,0.0802,0.0515,0.0243,-0.2629,-0.3125,-1.1556,-1.3939,9.3297,0.0017,0.0010,0.0006,1.0000,-0.0286,-0.0353,0.2332
21336,Right,2,0.2541,0.1276,-0.6203,0.7310,0.1210,0.9614,-0.1394,0.0087,-0.1261,0.0998,-4.7624,2.1046,8.4362,0.0015,0.0120,-0.0017,0.9999,-0.1164,0.0525,0.2124
21337,Pelvis,2,-0.4198,-0.5687,-0.4533,0.5431,0.1067,0.1606,0.1360,0.5910,-0.2775,0.1224,9.8848,1.1169,-0.4190,0.0013,0.0020,0.0017,1.0000,0.2470,0.0284,-0.0109
21337,Left,2,-0.0374,0.0855,-0.2674,0.9591,0.2178,0.1821,0.0905,-0.1977,-0.6239,-0.4199,-1.1738,-1.7618,9.1745,0.0027,0.0023,0.0011,1.0000,-0.0288,-0.0447,0.2293
21337,Right,2,0.2626,0.1369,-0.6185,0.7278,0.0851,1.0397,-0.1593,-0.1083,-0.1701,0.1267,-4.9799,1.9950,8.3701,0.0011,0.0130,-0.0020,0.9999,-0.1217,0.0499,0.2109
21338,Pelvis,2,-0.4191,-0.5679,-0.4519,0.5455,0.1507,0.1225,0.1459,0.5288,-0.2711,0.1101,9.8810,1.0231,-0.3674,0.0019,0.0015,0.0018,1.0000,0.2470,0.0260,-0.0095
21338,Left,2,-0.0331,0.0871,-0.2663,0.9594,0.3084,0.2038,0.1271,-0.3097,-0.0633,0.0506,-1.6777,-1.3325,9.6330,0.0039,0.0025,0.0016,1.0000,-0.0413,-0.0343,0.2408
21338,Right,2,0.2716,0.1477,-0.6164,0.7242,0.0481,1.1543,-0.1831,-0.0200,-0.1165,0.0338,-5.1929,2.0576,8.1102,0.0006,0.0144,-0.0023,0.9999,-0.1268,0.0516,0.2046
21339,Pelvis,2,-0.4181,-0.5678,-0.4501,0.5480,0.2115,0.0975,0.1406,0.3216,-0.3309,0.1541,9.9411,0.7753,-0.3531,0.0026,0.0012,0.0018,1.0000,0.2485,0.0198,-0.0091
21339,Left,2,-0.0296,0.0878,-0.2654,0.9597,0.2631,0.1174,0.0991,-0.3544,0.1761,0.4221,-1.9385,-1.1197,9.9948,0.0033,0.0015,0.0012,1.0000,-0.0481,-0.0289,0.2498
21339,Right,2,0.2812,0.1598,-0.6141,0.7199,0.0271,1.2787,-0.2309,-0.0818,-0.0189,0.0415,-5.5425,1.9873,7.9026,0.0003,0.0160,-0.0029,0.9999,-0.1352,0.0500,0.1998
21340,Pelvis,2,-0.4172,-0.5684,-0.4475,0.5501,0.2580,0.0238,0.1341,0.1745,-0.1675,0.1062,9.9003,0.6369,-0.1488,0.0032,0.0003,0.0017,1.0000,0.2475,0.0163,-0.0037
21340,Left,2,-0.0267,0.0885,-0.2645,0.9600,0.2190,0.1070,0.0972,-0.1145,-0.2095,-0.0706,-1.4940,-1.2189,9.5524,0.0027,0.0013,0.0012,1.0000,-0.0370,-0.0312,0.2388
21340,Right,2,0.2915,0.1738,-0.6114,0.7148,-0.0056,1.4342,-0.2811,0.2037,-0.4168,0.0053,-5.4315,2.1893,7.8945,-0.0001,0.0179,-0.0035,0.9998,-0.1320,0.0552,0.1997
21341,Pelvis,2,-0.4164,-0.5694,-0.4446,0.5521,0.2796,-0.0196,0.1361,0.0466,0.1069,0.1721,9.9690,0.5539,0.1448,0.0035,-0.0002,0.0017,1.0000,0.2492,0.0143,0.0037
21341,Left,2,-0.0249,0.0900,-0.2636,0.9601,0.1141,0.1501,0.0859,-0.1212,-0.0510,-0.1470,-1.6031,-1.0392,9.4759,0.0014,0.0019,0.0011,1.0000,-0.0396,-0.0264,0.2369
21341,Right,2,0.3034,0.1897,-0.6086,0.7083,0.0139,1.6468,-0.3633,0.0248,-0.1899,0.1917,-6.0712,2.0253,7.6927,0.0002,0.0206,-0.0045,0.9998,-0.1475,0.0513,0.1954
21342,Pelvis,2,-0.4158,-0.5705,-0.4416,0.5538,0.2641,-0.0446,0.1386,-0.1786,0.5448,0.0976,9.8991,0.4163,0.6133,0.0033,-0.0006,0.0017,1.0000,0.2475,0.0108,0.0155
21342,Left,2,-0.0238,0.0920,-0.2633,0.9600,0.0559,0.1663,0.0335,-0.3121,0.0739,0.1574,-1.9176,-1.0375,9.7341,0.0007,0.0021,0.0004,1.0000,-0.0474,-0.0261,0.2434
21342,Right,2,0.3165,0.2081,-0.6055,0.6999,0.0114,1.8844,-0.4762,0.3447,-0.6497,0.5647,-6.2755,2.3144,7.9696,0.0001,0.0236,-0.0060,0.9997,-0.1518,0.0587,0.2029
21343,Pelvis,2,-0.4154,-0.5711,-0.4391,0.5555,0.2153,-0.0147,0.1377,-0.4600,0.7234,-0.1203,9.6919,0.1551,0.8493,0.0027,-0.0002,0.0017,1.0000,0.2423,0.0042,0.0213
21343,Left,2,-0.0235,0.0942,-0.2634,0.9598,-0.0047,0.1740,-0.0050,-0.0398,-0.0006,-0.0919,-1.6512,-0.9385,9.5335,-0.0001,0.0022,-0.0001,1.0000,-0.0408,-0.0234,0.2384
21343,Right,2,0.3301,0.2296,-0.6025,0.6894,-0.0605,2.1138,-0.6657,0.4107,-1.1167,1.3646,-6.9166,2.4004,8.5310,-0.0008,0.0264,-0.0083,0.9996,-0.1667,0.0616,0.2177
