PacketId,Role,StatusWord,Qx,Qy,Qz,Qw,Gx,Gy,Gz,FreeAx,FreeAy,FreeAz,Ax,Ay,Az,DQx,DQy,DQz,DQw,DVx,DVy,DVz
267,Pelvis,0,-0.1281,-0.6363,-0.1517,0.7455,0.0006,-0.0000,-0.0024,-0.0000,-0.0000,-0.0127,9.6778,0.0204,1.5428,0.0000,-0.0000,-0.0000,1.0000,0.2419,0.0005,0.0386
268,Right,0,0.0096,0.0118,-0.3920,0.9198,0.0122,0.0006,0.0055,0.0000,0.0000,-0.1207,-0.2837,0.0825,9.6874,0.0002,0.0000,0.0001,1.0000,-0.0071,0.0020,0.2422
268,Pelvis,0,-0.1281,-0.6363,-0.1517,0.7455,-0.0000,-0.0000,-0.0018,-0.0048,0.0133,-0.0111,9.6778,0.0306,1.5526,-0.0000,-0.0000,-0.0000,1.0000,0.2419,0.0008,0.0388
268,Left,0,0.0133,0.0087,-0.8009,0.5986,0.0012,0.0037,0.0024,0.0000,0.0000,9.6600,-0.3094,0.0203,9.7314,0.0000,0.0001,0.0001,1.0000,-0.0154,0.0010,0.4866
269,Right,0,0.0097,0.0118,-0.3919,0.9199,0.0128,0.0018,0.0055,0.0018,-0.0116,-0.1211,-0.2742,0.0758,9.6874,0.0002,0.0000,0.0001,1.0000,-0.0069,0.0019,0.2422
269,Pelvis,0,-0.1280,-0.6363,-0.1517,0.7455,0.0018,0.0000,-0.0031,0.0016,-0.0000,-0.0031,9.6875,0.0215,1.5428,0.0000,0.0000,-0.0000,1.0000,0.2422,0.0005,0.0386
269,Left,0,0.0134,0.0087,-0.8008,0.5987,0.0024,0.0031,0.0031,-0.0003,-0.0033,-0.0716,-0.3058,0.0209,9.7362,0.0000,0.0000,0.0000,1.0000,-0.0076,0.0005,0.2434
270,Right,0,0.0099,0.0117,-0.3919,0.9199,0.0122,0.0012,0.0067,0.0089,-0.0046,-0.1308,-0.2746,0.0886,9.6776,0.0002,0.0000,0.0001,1.0000,-0.0069,0.0022,0.2419
270,Pelvis,0,-0.1280,-0.6363,-0.1517,0.7454,0.0018,-0.0018,-0.0012,0.0002,0.0006,-0.0127,9.6778,0.0221,1.5426,0.0000,-0.0000,-0.0000,1.0000,0.2419,0.0005,0.0386
270,Left,0,0.0134,0.0087,-0.8008,0.5987,0.0018,0.0043,0.0031,0.0025,0.0066,-0.0811,-0.3164,0.0215,9.7264,0.0000,0.0001,0.0000,1.0000,-0.0079,0.0005,0.2432
271,Right,0,0.0100,0.0117,-0.3918,0.9199,0.0116,0.0012,0.0061,-0.0120,-0.0111,-0.1306,-0.2846,0.0720,9.6776,0.0001,0.0000,0.0001,1.0000,-0.0071,0.0018,0.2419
271,Pelvis,0,-0.1280,-0.6363,-0.1517,0.7454,0.0012,-0.0006,-0.0031,-0.0214,-0.0009,-0.0096,9.6778,0.0129,1.5618,0.0000,-0.0000,-0.0000,1.0000,0.2419,0.0003,0.0390
271,Left,0,0.0134,0.0087,-0.8008,0.5987,0.0012,0.0031,0.0031,-0.0005,-0.0033,-0.0619,-0.3076,0.0219,9.7459,0.0000,0.0000,0.0000,1.0000,-0.0077,0.0005,0.2436
272,Right,0,0.0102,0.0116,-0.3917,0.9199,0.0122,0.0006,0.0055,0.0020,-0.0116,-0.1211,-0.2751,0.0847,9.6873,0.0002,0.0000,0.0001,1.0000,-0.0069,0.0021,0.2422
272,Pelvis,0,-0.1279,-0.6363,-0.1517,0.7454,0.0018,0.0006,-0.0024,-0.0036,-0.0084,-0.0127,9.6778,0.0136,1.5423,0.0000,0.0000,-0.0000,1.0000,0.2419,0.0003,0.0386
272,Left,0,0.0135,0.0087,-0.8008,0.5988,0.0024,0.0037,0.0043,-0.0070,0.0091,-0.0713,-0.3181,0.0126,9.7361,0.0000,0.0000,0.0001,1.0000,-0.0079,0.0003,0.2434
273,Right,0,0.0103,0.0116,-0.3917,0.9200,0.0110,0.0012,0.0043,-0.0048,-0.0045,-0.1208,-0.2851,0.0875,9.6873,0.0001,0.0000,0.0001,1.0000,-0.0071,0.0022,0.2422
273,Pelvis,0,-0.1279,-0.6364,-0.1517,0.7454,0.0006,-0.0006,-0.0024,-0.0035,-0.0084,-0.0127,9.6778,0.0143,1.5423,0.0000,-0.0000,-0.0000,1.0000,0.2419,0.0003,0.0386
273,Left,0,0.0136,0.0087,-0.8007,0.5988,0.0031,0.0031,0.0037,-0.0126,-0.0100,-0.0622,-0.2994,0.0133,9.7459,0.0000,0.0000,0.0000,1.0000,-0.0075,0.0003,0.2436
274,Right,0,0.0105,0.0116,-0.3916,0.9200,0.0134,0.0012,0.0067,-0.0049,-0.0186,-0.1114,-0.2756,0.0808,9.6970,0.0002,0.0000,0.0001,1.0000,-0.0069,0.0020,0.2424
274,Pelvis,0,-0.1279,-0.6364,-0.1517,0.7454,0.0012,0.0006,-0.0018,0.0129,-0.0152,-0.0254,9.6681,0.0148,1.5228,0.0000,0.0000,-0.0000,1.0000,0.2417,0.0004,0.0381
274,Left,0,0.0136,0.0087,-0.8007,0.5988,0.0018,0.0031,0.0037,-0.0097,-0.0003,-0.0717,-0.3099,0.0139,9.7361,0.0000,0.0000,0.0000,1.0000,-0.0077,0.0003,0.2434
275,Right,0,0.0106,0.0115,-0.3915,0.9200,0.0116,0.0006,0.0061,-0.0258,-0.0103,-0.1402,-0.2953,0.0740,9.6677,0.0001,0.0000,0.0001,1.0000,-0.0074,0.0018,0.2417
275,Pelvis,0,-0.1279,-0.6364,-0.1518,0.7454,0.0006,-0.0024,-0.0031,-0.0034,-0.0082,-0.0127,9.6779,0.0154,1.5421,0.0000,-0.0000,-0.0000,1.0000,0.2419,0.0004,0.0386
275,Left,0,0.0136,0.0087,-0.8007,0.5989,0.0024,0.0037,0.0024,-0.0096,-0.0003,-0.0717,-0.3107,0.0145,9.7361,0.0000,0.0000,0.0000,1.0000,-0.0078,0.0004,0.2434
276,Right,0,0.0107,0.0115,-0.3915,0.9201,0.0128,0.0006,0.0061,-0.0121,-0.0245,-0.1310,-0.2759,0.0770,9.6775,0.0002,0.0000,0.0001,1.0000,-0.0069,0.0019,0.2419
276,Pelvis,0,-0.1278,-0.6364,-0.1518,0.7454,0.0018,-0.0012,-0.0024,-0.0161,-0.0133,-0.0112,9.6779,0.0064,1.5514,0.0000,-0.0000,-0.0000,1.0000,0.2419,0.0002,0.0388
276,Left,0,0.0137,0.0087,-0.8007,0.5989,0.0018,0.0031,0.0024,0.0063,-0.0157,-0.0524,-0.3018,0.0345,9.7556,0.0000,0.0000,0.0000,1.0000,-0.0075,0.0009,0.2439
277,Right,0,0.0109,0.0114,-0.3914,0.9201,0.0128,0.0012,0.0049,-0.0189,-0.0310,-0.1311,-0.2762,0.0704,9.6775,0.0002,0.0000,0.0001,1.0000,-0.0069,0.0017,0.2419
277,Pelvis,0,-0.1278,-0.6364,-0.1518,0.7454,0.0006,-0.0006,-0.0018,-0.0045,0.0138,-0.0111,9.6780,0.0363,1.5512,0.0000,-0.0000,-0.0000,1.0000,0.2419,0.0009,0.0388
277,Left,0,0.0137,0.0087,-0.8006,0.5989,0.0024,0.0024,0.0043,-0.0093,0.0001,-0.0814,-0.3122,0.0155,9.7263,0.0000,0.0000,0.0001,1.0000,-0.0078,0.0004,0.2432
278,Right,0,0.0110,0.0114,-0.3914,0.9201,0.0116,0.0012,0.0055,-0.0184,-0.0169,-0.1307,-0.2862,0.0832,9.6774,0.0001,0.0000,0.0001,1.0000,-0.0072,0.0020,0.2419
278,Pelvis,0,-0.1278,-0.6364,-0.1518,0.7454,-0.0006,-0.0006,-0.0024,-0.0084,-0.0162,-0.0224,9.6682,0.0075,1.5413,-0.0000,-0.0000,-0.0000,1.0000,0.2417,0.0002,0.0385
278,Left,0,0.0138,0.0087,-0.8006,0.5990,0.0024,0.0043,0.0024,-0.0027,-0.0123,-0.0719,-0.3033,0.0259,9.7360,0.0000,0.0001,0.0000,1.0000,-0.0076,0.0006,0.2434
279,Right,0,0.0111,0.0113,-0.3913,0.9201,0.0122,0.0006,0.0049,-0.0318,-0.0164,-0.1207,-0.2962,0.0764,9.6872,0.0002,0.0000,0.0001,1.0000,-0.0074,0.0019,0.2422
279,Pelvis,0,-0.1278,-0.6364,-0.1518,0.7454,-0.0000,-0.0006,-0.0031,-0.0105,-0.0045,-0.0015,9.6878,0.0179,1.5509,-0.0000,-0.0000,-0.0000,1.0000,0.2422,0.0004,0.0388
279,Left,0,0.0138,0.0087,-0.8006,0.5990,0.0006,0.0049,0.0024,-0.0120,-0.0097,-0.0622,-0.3044,0.0165,9.7457,0.0000,0.0001,0.0000,1.0000,-0.0076,0.0004,0.2436
280,Right,0,0.0112,0.0113,-0.3912,0.9202,0.0122,0.0006,0.0067,-0.0318,-0.0295,-0.1309,-0.2866,0.0696,9.6774,0.0002,0.0000,0.0001,1.0000,-0.0072,0.0017,0.2419
280,Pelvis,0,-0.1278,-0.6364,-0.1518,0.7454,0.0012,0.0000,-0.0018,-0.0118,-0.0037,-0.0112,9.6780,0.0185,1.5508,0.0000,0.0000,-0.0000,1.0000,0.2420,0.0005,0.0388
280,Left,0,0.0139,0.0087,-0.8006,0.5990,0.0012,0.0037,0.0055,-0.0025,-0.0123,-0.0622,-0.3054,0.0266,9.7457,0.0000,0.0000,0.0001,1.0000,-0.0076,0.0007,0.2436
281,Right,0,0.0113,0.0113,-0.3912,0.9202,0.0116,0.0018,0.0049,-0.0241,-0.0365,-0.1116,-0.2771,0.0726,9.6969,0.0001,0.0000,0.0001,1.0000,-0.0069,0.0018,0.2424
281,Pelvis,0,-0.1278,-0.6364,-0.1518,0.7454,0.0024,0.0000,-0.0031,-0.0166,-0.0120,-0.0208,9.6683,0.0094,1.5508,0.0000,0.0000,-0.0000,1.0000,0.2417,0.0002,0.0388
281,Left,0,0.0139,0.0087,-0.8006,0.5990,0.0024,0.0037,0.0006,-0.0087,0.0003,-0.0717,-0.3161,0.0173,9.7359,0.0000,0.0000,0.0000,1.0000,-0.0079,0.0004,0.2434
282,Right,0,0.0114,0.0112,-0.3911,0.9202,0.0128,-0.0006,0.0061,-0.0162,-0.0149,-0.1210,-0.2870,0.0951,9.6870,0.0002,-0.0000,0.0001,1.0000,-0.0072,0.0023,0.2422
282,Pelvis,0,-0.1278,-0.6364,-0.1518,0.7454,0.0000,-0.0012,-0.0018,-0.0237,-0.0086,-0.0097,9.6781,0.0100,1.5604,0.0000,-0.0000,-0.0000,1.0000,0.2420,0.0002,0.0390
282,Left,0,0.0139,0.0087,-0.8005,0.5991,0.0018,0.0031,0.0043,-0.0207,-0.0062,-0.0720,-0.3072,0.0080,9.7359,0.0000,0.0000,0.0001,1.0000,-0.0077,0.0002,0.2434
283,Right,0,0.0115,0.0112,-0.3910,0.9202,0.0116,0.0012,0.0061,-0.0295,-0.0277,-0.1211,-0.2871,0.0785,9.6871,0.0001,0.0000,0.0001,1.0000,-0.0072,0.0019,0.2422
283,Pelvis,0,-0.1277,-0.6364,-0.1518,0.7454,0.0012,0.0006,-0.0024,-0.0159,0.0098,-0.0096,9.6781,0.0301,1.5603,0.0000,0.0000,-0.0000,1.0000,0.2420,0.0007,0.0390
283,Left,0,0.0140,0.0088,-0.8005,0.5991,0.0012,0.0037,0.0037,-0.0108,-0.0088,-0.0720,-0.3080,0.0182,9.7359,0.0000,0.0000,0.0000,1.0000,-0.0077,0.0005,0.2434
284,Right,0,0.0116,0.0111,-0.3910,0.9203,0.0128,0.0006,0.0055,-0.0426,-0.0262,-0.1306,-0.2971,0.0717,9.6774,0.0002,0.0000,0.0001,1.0000,-0.0074,0.0018,0.2419
284,Pelvis,0,-0.1277,-0.6364,-0.1518,0.7454,0.0006,-0.0006,-0.0031,-0.0051,-0.0156,-0.0127,9.6781,0.0113,1.5408,0.0000,-0.0000,-0.0000,1.0000,0.2420,0.0003,0.0385
284,Left,0,0.0140,0.0088,-0.8005,0.5991,0.0018,0.0037,0.0031,-0.0076,0.0007,-0.0619,-0.3186,0.0186,9.7456,0.0000,0.0000,0.0000,1.0000,-0.0080,0.0005,0.2436
285,Right,0,0.0117,0.0111,-0.3909,0.9203,0.0128,0.0012,0.0061,-0.0418,-0.0393,-0.1212,-0.2875,0.0651,9.6872,0.0002,0.0000,0.0001,1.0000,-0.0072,0.0016,0.2422
285,Pelvis,0,-0.1277,-0.6364,-0.1518,0.7454,0.0006,-0.0006,-0.0018,-0.0007,-0.0064,-0.0127,9.6781,0.0217,1.5407,0.0000,-0.0000,-0.0000,1.0000,0.2420,0.0005,0.0385
285,Left,0,0.0140,0.0088,-0.8004,0.5992,0.0012,0.0031,0.0037,-0.0033,-0.0208,-0.0625,-0.2999,0.0288,9.7456,0.0000,0.0000,0.0000,1.0000,-0.0075,0.0007,0.2436
286,Right,0,0.0118,0.0111,-0.3909,0.9203,0.0116,0.0012,0.0067,-0.0270,-0.0241,-0.1504,-0.2878,0.0875,9.6577,0.0001,0.0000,0.0001,1.0000,-0.0072,0.0022,0.2414
286,Pelvis,0,-0.1277,-0.6364,-0.1518,0.7454,0.0012,-0.0012,-0.0024,-0.0104,-0.0021,-0.0208,9.6684,0.0222,1.5502,0.0000,-0.0000,-0.0000,1.0000,0.2417,0.0005,0.0388
286,Left,0,0.0140,0.0088,-0.8004,0.5992,0.0031,0.0037,0.0024,0.0027,-0.0015,-0.0716,-0.3202,0.0293,9.7357,0.0000,0.0000,0.0000,1.0000,-0.0080,0.0007,0.2434
287,Right,0,0.0118,0.0111,-0.3908,0.9203,0.0122,0.0012,0.0055,-0.0396,-0.0371,-0.1310,-0.2881,0.0710,9.6773,0.0002,0.0000,0.0001,1.0000,-0.0072,0.0017,0.2419
287,Pelvis,0,-0.1277,-0.6364,-0.1518,0.7454,0.0018,0.0000,-0.0012,-0.0015,-0.0056,-0.0224,9.6684,0.0227,1.5403,0.0000,0.0000,-0.0000,1.0000,0.2417,0.0006,0.0385
287,Left,0,0.0141,0.0088,-0.8004,0.5992,0.0012,0.0031,0.0031,-0.0095,-0.0080,-0.0622,-0.3113,0.0201,9.7455,0.0000,0.0000,0.0000,1.0000,-0.0078,0.0005,0.2436
288,Right,0,0.0119,0.0111,-0.3907,0.9204,0.0122,0.0018,0.0067,-0.0244,-0.0229,-0.1211,-0.2884,0.0936,9.6869,0.0002,0.0000,0.0001,1.0000,-0.0072,0.0023,0.2422
288,Pelvis,0,-0.1276,-0.6364,-0.1518,0.7454,-0.0006,-0.0006,-0.0012,-0.0165,-0.0208,-0.0112,9.6782,0.0035,1.5500,-0.0000,-0.0000,-0.0000,1.0000,0.2420,0.0001,0.0388
288,Left,0,0.0141,0.0088,-0.8004,0.5993,0.0006,0.0043,0.0037,-0.0187,-0.0044,-0.0817,-0.3122,0.0106,9.7260,0.0000,0.0001,0.0000,1.0000,-0.0078,0.0003,0.2431
289,Right,0,0.0120,0.0111,-0.3906,0.9204,0.0128,0.0018,0.0061,-0.0310,-0.0564,-0.1218,-0.2694,0.0673,9.6871,0.0002,0.0000,0.0001,1.0000,-0.0067,0.0016,0.2422
289,Pelvis,0,-0.1276,-0.6364,-0.1518,0.7454,0.0024,-0.0012,-0.0031,-0.0009,-0.0055,-0.0224,9.6684,0.0236,1.5400,0.0000,-0.0000,-0.0000,1.0000,0.2417,0.0006,0.0385
289,Left,0,0.0141,0.0088,-0.8003,0.5993,0.0031,0.0031,0.0037,-0.0183,-0.0040,-0.0720,-0.3131,0.0110,9.7357,0.0000,0.0000,0.0000,1.0000,-0.0078,0.0003,0.2434
290,Right,0,0.0121,0.0110,-0.3906,0.9204,0.0128,-0.0006,0.0061,-0.0294,-0.0414,-0.1117,-0.2793,0.0803,9.6968,0.0002,-0.0000,0.0001,1.0000,-0.0070,0.0020,0.2424
290,Pelvis,0,-0.1276,-0.6364,-0.1518,0.7454,0.0018,-0.0006,-0.0006,-0.0210,-0.0079,-0.0097,9.6782,0.0144,1.5593,0.0000,-0.0000,-0.0000,1.0000,0.2420,0.0004,0.0390
290,Left,0,0.0141,0.0088,-0.8003,0.5993,0.0018,0.0031,0.0018,-0.0090,-0.0072,-0.0524,-0.3139,0.0214,9.7552,0.0000,0.0000,0.0000,1.0000,-0.0078,0.0005,0.2439
291,Pelvis,0,-0.1276,-0.6364,-0.1518,0.7454,-0.0000,-0.0000,-0.0031,-0.0130,-0.0106,-0.0208,9.6685,0.0148,1.5495,-0.0000,-0.0000,-0.0000,1.0000,0.2417,0.0004,0.0387
291,Left,0,0.0141,0.0088,-0.8003,0.5993,0.0018,0.0031,0.0012,-0.0295,-0.0111,-0.0528,-0.3049,0.0023,9.7552,0.0000,0.0000,0.0000,1.0000,-0.0076,0.0001,0.2439
292,Right,0,0.0123,0.0110,-0.3904,0.9205,0.0119,0.0015,0.0061,-0.0490,-0.0325,-0.1307,-0.2991,0.0750,9.6773,0.0003,0.0000,0.0002,1.0000,-0.0149,0.0036,0.4839
292,Pelvis,0,-0.1276,-0.6364,-0.1518,0.7454,0.0018,-0.0012,-0.0018,-0.0124,-0.0098,-0.0208,9.6685,0.0154,1.5493,0.0000,-0.0000,-0.0000,1.0000,0.2417,0.0004,0.0387
292,Left,0,0.0142,0.0088,-0.8003,0.5994,0.0012,0.0037,0.0024,-0.0076,-0.0061,-0.0817,-0.3153,0.0223,9.7258,0.0000,0.0000,0.0000,1.0000,-0.0079,0.0006,0.2431
293,Right,0,0.0122,0.0110,-0.3904,0.9205,0.0116,-0.0006,0.0049,-0.0332,-0.0438,-0.1410,-0.2798,0.0792,9.6675,0.0001,-0.0000,0.0001,1.0000,-0.0070,0.0019,0.2417
293,Pelvis,0,-0.1276,-0.6364,-0.1518,0.7455,-0.0000,-0.0000,-0.0031,-0.0100,-0.0095,-0.0112,9.6783,0.0161,1.5492,-0.0000,-0.0000,-0.0000,1.0000,0.2420,0.0004,0.0387
293,Left,0,0.0142,0.0088,-0.8003,0.5994,0.0018,0.0037,0.0031,-0.0282,-0.0093,-0.0723,-0.3065,0.0031,9.7356,0.0000,0.0000,0.0000,1.0000,-0.0077,0.0001,0.2434
294,Right,0,0.0123,0.0110,-0.3903,0.9205,0.0122,0.0006,0.0049,-0.0312,-0.0289,-0.1211,-0.2896,0.0921,9.6869,0.0002,0.0000,0.0001,1.0000,-0.0072,0.0023,0.2422
294,Pelvis,0,-0.1277,-0.6363,-0.1518,0.7455,0.0000,-0.0012,-0.0018,-0.0016,-0.0119,-0.0224,9.6685,0.0166,1.5393,0.0000,-0.0000,-0.0000,1.0000,0.2417,0.0004,0.0385
294,Left,0,0.0142,0.0089,-0.8003,0.5994,0.0012,0.0037,0.0037,0.0034,-0.0083,-0.0622,-0.3172,0.0328,9.7453,0.0000,0.0000,0.0000,1.0000,-0.0079,0.0008,0.2436
295,Right,0,0.0123,0.0110,-0.3903,0.9205,0.0134,0.0024,0.0055,-0.0300,-0.0554,-0.1120,-0.2705,0.0757,9.6968,0.0002,0.0000,0.0001,1.0000,-0.0068,0.0019,0.2424
295,Pelvis,0,-0.1276,-0.6363,-0.1518,0.7455,0.0012,0.0006,-0.0031,0.0007,-0.0122,-0.0127,9.6783,0.0173,1.5392,0.0000,0.0000,-0.0000,1.0000,0.2420,0.0004,0.0385
295,Left,0,0.0142,0.0089,-0.8002,0.5994,0.0031,0.0037,0.0024,-0.0266,-0.0096,-0.0625,-0.3083,0.0041,9.7453,0.0000,0.0000,0.0000,1.0000,-0.0077,0.0001,0.2436
296,Right,0,0.0124,0.0110,-0.3903,0.9206,0.0122,-0.0006,0.0067,-0.0418,-0.0396,-0.1212,-0.2902,0.0788,9.6870,0.0002,-0.0000,0.0001,1.0000,-0.0073,0.0019,0.2422
296,Pelvis,0,-0.1276,-0.6363,-0.1518,0.7455,-0.0000,-0.0000,-0.0018,0.0008,-0.0116,-0.0127,9.6783,0.0179,1.5393,-0.0000,-0.0000,-0.0000,1.0000,0.2420,0.0004,0.0385
296,Left,0,0.0142,0.0089,-0.8002,0.5995,0.0006,0.0055,0.0037,-0.0259,-0.0089,-0.0723,-0.3094,0.0045,9.7355,0.0000,0.0001,0.0000,1.0000,-0.0077,0.0001,0.2434
297,Right,0,0.0124,0.0110,-0.3902,0.9206,0.0116,0.0006,0.0061,-0.0265,-0.0530,-0.1023,-0.2707,0.0818,9.7065,0.0001,0.0000,0.0001,1.0000,-0.0068,0.0020,0.2427
297,Pelvis,0,-0.1277,-0.6363,-0.1518,0.7455,0.0012,-0.0012,-0.0018,-0.0143,0.0060,-0.0193,9.6686,0.0281,1.5587,0.0000,-0.0000,-0.0000,1.0000,0.2417,0.0007,0.0390
297,Left,0,0.0142,0.0089,-0.8002,0.5995,0.0024,0.0037,0.0018,0.0061,-0.0069,-0.0719,-0.3202,0.0342,9.7354,0.0000,0.0000,0.0000,1.0000,-0.0080,0.0008,0.2434
298,Right,0,0.0125,0.0109,-0.3902,0.9206,0.0134,0.0012,0.0043,-0.0393,-0.0504,-0.1118,-0.2807,0.0751,9.6968,0.0002,0.0000,0.0001,1.0000,-0.0070,0.0018,0.2424
298,Pelvis,0,-0.1277,-0.6363,-0.1518,0.7455,0.0000,-0.0012,-0.0024,0.0093,-0.0139,-0.0239,9.6686,0.0189,1.5291,0.0000,-0.0000,-0.0000,1.0000,0.2417,0.0005,0.0382
298,Left,0,0.0142,0.0089,-0.8002,0.5995,0.0018,0.0031,0.0018,-0.0146,-0.0099,-0.0723,-0.3113,0.0152,9.7355,0.0000,0.0000,0.0000,1.0000,-0.0078,0.0004,0.2434
299,Right,0,0.0125,0.0109,-0.3901,0.9206,0.0128,0.0006,0.0061,-0.0380,-0.0487,-0.1215,-0.2809,0.0782,9.6870,0.0002,0.0000,0.0001,1.0000,-0.0070,0.0019,0.2422
299,Pelvis,0,-0.1276,-0.6363,-0.1518,0.7455,0.0006,-0.0006,-0.0018,0.0009,-0.0103,-0.0224,9.6686,0.0194,1.5386,0.0000,-0.0000,-0.0000,1.0000,0.2417,0.0005,0.0385
299,Left,0,0.0142,0.0089,-0.8002,0.5995,0.0018,0.0037,0.0031,-0.0109,-0.0002,-0.0720,-0.3219,0.0157,9.7354,0.0000,0.0000,0.0000,1.0000,-0.0080,0.0004,0.2434
300,Right,0,0.0126,0.0109,-0.3901,0.9206,0.0128,0.0006,0.0049,-0.0231,-0.0471,-0.1217,-0.2712,0.0911,9.6869,0.0002,0.0000,0.0001,1.0000,-0.0068,0.0022,0.2422
300,Pelvis,0,-0.1276,-0.6363,-0.1519,0.7455,0.0006,-0.0012,-0.0037,-0.0117,0.0058,-0.0096,9.6784,0.0299,1.5579,0.0000,-0.0000,-0.0000,1.0000,0.2420,0.0007,0.0390
300,Left,0,0.0142,0.0090,-0.8002,0.5995,0.0024,0.0031,0.0031,-0.0151,-0.0185,-0.0725,-0.3032,0.0162,9.7354,0.0000,0.0000,0.0000,1.0000,-0.0076,0.0004,0.2434
301,Right,0,0.0126,0.0109,-0.3900,0.9206,0.0122,0.0012,0.0067,-0.0424,-0.0521,-0.1118,-0.2813,0.0748,9.6968,0.0002,0.0000,0.0001,1.0000,-0.0070,0.0018,0.2424
301,Pelvis,0,-0.1276,-0.6363,-0.1519,0.7455,0.0012,-0.0006,-0.0024,0.0018,-0.0204,-0.0031,9.6883,0.0111,1.5382,0.0000,-0.0000,-0.0000,1.0000,0.2422,0.0003,0.0385
301,Left,0,0.0142,0.0090,-0.8001,0.5996,0.0006,0.0031,0.0031,-0.0119,-0.0090,-0.0625,-0.3137,0.0166,9.7451,0.0000,0.0000,0.0000,1.0000,-0.0078,0.0004,0.2436
302,Right,0,0.0127,0.0109,-0.3900,0.9207,0.0122,0.0018,0.0067,-0.0337,-0.0443,-0.1117,-0.2816,0.0875,9.6967,0.0002,0.0000,0.0001,1.0000,-0.0070,0.0022,0.2424
302,Pelvis,0,-0.1276,-0.6363,-0.1518,0.7455,0.0018,0.0000,-0.0018,-0.0080,-0.0149,-0.0112,9.6785,0.0117,1.5479,0.0000,0.0000,-0.0000,1.0000,0.2420,0.0003,0.0387
302,Left,0,0.0141,0.0091,-0.8001,0.5996,0.0012,0.0043,0.0037,-0.0003,-0.0108,-0.1015,-0.3145,0.0266,9.7060,0.0000,0.0001,0.0000,1.0000,-0.0078,0.0007,0.2427
303,Right,0,0.0127,0.0109,-0.3899,0.9207,0.0122,0.0012,0.0067,-0.0391,-0.0486,-0.1410,-0.2820,0.0805,9.6674,0.0002,0.0000,0.0001,1.0000,-0.0070,0.0020,0.2417
303,Pelvis,0,-0.1277,-0.6362,-0.1518,0.7455,-0.0006,-0.0000,-0.0024,-0.0089,-0.0132,-0.0208,9.6687,0.0122,1.5479,-0.0000,-0.0000,-0.0000,1.0000,0.2417,0.0003,0.0387
303,Left,0,0.0142,0.0091,-0.8001,0.5996,0.0012,0.0031,0.0043,-0.0123,-0.0181,-0.0725,-0.3057,0.0172,9.7354,0.0000,0.0000,0.0001,1.0000,-0.0076,0.0004,0.2434
304,Right,0,0.0127,0.0109,-0.3899,0.9207,0.0122,0.0018,0.0043,-0.0515,-0.0474,-0.1212,-0.2922,0.0740,9.6870,0.0002,0.0000,0.0001,1.0000,-0.0073,0.0018,0.2422
304,Pelvis,0,-0.1276,-0.6363,-0.1518,0.7455,0.0000,-0.0012,-0.0006,0.0151,-0.0034,-0.0239,9.6687,0.0321,1.5282,0.0000,-0.0000,-0.0000,1.0000,0.2417,0.0008,0.0382
304,Left,0,0.0141,0.0091,-0.8001,0.5997,0.0006,0.0031,0.0037,0.0010,-0.0116,-0.0625,-0.3162,0.0272,9.7450,0.0000,0.0000,0.0000,1.0000,-0.0079,0.0007,0.2436
305,Right,0,0.0128,0.0109,-0.3899,0.9207,0.0110,0.0012,0.0067,-0.0371,-0.0591,-0.1413,-0.2730,0.0765,9.6675,0.0001,0.0000,0.0001,1.0000,-0.0068,0.0019,0.2417
305,Pelvis,0,-0.1276,-0.6363,-0.1519,0.7455,0.0012,-0.0012,-0.0043,-0.0033,-0.0049,-0.0015,9.6883,0.0230,1.5474,0.0000,-0.0000,-0.0001,1.0000,0.2422,0.0006,0.0387
305,Left,0,0.0142,0.0092,-0.8001,0.5997,0.0024,0.0049,0.0018,-0.0221,-0.0249,-0.0631,-0.2977,0.0080,9.7451,0.0000,0.0001,0.0000,1.0000,-0.0074,0.0002,0.2436
306,Right,0,0.0128,0.0109,-0.3899,0.9207,0.0128,0.0006,0.0049,-0.0476,-0.0581,-0.1117,-0.2831,0.0700,9.6969,0.0002,0.0000,0.0001,1.0000,-0.0071,0.0017,0.2424
306,Pelvis,0,-0.1276,-0.6363,-0.1519,0.7455,0.0012,0.0012,-0.0024,-0.0259,-0.0065,-0.0081,9.6786,0.0141,1.5669,0.0000,0.0000,-0.0000,1.0000,0.2420,0.0003,0.0392
306,Left,0,0.0141,0.0092,-0.8000,0.5997,0.0012,0.0031,0.0037,-0.0062,-0.0078,-0.0722,-0.3182,0.0183,9.7352,0.0000,0.0000,0.0000,1.0000,-0.0079,0.0005,0.2434
307,Right,0,0.0128,0.0109,-0.3898,0.9207,0.0110,0.0006,0.0055,-0.0463,-0.0559,-0.1312,-0.2832,0.0727,9.6773,0.0001,0.0000,0.0001,1.0000,-0.0071,0.0018,0.2419
307,Pelvis,0,-0.1276,-0.6363,-0.1519,0.7455,0.0006,-0.0000,-0.0024,-0.0038,-0.0044,-0.0112,9.6785,0.0245,1.5476,0.0000,-0.0000,-0.0000,1.0000,0.2420,0.0006,0.0387
307,Left,0,0.0141,0.0092,-0.8000,0.5997,0.0018,0.0037,0.0037,-0.0040,-0.0066,-0.0722,-0.3190,0.0187,9.7352,0.0000,0.0000,0.0000,1.0000,-0.0080,0.0005,0.2434
308,Right,0,0.0128,0.0109,-0.3898,0.9207,0.0122,0.0006,0.0061,-0.0375,-0.0469,-0.1214,-0.2833,0.0854,9.6869,0.0002,0.0000,0.0001,1.0000,-0.0071,0.0021,0.2422
308,Pelvis,0,-0.1276,-0.6362,-0.1519,0.7456,0.0006,0.0012,-0.0018,-0.0079,-0.0018,0.0096,9.6980,0.0251,1.5575,0.0000,0.0000,-0.0000,1.0000,0.2425,0.0006,0.0389
308,Left,0,0.0140,0.0092,-0.8000,0.5998,0.0018,0.0049,0.0043,-0.0056,-0.0149,-0.0725,-0.3102,0.0191,9.7352,0.0000,0.0001,0.0001,1.0000,-0.0077,0.0005,0.2434
309,Pelvis,0,-0.1275,-0.6363,-0.1519,0.7455,0.0018,-0.0012,-0.0012,-0.0131,0.0003,-0.0193,9.6687,0.0254,1.5575,0.0000,-0.0000,-0.0000,1.0000,0.2417,0.0006,0.0389
309,Left,0,0.0139,0.0092,-0.8000,0.5998,0.0018,0.0037,0.0024,-0.0032,-0.0135,-0.0628,-0.3113,0.0196,9.7449,0.0000,0.0000,0.0000,1.0000,-0.0078,0.0005,0.2436
310,Right,0,0.0129,0.0108,-0.3897,0.9208,0.0119,0.0006,0.0058,-0.0365,-0.0585,-0.1217,-0.2738,0.0800,9.6870,0.0003,0.0000,0.0001,1.0000,-0.0137,0.0039,0.4844
310,Pelvis,0,-0.1275,-0.6362,-0.1519,0.7456,0.0006,-0.0006,-0.0024,0.0003,-0.0051,-0.0015,9.6883,0.0259,1.5475,0.0000,-0.0000,-0.0000,1.0000,0.2422,0.0006,0.0387
310,Left,0,0.0140,0.0092,-0.8000,0.5998,0.0024,0.0055,0.0031,0.0027,-0.0247,-0.0533,-0.3027,0.0299,9.7547,0.0000,0.0001,0.0000,1.0000,-0.0076,0.0007,0.2439
311,Right,0,0.0129,0.0108,-0.3897,0.9208,0.0122,0.0000,0.0061,-0.0344,-0.0418,-0.1312,-0.2836,0.0942,9.6771,0.0002,0.0000,0.0001,1.0000,-0.0071,0.0023,0.2419
311,Pelvis,0,-0.1274,-0.6362,-0.1519,0.7456,0.0031,0.0000,-0.0037,-0.0080,-0.0122,-0.0305,9.6590,0.0169,1.5474,0.0000,0.0000,-0.0000,1.0000,0.2415,0.0004,0.0387
311,Left,0,0.0140,0.0092,-0.7999,0.5999,0.0018,0.0024,0.0037,-0.0158,-0.0186,-0.0533,-0.3037,0.0109,9.7547,0.0000,0.0000,0.0000,1.0000,-0.0076,0.0003,0.2439
312,Right,0,0.0130,0.0108,-0.3896,0.9208,0.0116,0.0012,0.0061,-0.0394,-0.0479,-0.1312,-0.2838,0.0873,9.6772,0.0001,0.0000,0.0001,1.0000,-0.0071,0.0021,0.2419
312,Pelvis,0,-0.1274,-0.6363,-0.1519,0.7455,-0.0006,0.0018,-0.0024,-0.0067,-0.0136,-0.0112,9.6785,0.0177,1.5476,-0.0000,0.0000,-0.0000,1.0000,0.2420,0.0004,0.0387
312,Left,0,0.0140,0.0092,-0.7999,0.5999,0.0012,0.0049,0.0030,0.0049,-0.0229,-0.0826,-0.3044,0.0308,9.7253,0.0000,0.0001,0.0000,1.0000,-0.0076,0.0008,0.2431
313,Right,0,0.0130,0.0108,-0.3896,0.9208,0.0128,0.0018,0.0049,-0.0511,-0.0455,-0.1211,-0.2940,0.0807,9.6870,0.0002,0.0000,0.0001,1.0000,-0.0073,0.0020,0.2422
313,Pelvis,0,-0.1273,-0.6363,-0.1519,0.7456,0.0024,0.0000,-0.0043,0.0026,-0.0174,-0.0127,9.6785,0.0186,1.5381,0.0000,0.0000,-0.0001,1.0000,0.2420,0.0005,0.0385
313,Left,0,0.0140,0.0091,-0.7999,0.5999,0.0030,0.0018,0.0037,-0.0053,-0.0190,-0.0630,-0.3053,0.0216,9.7449,0.0000,0.0000,0.0000,1.0000,-0.0076,0.0005,0.2436
314,Right,0,0.0130,0.0108,-0.3896,0.9208,0.0110,0.0012,0.0055,-0.0364,-0.0439,-0.1214,-0.2845,0.0934,9.6869,0.0001,0.0000,0.0001,1.0000,-0.0071,0.0023,0.2422
314,Pelvis,0,-0.1274,-0.6362,-0.1519,0.7456,0.0000,-0.0006,-0.0024,-0.0127,-0.0098,0.0000,9.6883,0.0195,1.5575,0.0000,-0.0000,-0.0000,1.0000,0.2422,0.0005,0.0389
314,Left,0,0.0139,0.0093,-0.7999,0.5999,0.0006,0.0061,0.0030,-0.0036,-0.0282,-0.0633,-0.2965,0.0221,9.7449,0.0000,0.0001,0.0000,1.0000,-0.0074,0.0005,0.2436
315,Right,0,0.0129,0.0108,-0.3897,0.9208,0.0134,0.0006,0.0067,-0.0263,-0.0478,-0.1021,-0.2750,0.0966,9.7064,0.0002,0.0000,0.0001,1.0000,-0.0069,0.0024,0.2427
315,Pelvis,0,-0.1274,-0.6362,-0.1519,0.7456,0.0012,-0.0006,-0.0024,-0.0034,-0.0125,-0.0015,9.6883,0.0201,1.5476,0.0000,-0.0000,-0.0000,1.0000,0.2422,0.0005,0.0387
315,Left,0,0.0139,0.0093,-0.7999,0.5999,0.0018,0.0031,0.0031,-0.0013,-0.0188,-0.0728,-0.3074,0.0224,9.7350,0.0000,0.0000,0.0000,1.0000,-0.0077,0.0006,0.2434
316,Right,0,0.0130,0.0108,-0.3896,0.9208,0.0122,0.0006,0.0055,-0.0393,-0.0737,-0.1414,-0.2655,0.0698,9.6677,0.0002,0.0000,0.0001,1.0000,-0.0066,0.0017,0.2417
316,Pelvis,0,-0.1274,-0.6362,-0.1519,0.7456,0.0006,-0.0000,-0.0018,-0.0143,-0.0077,-0.0193,9.6688,0.0206,1.5573,0.0000,-0.0000,-0.0000,1.0000,0.2417,0.0005,0.0389
316,Left,0,0.0139,0.0093,-0.7999,0.6000,0.0018,0.0037,0.0031,-0.0091,-0.0164,-0.0533,-0.3083,0.0132,9.7545,0.0000,0.0000,0.0000,1.0000,-0.0077,0.0003,0.2439
317,Right,0,0.0130,0.0109,-0.3896,0.9208,0.0128,0.0012,0.0055,-0.0354,-0.0452,-0.1018,-0.2852,0.0931,9.7064,0.0002,0.0000,0.0001,1.0000,-0.0071,0.0023,0.2427
317,Pelvis,0,-0.1274,-0.6362,-0.1519,0.7456,0.0012,-0.0006,-0.0012,-0.0043,-0.0111,-0.0112,9.6786,0.0210,1.5475,0.0000,-0.0000,-0.0000,1.0000,0.2420,0.0005,0.0387
317,Left,0,0.0142,0.0092,-0.7998,0.6000,0.0024,0.0037,0.0031,-0.0136,-0.0153,-0.0728,-0.3091,0.0137,9.7350,0.0000,0.0000,0.0000,1.0000,-0.0077,0.0003,0.2434
318,Right,0,0.0132,0.0108,-0.3895,0.9209,0.0128,0.0018,0.0061,-0.0367,-0.0451,-0.1311,-0.2855,0.0958,9.6771,0.0002,0.0000,0.0001,1.0000,-0.0071,0.0024,0.2419
318,Pelvis,0,-0.1275,-0.6362,-0.1519,0.7456,0.0012,-0.0006,-0.0031,0.0021,-0.0005,-0.0015,9.6883,0.0314,1.5473,0.0000,-0.0000,-0.0000,1.0000,0.2422,0.0008,0.0387
318,Left,0,0.0142,0.0093,-0.7998,0.6001,0.0018,0.0037,0.0018,-0.0028,-0.0195,-0.0630,-0.3100,0.0240,9.7447,0.0000,0.0000,0.0000,1.0000,-0.0077,0.0006,0.2436
319,Right,0,0.0132,0.0110,-0.3895,0.9209,0.0128,0.0006,0.0055,-0.0458,-0.0577,-0.1213,-0.2859,0.0796,9.6871,0.0002,0.0000,0.0001,1.0000,-0.0071,0.0020,0.2422
319,Pelvis,0,-0.1275,-0.6362,-0.1520,0.7455,0.0000,-0.0006,-0.0031,-0.0073,-0.0175,-0.0112,9.6786,0.0126,1.5472,0.0000,-0.0000,-0.0000,1.0000,0.2420,0.0003,0.0387
319,Left,0,0.0143,0.0093,-0.7998,0.6001,0.0018,0.0049,0.0024,-0.0092,-0.0373,-0.0831,-0.2914,0.0243,9.7252,0.0000,0.0001,0.0000,1.0000,-0.0073,0.0006,0.2431
320,Right,0,0.0133,0.0109,-0.3895,0.9209,0.0122,-0.0006,0.0067,-0.0524,-0.0629,-0.1213,-0.2860,0.0729,9.6873,0.0002,-0.0000,0.0001,1.0000,-0.0072,0.0018,0.2422
320,Pelvis,0,-0.1274,-0.6362,-0.1520,0.7456,-0.0006,0.0006,-0.0024,0.0054,-0.0129,-0.0127,9.6786,0.0230,1.5374,-0.0000,0.0000,-0.0000,1.0000,0.2420,0.0006,0.0384
320,Left,0,0.0143,0.0092,-0.7997,0.6001,0.0030,0.0030,0.0037,-0.0110,-0.0052,-0.0725,-0.3218,0.0153,9.7348,0.0000,0.0000,0.0000,1.0000,-0.0080,0.0004,0.2434
321,Right,0,0.0134,0.0109,-0.3894,0.9209,0.0116,0.0018,0.0061,-0.0448,-0.0688,-0.1118,-0.2764,0.0759,9.6970,0.0001,0.0000,0.0001,1.0000,-0.0069,0.0019,0.2424
321,Pelvis,0,-0.1274,-0.6363,-0.1520,0.7455,0.0031,-0.0006,-0.0024,-0.0120,-0.0053,0.0000,9.6884,0.0237,1.5569,0.0000,-0.0000,-0.0000,1.0000,0.2422,0.0006,0.0389
321,Left,0,0.0142,0.0091,-0.7997,0.6001,0.0024,0.0024,0.0043,-0.0148,-0.0209,-0.0731,-0.3029,0.0159,9.7349,0.0000,0.0000,0.0001,1.0000,-0.0076,0.0004,0.2434
322,Right,0,0.0133,0.0109,-0.3894,0.9209,0.0128,0.0006,0.0073,-0.0491,-0.0731,-0.1020,-0.2767,0.0693,9.7069,0.0002,0.0000,0.0001,1.0000,-0.0069,0.0017,0.2427
322,Pelvis,0,-0.1274,-0.6363,-0.1520,0.7455,0.0006,0.0006,-0.0037,-0.0087,-0.0168,-0.0112,9.6786,0.0147,1.5472,0.0000,0.0000,-0.0000,1.0000,0.2420,0.0004,0.0387
322,Left,0,0.0142,0.0090,-0.7997,0.6001,0.0018,0.0037,0.0024,-0.0190,0.0021,-0.0628,-0.3233,0.0068,9.7446,0.0000,0.0000,0.0000,1.0000,-0.0081,0.0002,0.2436
323,Right,0,0.0134,0.0109,-0.3894,0.9209,0.0116,0.0012,0.0049,-0.0339,-0.0572,-0.1313,-0.2768,0.0913,9.6773,0.0001,0.0000,0.0001,1.0000,-0.0069,0.0022,0.2419
323,Pelvis,0,-0.1273,-0.6363,-0.1520,0.7455,0.0018,-0.0006,-0.0018,-0.0089,-0.0172,-0.0112,9.6786,0.0154,1.5472,0.0000,-0.0000,-0.0000,1.0000,0.2420,0.0004,0.0387
323,Left,0,0.0143,0.0091,-0.7997,0.6002,0.0018,0.0024,0.0024,-0.0134,-0.0121,-0.0630,-0.3142,0.0170,9.7446,0.0000,0.0000,0.0000,1.0000,-0.0078,0.0004,0.2436
324,Right,0,0.0135,0.0109,-0.3893,0.9209,0.0128,0.0006,0.0055,-0.0457,-0.0708,-0.1215,-0.2771,0.0750,9.6873,0.0002,0.0000,0.0001,1.0000,-0.0069,0.0018,0.2422
324,Pelvis,0,-0.1274,-0.6362,-0.1520,0.7456,0.0000,-0.0012,-0.0031,-0.0021,-0.0080,-0.0112,9.6786,0.0258,1.5470,0.0000,-0.0000,-0.0000,1.0000,0.2420,0.0006,0.0387
324,Left,0,0.0143,0.0089,-0.7997,0.6002,0.0012,0.0024,0.0031,-0.0167,-0.0184,-0.0828,-0.3049,0.0173,9.7251,0.0000,0.0000,0.0000,1.0000,-0.0076,0.0004,0.2431
325,Right,0,0.0135,0.0109,-0.3893,0.9210,0.0128,0.0012,0.0061,-0.0518,-0.0764,-0.1117,-0.2775,0.0685,9.6972,0.0002,0.0000,0.0001,1.0000,-0.0069,0.0017,0.2424
325,Pelvis,0,-0.1273,-0.6362,-0.1520,0.7456,0.0006,-0.0006,-0.0024,0.0119,-0.0241,-0.0239,9.6689,0.0166,1.5272,0.0000,-0.0000,-0.0000,1.0000,0.2417,0.0004,0.0382
325,Left,0,0.0144,0.0089,-0.7996,0.6003,0.0012,0.0037,0.0037,-0.0117,0.0003,-0.0628,-0.3253,0.0178,9.7445,0.0000,0.0000,0.0000,1.0000,-0.0081,0.0004,0.2436
326,Right,0,0.0136,0.0109,-0.3892,0.9210,0.0122,0.0012,0.0067,-0.0360,-0.0469,-0.1212,-0.2872,0.1008,9.6869,0.0002,0.0000,0.0001,1.0000,-0.0072,0.0025,0.2422
326,Pelvis,0,-0.1274,-0.6362,-0.1520,0.7456,0.0000,-0.0006,-0.0024,-0.0034,-0.0166,-0.0015,9.6885,0.0173,1.5466,0.0000,-0.0000,-0.0000,1.0000,0.2422,0.0004,0.0387
326,Left,0,0.0144,0.0089,-0.7996,0.6003,0.0012,0.0055,0.0024,-0.0207,-0.0269,-0.0734,-0.2971,0.0179,9.7348,0.0000,0.0001,0.0000,1.0000,-0.0074,0.0004,0.2434
327,Pelvis,0,-0.1274,-0.6362,-0.1520,0.7456,0.0012,0.0006,-0.0043,0.0079,-0.0412,-0.0046,9.6885,-0.0014,1.5271,0.0000,0.0000,-0.0001,1.0000,0.2422,-0.0000,0.0382
327,Left,0,0.0144,0.0090,-0.7996,0.6003,0.0018,0.0037,0.0037,-0.0064,-0.0203,-0.0633,-0.3080,0.0282,9.7445,0.0000,0.0000,0.0000,1.0000,-0.0077,0.0007,0.2436
328,Right,0,0.0137,0.0109,-0.3891,0.9210,0.0122,0.0012,0.0064,-0.0443,-0.0697,-0.1214,-0.2781,0.0808,9.6873,0.0003,0.0000,0.0002,1.0000,-0.0139,0.0039,0.4844
328,Pelvis,0,-0.1273,-0.6361,-0.1520,0.7457,0.0012,-0.0012,-0.0018,-0.0021,-0.0171,-0.0112,9.6787,0.0189,1.5465,0.0000,-0.0000,-0.0000,1.0000,0.2420,0.0005,0.0387
328,Left,0,0.0143,0.0090,-0.7996,0.6003,0.0018,0.0031,0.0037,-0.0039,-0.0195,-0.0633,-0.3088,0.0286,9.7445,0.0000,0.0000,0.0000,1.0000,-0.0077,0.0007,0.2436
329,Right,0,0.0136,0.0109,-0.3892,0.9210,0.0128,-0.0006,0.0049,-0.0513,-0.0754,-0.1116,-0.2785,0.0709,9.6973,0.0002,-0.0000,0.0001,1.0000,-0.0070,0.0017,0.2424
329,Pelvis,0,-0.1273,-0.6361,-0.1520,0.7457,0.0012,0.0000,-0.0031,-0.0058,-0.0255,-0.0112,9.6788,0.0098,1.5464,0.0000,0.0000,-0.0000,1.0000,0.2420,0.0002,0.0387
329,Left,0,0.0143,0.0090,-0.7996,0.6003,0.0024,0.0037,0.0043,-0.0156,-0.0261,-0.0441,-0.3000,0.0194,9.7641,0.0000,0.0000,0.0001,1.0000,-0.0075,0.0005,0.2441
330,Right,0,0.0136,0.0109,-0.3893,0.9210,0.0128,0.0018,0.0061,-0.0491,-0.0594,-0.1113,-0.2883,0.0839,9.6971,0.0002,0.0000,0.0001,1.0000,-0.0072,0.0021,0.2424
330,Pelvis,0,-0.1273,-0.6361,-0.1520,0.7457,0.0006,-0.0000,-0.0024,0.0002,-0.0153,-0.0112,9.6788,0.0203,1.5464,0.0000,-0.0000,-0.0000,1.0000,0.2420,0.0005,0.0387
330,Left,0,0.0143,0.0091,-0.7995,0.6004,0.0018,0.0043,0.0031,-0.0081,-0.0070,-0.0533,-0.3204,0.0200,9.7541,0.0000,0.0001,0.0000,1.0000,-0.0080,0.0005,0.2439
331,Right,0,0.0136,0.0110,-0.3893,0.9209,0.0128,0.0018,0.0055,-0.0375,-0.0645,-0.1213,-0.2789,0.0868,9.6873,0.0002,0.0000,0.0001,1.0000,-0.0070,0.0021,0.2422
331,Pelvis,0,-0.1274,-0.6360,-0.1520,0.7457,-0.0006,-0.0012,-0.0031,-0.0121,-0.0189,-0.0193,9.6691,0.0111,1.5560,-0.0000,-0.0000,-0.0000,1.0000,0.2417,0.0003,0.0389
331,Left,0,0.0142,0.0091,-0.7995,0.6004,0.0006,0.0031,0.0024,-0.0113,-0.0244,-0.0636,-0.3017,0.0202,9.7445,0.0000,0.0000,0.0000,1.0000,-0.0075,0.0005,0.2436
332,Right,0,0.0135,0.0111,-0.3894,0.9209,0.0116,0.0012,0.0043,-0.0486,-0.0614,-0.1307,-0.2891,0.0799,9.6777,0.0001,0.0000,0.0001,1.0000,-0.0072,0.0020,0.2419
332,Pelvis,0,-0.1274,-0.6360,-0.1520,0.7458,0.0006,-0.0000,-0.0018,-0.0046,-0.0314,-0.0112,9.6789,0.0020,1.5461,0.0000,-0.0000,-0.0000,1.0000,0.2420,0.0000,0.0387
332,Left,0,0.0141,0.0092,-0.7995,0.6004,0.0018,0.0030,0.0018,-0.0065,-0.0144,-0.0633,-0.3122,0.0206,9.7444,0.0000,0.0000,0.0000,1.0000,-0.0078,0.0005,0.2436
333,Right,0,0.0135,0.0111,-0.3895,0.9209,0.0116,0.0012,0.0055,-0.0390,-0.0655,-0.1114,-0.2797,0.0831,9.6972,0.0001,0.0000,0.0001,1.0000,-0.0070,0.0020,0.2424
333,Pelvis,0,-0.1275,-0.6359,-0.1520,0.7458,-0.0000,-0.0000,-0.0018,0.0044,-0.0119,-0.0112,9.6788,0.0220,1.5461,-0.0000,-0.0000,-0.0000,1.0000,0.2420,0.0005,0.0387
333,Left,0,0.0142,0.0090,-0.7995,0.6004,0.0012,0.0037,0.0037,-0.0091,-0.0127,-0.0535,-0.3131,0.0210,9.7541,0.0000,0.0000,0.0000,1.0000,-0.0078,0.0005,0.2439
334,Right,0,0.0136,0.0110,-0.3894,0.9209,0.0122,0.0006,0.0043,-0.0462,-0.0570,-0.1307,-0.2896,0.0857,9.6776,0.0002,0.0000,0.0001,1.0000,-0.0072,0.0021,0.2419
334,Pelvis,0,-0.1276,-0.6359,-0.1520,0.7458,0.0006,-0.0006,-0.0024,-0.0076,-0.0154,-0.0096,9.6789,0.0127,1.5558,0.0000,-0.0000,-0.0000,1.0000,0.2420,0.0003,0.0389
334,Left,0,0.0142,0.0091,-0.7995,0.6004,0.0018,0.0049,0.0031,-0.0194,-0.0195,-0.0636,-0.3044,0.0116,9.7444,0.0000,0.0001,0.0000,1.0000,-0.0076,0.0003,0.2436
335,Right,0,0.0135,0.0111,-0.3895,0.9209,0.0116,0.0006,0.0055,-0.0494,-0.0754,-0.1308,-0.2802,0.0690,9.6780,0.0001,0.0000,0.0001,1.0000,-0.0070,0.0017,0.2420
335,Pelvis,0,-0.1276,-0.6359,-0.1520,0.7458,0.0018,-0.0012,-0.0024,-0.0081,-0.0139,-0.0192,9.6691,0.0133,1.5556,0.0000,-0.0000,-0.0000,1.0000,0.2417,0.0003,0.0389
335,Left,0,0.0143,0.0091,-0.7995,0.6005,0.0018,0.0037,0.0037,-0.0203,-0.0191,-0.0636,-0.3054,0.0121,9.7444,0.0000,0.0000,0.0000,1.0000,-0.0076,0.0003,0.2436
336,Right,0,0.0136,0.0111,-0.3894,0.9209,0.0122,0.0018,0.0067,-0.0549,-0.0535,-0.1303,-0.2999,0.0818,9.6777,0.0002,0.0000,0.0001,1.0000,-0.0075,0.0020,0.2419
336,Pelvis,0,-0.1276,-0.6359,-0.1521,0.7458,0.0012,-0.0000,-0.0043,-0.0029,-0.0052,-0.0096,9.6789,0.0240,1.5554,0.0000,-0.0000,-0.0001,1.0000,0.2420,0.0006,0.0389
336,Left,0,0.0145,0.0091,-0.7994,0.6006,0.0024,0.0037,0.0031,-0.0187,-0.0104,-0.0828,-0.3160,0.0126,9.7248,0.0000,0.0000,0.0000,1.0000,-0.0079,0.0003,0.2431
337,Right,0,0.0137,0.0111,-0.3894,0.9209,0.0140,0.0006,0.0061,-0.0319,-0.0749,-0.1116,-0.2709,0.0852,9.6973,0.0002,0.0000,0.0001,1.0000,-0.0068,0.0021,0.2424
337,Pelvis,0,-0.1276,-0.6360,-0.1521,0.7458,0.0006,-0.0006,-0.0012,-0.0161,-0.0100,-0.0080,9.6789,0.0150,1.5651,0.0000,-0.0000,-0.0000,1.0000,0.2420,0.0004,0.0391
337,Left,0,0.0145,0.0089,-0.7994,0.6006,0.0012,0.0024,0.0031,-0.0112,-0.0105,-0.0633,-0.3168,0.0229,9.7442,0.0000,0.0000,0.0000,1.0000,-0.0079,0.0006,0.2436
338,Right,0,0.0138,0.0111,-0.3893,0.9209,0.0122,-0.0000,0.0055,-0.0451,-0.0729,-0.1210,-0.2808,0.0785,9.6877,0.0002,-0.0000,0.0001,1.0000,-0.0070,0.0019,0.2422
338,Pelvis,0,-0.1276,-0.6360,-0.1521,0.7458,0.0006,-0.0000,-0.0024,-0.0072,-0.0135,-0.0096,9.6789,0.0154,1.5553,0.0000,-0.0000,-0.0000,1.0000,0.2420,0.0004,0.0389
338,Left,0,0.0145,0.0089,-0.7994,0.6006,0.0018,0.0031,0.0031,-0.0131,-0.0189,-0.0636,-0.3077,0.0232,9.7443,0.0000,0.0000,0.0000,1.0000,-0.0077,0.0006,0.2436
339,Right,0,0.0137,0.0113,-0.3892,0.9210,0.0110,0.0018,0.0055,-0.0332,-0.0789,-0.1213,-0.2713,0.0813,9.6877,0.0001,0.0000,0.0001,1.0000,-0.0068,0.0020,0.2422
339,Pelvis,0,-0.1276,-0.6360,-0.1521,0.7457,0.0018,-0.0012,-0.0024,-0.0014,-0.0254,-0.0015,9.6888,0.0063,1.5454,0.0000,-0.0000,-0.0000,1.0000,0.2422,0.0001,0.0386
339,Left,0,0.0144,0.0088,-0.7994,0.6006,0.0024,0.0030,0.0031,-0.0155,-0.0255,-0.0736,-0.2986,0.0237,9.7345,0.0000,0.0000,0.0000,1.0000,-0.0075,0.0006,0.2434
340,Right,0,0.0138,0.0112,-0.3892,0.9210,0.0116,0.0012,0.0067,-0.0537,-0.0825,-0.1404,-0.2816,0.0642,9.6685,0.0001,0.0000,0.0001,1.0000,-0.0070,0.0016,0.2417
340,Pelvis,0,-0.1277,-0.6361,-0.1520,0.7456,0.0012,0.0006,-0.0024,0.0029,-0.0049,-0.0112,9.6789,0.0265,1.5453,0.0000,0.0000,-0.0000,1.0000,0.2420,0.0007,0.0386
340,Left,0,0.0142,0.0088,-0.7994,0.6006,0.0012,0.0037,0.0043,-0.0181,-0.0113,-0.0733,-0.3092,0.0144,9.7345,0.0000,0.0000,0.0001,1.0000,-0.0077,0.0004,0.2434
341,Right,0,0.0136,0.0112,-0.3894,0.9209,0.0128,-0.0006,0.0049,-0.0425,-0.0710,-0.1306,-0.2815,0.0772,9.6780,0.0002,-0.0000,0.0001,1.0000,-0.0070,0.0019,0.2420
341,Pelvis,0,-0.1277,-0.6361,-0.1520,0.7456,0.0006,-0.0000,-0.0018,-0.0002,-0.0137,-0.0111,9.6789,0.0172,1.5454,0.0000,-0.0000,-0.0000,1.0000,0.2420,0.0004,0.0386
341,Left,0,0.0140,0.0086,-0.7995,0.6005,0.0018,0.0031,0.0024,-0.0175,-0.0042,-0.0635,-0.3101,0.0149,9.7442,0.0000,0.0000,0.0000,1.0000,-0.0077,0.0004,0.2436
342,Right,0,0.0135,0.0110,-0.3894,0.9209,0.0122,0.0018,0.0061,-0.0439,-0.0662,-0.1208,-0.2817,0.0805,9.6878,0.0002,0.0000,0.0001,1.0000,-0.0070,0.0020,0.2422
342,Pelvis,0,-0.1277,-0.6360,-0.1521,0.7457,0.0012,0.0006,-0.0043,0.0032,-0.0136,-0.0015,9.6887,0.0181,1.5454,0.0000,0.0000,-0.0001,1.0000,0.2422,0.0004,0.0386
342,Left,0,0.0139,0.0085,-0.7995,0.6005,0.0024,0.0037,0.0049,-0.0063,-0.0047,-0.0538,-0.3109,0.0252,9.7539,0.0000,0.0000,0.0001,1.0000,-0.0078,0.0006,0.2438
343,Right,0,0.0135,0.0110,-0.3895,0.9209,0.0116,0.0006,0.0061,-0.0416,-0.0765,-0.1210,-0.2723,0.0735,9.6880,0.0001,0.0000,0.0001,1.0000,-0.0068,0.0018,0.2422
343,Pelvis,0,-0.1277,-0.6360,-0.1520,0.7457,0.0012,-0.0006,-0.0018,-0.0073,-0.0080,-0.0096,9.6789,0.0188,1.5552,0.0000,-0.0000,-0.0000,1.0000,0.2420,0.0005,0.0389
343,Left,0,0.0140,0.0086,-0.7994,0.6005,0.0018,0.0037,0.0024,-0.0121,0.0064,-0.0633,-0.3216,0.0160,9.7441,0.0000,0.0000,0.0000,1.0000,-0.0080,0.0004,0.2436
344,Right,0,0.0135,0.0111,-0.3895,0.9209,0.0122,0.0030,0.0055,-0.0305,-0.0545,-0.1208,-0.2823,0.0961,9.6875,0.0002,0.0000,0.0001,1.0000,-0.0070,0.0024,0.2422
344,Pelvis,0,-0.1277,-0.6361,-0.1521,0.7456,0.0012,-0.0012,-0.0031,-0.0211,-0.0119,-0.0080,9.6790,0.0097,1.5648,0.0000,-0.0000,-0.0000,1.0000,0.2420,0.0002,0.0391
344,Left,0,0.0139,0.0086,-0.7994,0.6005,0.0006,0.0043,0.0024,-0.0122,-0.0011,-0.0635,-0.3128,0.0163,9.7441,0.0000,0.0001,0.0000,1.0000,-0.0078,0.0004,0.2436
345,Pelvis,0,-0.1278,-0.6361,-0.1521,0.7456,0.0006,0.0006,-0.0037,0.0001,-0.0093,-0.0111,9.6790,0.0203,1.5451,0.0000,0.0000,-0.0000,1.0000,0.2420,0.0005,0.0386
345,Left,0,0.0139,0.0086,-0.7994,0.6005,0.0031,0.0030,0.0024,-0.0142,-0.0095,-0.0735,-0.3038,0.0167,9.7344,0.0000,0.0000,0.0000,1.0000,-0.0076,0.0004,0.2434
346,Right,0,0.0135,0.0112,-0.3896,0.9208,0.0125,0.0009,0.0058,-0.0369,-0.0542,-0.1206,-0.2879,0.0909,9.6876,0.0003,0.0000,0.0001,1.0000,-0.0144,0.0044,0.4844
346,Pelvis,0,-0.1279,-0.6361,-0.1521,0.7456,0.0018,-0.0006,-0.0024,0.0069,-0.0104,-0.0320,9.6594,0.0210,1.5354,0.0000,-0.0000,-0.0000,1.0000,0.2415,0.0005,0.0384
346,Left,0,0.0138,0.0086,-0.7994,0.6005,0.0012,0.0043,0.0037,-0.0017,-0.0007,-0.0635,-0.3145,0.0271,9.7440,0.0000,0.0001,0.0000,1.0000,-0.0078,0.0007,0.2436
347,Right,0,0.0134,0.0112,-0.3896,0.9208,0.0116,0.0006,0.0061,-0.0373,-0.0745,-0.1208,-0.2737,0.0757,9.6881,0.0001,0.0000,0.0001,1.0000,-0.0068,0.0019,0.2422
347,Pelvis,0,-0.1281,-0.6361,-0.1516,0.7456,0.0018,-0.0006,-0.0006,-0.0015,0.0140,-0.0096,9.6790,0.0313,1.5547,0.0000,-0.0000,-0.0000,1.0000,0.2420,0.0008,0.0389
347,Left,0,0.0138,0.0086,-0.7994,0.6006,0.0018,0.0031,0.0037,-0.0129,-0.0075,-0.0735,-0.3056,0.0176,9.7344,0.0000,0.0000,0.0000,1.0000,-0.0076,0.0004,0.2434
348,Right,0,0.0134,0.0113,-0.3896,0.9208,0.0128,0.0006,0.0061,-0.0269,-0.0663,-0.1209,-0.2737,0.0885,9.6878,0.0002,0.0000,0.0001,1.0000,-0.0068,0.0022,0.2422
348,Pelvis,2,-0.1281,-0.6361,-0.1516,0.7456,0.0000,-0.0012,-0.0018,0.0038,-0.0194,-0.0223,9.6694,0.0023,1.5350,0.0000,-0.0000,-0.0000,1.0000,0.2417,0.0001,0.0384
348,Left,0,0.0132,0.0088,-0.8008,0.5987,0.0012,0.0031,0.0037,-0.0103,-0.0002,-0.0637,-0.3065,0.0083,9.7441,0.0000,0.0000,0.0000,1.0000,-0.0077,0.0002,0.2436
349,Right,2,0.0135,0.0114,-0.3896,0.9208,0.0116,0.0012,0.0067,-0.0166,-0.0731,-0.1211,-0.2642,0.0914,9.6878,0.0001,0.0000,0.0001,1.0000,-0.0066,0.0022,0.2422
349,Pelvis,2,-0.1281,-0.6361,-0.1516,0.7456,0.0006,-0.0012,-0.0024,-0.0060,0.0067,-0.0192,9.6693,0.0223,1.5542,0.0000,-0.0000,-0.0000,1.0000,0.2417,0.0006,0.0389
349,Left,2,0.0133,0.0088,-0.8008,0.5987,0.0024,0.0043,0.0024,0.0147,0.0132,-0.0535,-0.3269,0.0284,9.7537,0.0000,0.0001,0.0000,1.0000,-0.0082,0.0007,0.2438
350,Right,2,0.0135,0.0116,-0.3896,0.9208,0.0122,0.0012,0.0055,-0.0326,-0.0659,-0.1107,-0.2841,0.0850,9.6977,0.0002,0.0000,0.0001,1.0000,-0.0071,0.0021,0.2424
350,Pelvis,2,-0.1281,-0.6361,-0.1516,0.7456,0.0006,-0.0006,-0.0031,-0.0066,-0.0029,0.0001,9.6889,0.0134,1.5540,0.0000,-0.0000,-0.0000,1.0000,0.2422,0.0003,0.0389
350,Left,2,0.0133,0.0088,-0.8008,0.5987,0.0012,0.0037,0.0037,0.0006,-0.0013,-0.0833,-0.3081,0.0189,9.7245,0.0000,0.0000,0.0000,1.0000,-0.0077,0.0005,0.2431
351,Right,2,0.0135,0.0119,-0.3897,0.9208,0.0122,0.0012,0.0073,-0.0263,-0.0651,-0.1302,-0.2844,0.0875,9.6782,0.0002,0.0000,0.0001,1.0000,-0.0071,0.0022,0.2420
351,Pelvis,2,-0.1281,-0.6361,-0.1516,0.7456,0.0018,-0.0012,-0.0012,-0.0025,0.0066,0.0001,9.6889,0.0237,1.5538,0.0000,-0.0000,-0.0000,1.0000,0.2422,0.0006,0.0388
351,Left,2,0.0132,0.0088,-0.8008,0.5987,0.0018,0.0024,0.0024,0.0011,-0.0011,-0.0638,-0.3090,0.0194,9.7440,0.0000,0.0000,0.0000,1.0000,-0.0077,0.0005,0.2436
352,Right,2,0.0135,0.0119,-0.3897,0.9208,0.0128,0.0012,0.0061,-0.0239,-0.0762,-0.1304,-0.2750,0.0807,9.6784,0.0002,0.0000,0.0001,1.0000,-0.0069,0.0020,0.2420
352,Pelvis,2,-0.1281,-0.6361,-0.1516,0.7456,0.0012,0.0000,-0.0031,-0.0177,0.0031,-0.0176,9.6695,0.0144,1.5634,0.0000,0.0000,-0.0000,1.0000,0.2417,0.0004,0.0391
352,Left,2,0.0133,0.0088,-0.8008,0.5987,0.0018,0.0031,0.0024,0.0017,-0.0000,-0.0833,-0.3095,0.0198,9.7245,0.0000,0.0000,0.0000,1.0000,-0.0077,0.0005,0.2431
353,Right,2,0.0135,0.0119,-0.3896,0.9208,0.0122,0.0012,0.0067,-0.0210,-0.0745,-0.1303,-0.2753,0.0838,9.6784,0.0002,0.0000,0.0001,1.0000,-0.0069,0.0021,0.2420
353,Pelvis,2,-0.1281,-0.6361,-0.1516,0.7456,0.0012,-0.0012,-0.0018,0.0057,0.0045,-0.0111,9.6792,0.0248,1.5437,0.0000,-0.0000,-0.0000,1.0000,0.2420,0.0006,0.0386
353,Left,2,0.0133,0.0088,-0.8008,0.5987,0.0012,0.0049,0.0018,0.0023,0.0001,-0.0540,-0.3107,0.0203,9.7537,0.0000,0.0001,0.0000,1.0000,-0.0078,0.0005,0.2438
354,Right,2,0.0134,0.0120,-0.3897,0.9208,0.0116,0.0018,0.0061,-0.0385,-0.0638,-0.1198,-0.2953,0.0775,9.6883,0.0001,0.0000,0.0001,1.0000,-0.0074,0.0019,0.2422
354,Pelvis,2,-0.1281,-0.6361,-0.1516,0.7456,0.0006,-0.0000,-0.0031,-0.0090,-0.0098,0.0001,9.6891,0.0060,1.5534,0.0000,-0.0000,-0.0000,1.0000,0.2422,0.0001,0.0388
354,Left,2,0.0133,0.0088,-0.8008,0.5987,0.0018,0.0037,0.0024,0.0059,0.0103,-0.0635,-0.3215,0.0207,9.7438,0.0000,0.0000,0.0000,1.0000,-0.0080,0.0005,0.2436
355,Right,2,0.0135,0.0120,-0.3895,0.9208,0.0128,0.0000,0.0067,-0.0305,-0.0709,-0.1201,-0.2858,0.0804,9.6883,0.0002,0.0000,0.0001,1.0000,-0.0071,0.0020,0.2422
355,Pelvis,2,-0.1281,-0.6361,-0.1516,0.7456,0.0006,-0.0000,-0.0018,0.0026,-0.0034,-0.0111,9.6793,0.0163,1.5436,0.0000,-0.0000,-0.0000,1.0000,0.2420,0.0004,0.0386
355,Left,2,0.0132,0.0088,-0.8008,0.5987,0.0012,0.0031,0.0031,-0.0083,-0.0047,-0.0737,-0.3027,0.0111,9.7343,0.0000,0.0000,0.0000,1.0000,-0.0076,0.0003,0.2434
356,Right,2,0.0136,0.0121,-0.3896,0.9208,0.0116,0.0018,0.0061,-0.0206,-0.0628,-0.1398,-0.2858,0.0926,9.6685,0.0001,0.0000,0.0001,1.0000,-0.0071,0.0023,0.2417
356,Pelvis,2,-0.1281,-0.6361,-0.1516,0.7456,0.0012,0.0006,-0.0031,-0.0162,0.0052,-0.0176,9.6695,0.0169,1.5632,0.0000,0.0000,-0.0000,1.0000,0.2417,0.0004,0.0391
356,Left,2,0.0132,0.0088,-0.8008,0.5987,0.0012,0.0037,0.0030,0.0074,0.0119,-0.0733,-0.3230,0.0214,9.7340,0.0000,0.0000,0.0000,1.0000,-0.0081,0.0005,0.2434
357,Right,2,0.0135,0.0123,-0.3897,0.9208,0.0122,-0.0000,0.0049,-0.0208,-0.0823,-0.1105,-0.2766,0.0767,9.6983,0.0002,-0.0000,0.0001,1.0000,-0.0069,0.0019,0.2425
357,Pelvis,2,-0.1281,-0.6361,-0.1516,0.7456,0.0012,-0.0006,-0.0024,0.0069,-0.0145,-0.0223,9.6695,0.0078,1.5339,0.0000,-0.0000,-0.0000,1.0000,0.2417,0.0002,0.0384
357,Left,2,0.0133,0.0088,-0.8008,0.5987,0.0024,0.0043,0.0024,-0.0041,0.0062,-0.0735,-0.3143,0.0120,9.7341,0.0000,0.0001,0.0000,1.0000,-0.0078,0.0003,0.2434
358,Right,2,0.0134,0.0123,-0.3898,0.9207,0.0122,0.0012,0.0061,-0.0319,-0.0635,-0.1196,-0.2962,0.0796,9.6885,0.0002,0.0000,0.0001,1.0000,-0.0074,0.0020,0.2422
358,Pelvis,2,-0.1281,-0.6361,-0.1516,0.7456,0.0018,0.0000,-0.0031,-0.0016,-0.0102,-0.0207,9.6695,0.0086,1.5436,0.0000,0.0000,-0.0000,1.0000,0.2417,0.0002,0.0386
358,Left,2,0.0132,0.0088,-0.8008,0.5987,0.0018,0.0031,0.0031,0.0032,-0.0053,-0.0738,-0.3053,0.0222,9.7341,0.0000,0.0000,0.0000,1.0000,-0.0076,0.0005,0.2434
359,Right,2,0.0134,0.0123,-0.3898,0.9207,0.0128,0.0006,0.0055,-0.0297,-0.0760,-0.1198,-0.2868,0.0728,9.6887,0.0002,0.0000,0.0001,1.0000,-0.0072,0.0018,0.2422
359,Pelvis,2,-0.1280,-0.6361,-0.1516,0.7456,0.0012,0.0006,-0.0031,-0.0049,0.0025,-0.0096,9.6793,0.0192,1.5534,0.0000,0.0000,-0.0000,1.0000,0.2420,0.0005,0.0388
359,Left,2,0.0133,0.0088,-0.8008,0.5987,0.0030,0.0037,0.0037,-0.0027,0.0074,-0.0637,-0.3161,0.0132,9.7438,0.0000,0.0000,0.0000,1.0000,-0.0079,0.0003,0.2436
360,Right,2,0.0135,0.0123,-0.3898,0.9207,0.0122,0.0006,0.0079,-0.0212,-0.0673,-0.1296,-0.2868,0.0854,9.6787,0.0002,0.0000,0.0001,1.0000,-0.0072,0.0021,0.2420
360,Pelvis,2,-0.1281,-0.6361,-0.1516,0.7456,0.0006,-0.0018,-0.0024,-0.0119,0.0063,0.0016,9.6890,0.0200,1.5630,0.0000,-0.0000,-0.0000,1.0000,0.2422,0.0005,0.0391
360,Left,2,0.0132,0.0088,-0.8008,0.5987,0.0006,0.0031,0.0037,0.0045,-0.0039,-0.0738,-0.3070,0.0233,9.7341,0.0000,0.0000,0.0000,1.0000,-0.0077,0.0006,0.2434
361,Right,2,0.0134,0.0123,-0.3899,0.9207,0.0122,0.0012,0.0043,-0.0114,-0.0716,-0.1202,-0.2773,0.0885,9.6884,0.0002,0.0000,0.0001,1.0000,-0.0069,0.0022,0.2422
361,Pelvis,2,-0.1281,-0.6361,-0.1516,0.7456,0.0006,0.0006,-0.0024,0.0047,-0.0002,-0.0111,9.6793,0.0205,1.5434,0.0000,0.0000,-0.0000,1.0000,0.2420,0.0005,0.0386
361,Left,2,0.0132,0.0088,-0.8008,0.5987,0.0025,0.0037,0.0006,0.0053,-0.0027,-0.0933,-0.3076,0.0236,9.7145,0.0000,0.0000,0.0000,1.0000,-0.0077,0.0006,0.2429
362,Right,2,0.0134,0.0123,-0.3899,0.9207,0.0116,0.0006,0.0073,-0.0106,-0.0694,-0.1201,-0.2775,0.0915,9.6884,0.0001,0.0000,0.0001,1.0000,-0.0069,0.0023,0.2422
362,Pelvis,2,-0.1281,-0.6361,-0.1516,0.7456,0.0006,-0.0006,-0.0018,-0.0052,0.0047,-0.0192,9.6695,0.0210,1.5532,0.0000,-0.0000,-0.0000,1.0000,0.2417,0.0005,0.0388
362,Left,2,0.0132,0.0088,-0.8008,0.5987,0.0018,0.0031,0.0037,0.0087,0.0067,-0.0638,-0.3184,0.0244,9.7437,0.0000,0.0000,0.0000,1.0000,-0.0080,0.0006,0.2436
363,Right,2,0.0135,0.0122,-0.3898,0.9207,0.0128,0.0006,0.0067,-0.0255,-0.0803,-0.1394,-0.2778,0.0744,9.6694,0.0002,0.0000,0.0001,1.0000,-0.0069,0.0018,0.2417
363,Pelvis,2,-0.1280,-0.6361,-0.1516,0.7456,0.0018,-0.0012,-0.0031,-0.0072,-0.0043,-0.0095,9.6794,0.0119,1.5529,0.0000,-0.0000,-0.0000,1.0000,0.2420,0.0003,0.0388
363,Left,2,0.0132,0.0088,-0.8008,0.5987,0.0018,0.0031,0.0031,-0.0028,0.0012,-0.0835,-0.3093,0.0149,9.7243,0.0000,0.0000,0.0000,1.0000,-0.0077,0.0004,0.2431
364,Right,2,0.0136,0.0122,-0.3897,0.9208,0.0116,0.0018,0.0055,-0.0292,-0.0600,-0.1194,-0.2976,0.0880,9.6886,0.0001,0.0000,0.0001,1.0000,-0.0074,0.0022,0.2422
364,Pelvis,2,-0.1280,-0.6361,-0.1516,0.7456,0.0006,-0.0006,-0.0037,-0.0134,0.0096,-0.0176,9.6696,0.0225,1.5625,0.0000,-0.0000,-0.0000,1.0000,0.2417,0.0006,0.0391
364,Left,2,0.0132,0.0088,-0.8008,0.5987,0.0006,0.0031,0.0030,0.0007,0.0107,-0.0540,-0.3201,0.0154,9.7535,0.0000,0.0000,0.0000,1.0000,-0.0080,0.0004,0.2438
365,Pelvis,2,-0.1281,-0.6361,-0.1516,0.7456,0.0000,-0.0006,-0.0012,0.0038,-0.0076,-0.0014,9.6892,0.0134,1.5428,0.0000,-0.0000,-0.0000,1.0000,0.2422,0.0003,0.0386
365,Left,2,0.0132,0.0088,-0.8008,0.5987,0.0031,0.0043,0.0037,0.0079,-0.0005,-0.0640,-0.3111,0.0256,9.7437,0.0000,0.0001,0.0000,1.0000,-0.0078,0.0006,0.2436
366,Right,2,0.0135,0.0123,-0.3899,0.9207,0.0122,0.0003,0.0058,-0.0185,-0.0772,-0.1149,-0.2785,0.0825,9.6937,0.0003,0.0000,0.0001,1.0000,-0.0139,0.0040,0.4847
366,Pelvis,2,-0.1281,-0.6361,-0.1516,0.7456,0.0006,-0.0012,-0.0018,0.0012,-0.0059,-0.0207,9.6697,0.0137,1.5426,0.0000,-0.0000,-0.0000,1.0000,0.2417,0.0003,0.0386
366,Left,2,0.0132,0.0088,-0.8008,0.5987,0.0012,0.0031,0.0031,-0.0006,0.0034,-0.0835,-0.3118,0.0162,9.7242,0.0000,0.0000,0.0000,1.0000,-0.0078,0.0004,0.2431
367,Right,2,0.0134,0.0125,-0.3900,0.9206,0.0122,0.0000,0.0061,-0.0169,-0.0794,-0.1294,-0.2786,0.0768,9.6794,0.0002,0.0000,0.0001,1.0000,-0.0070,0.0019,0.2420
367,Pelvis,2,-0.1280,-0.6361,-0.1516,0.7456,0.0018,-0.0012,-0.0024,-0.0006,0.0063,0.0001,9.6892,0.0242,1.5520,0.0000,-0.0000,-0.0000,1.0000,0.2422,0.0006,0.0388
367,Left,2,0.0132,0.0088,-0.8008,0.5987,0.0018,0.0037,0.0049,0.0093,0.0011,-0.0738,-0.3127,0.0265,9.7339,0.0000,0.0000,0.0001,1.0000,-0.0078,0.0007,0.2433
368,Right,2,0.0134,0.0123,-0.3899,0.9207,0.0116,-0.0000,0.0049,-0.0258,-0.0684,-0.1290,-0.2884,0.0799,9.6793,0.0001,-0.0000,0.0001,1.0000,-0.0072,0.0020,0.2420
368,Pelvis,2,-0.1280,-0.6361,-0.1516,0.7456,0.0012,-0.0000,-0.0043,-0.0256,-0.0036,0.0033,9.6894,0.0056,1.5715,0.0000,-0.0000,-0.0001,1.0000,0.2422,0.0001,0.0393
368,Left,2,0.0132,0.0088,-0.8008,0.5987,0.0012,0.0037,0.0018,0.0005,0.0044,-0.0640,-0.3137,0.0171,9.7437,0.0000,0.0000,0.0000,1.0000,-0.0078,0.0004,0.2436
369,Right,2,0.0133,0.0121,-0.3900,0.9206,0.0122,0.0012,0.0055,-0.0200,-0.0704,-0.1195,-0.2788,0.0829,9.6891,0.0002,0.0000,0.0001,1.0000,-0.0070,0.0020,0.2422
369,Pelvis,2,-0.1280,-0.6361,-0.1515,0.7456,0.0024,-0.0012,-0.0006,-0.0013,0.0079,-0.0096,9.6795,0.0256,1.5517,0.0000,-0.0000,-0.0000,1.0000,0.2420,0.0006,0.0388
369,Left,2,0.0132,0.0088,-0.8008,0.5987,0.0018,0.0043,0.0024,-0.0109,-0.0010,-0.0837,-0.3048,0.0076,9.7242,0.0000,0.0001,0.0000,1.0000,-0.0076,0.0002,0.2431
370,Right,2,0.0133,0.0121,-0.3900,0.9207,0.0122,0.0024,0.0055,-0.0248,-0.0753,-0.1291,-0.2793,0.0759,9.6796,0.0002,0.0000,0.0001,1.0000,-0.0070,0.0019,0.2420
370,Pelvis,2,-0.1280,-0.6361,-0.1516,0.7456,-0.0000,0.0012,-0.0043,0.0018,-0.0138,-0.0014,9.6894,0.0068,1.5420,-0.0000,0.0000,-0.0001,1.0000,0.2422,0.0002,0.0385
370,Left,2,0.0132,0.0088,-0.8008,0.5987,0.0012,0.0024,0.0024,0.0055,-0.0157,-0.0644,-0.2959,0.0275,9.7437,0.0000,0.0000,0.0000,1.0000,-0.0074,0.0007,0.2436
371,Right,2,0.0133,0.0119,-0.3900,0.9207,0.0128,0.0018,0.0049,-0.0331,-0.0642,-0.1386,-0.2896,0.0788,9.6697,0.0002,0.0000,0.0001,1.0000,-0.0072,0.0019,0.2417
371,Pelvis,2,-0.1280,-0.6361,-0.1516,0.7456,0.0006,0.0006,-0.0031,0.0083,0.0053,-0.0111,9.6795,0.0271,1.5422,0.0000,0.0000,-0.0000,1.0000,0.2420,0.0007,0.0386
371,Left,2,0.0132,0.0088,-0.8008,0.5987,0.0018,0.0037,0.0037,0.0091,-0.0054,-0.0740,-0.3063,0.0280,9.7339,0.0000,0.0000,0.0000,1.0000,-0.0076,0.0007,0.2433
372,Right,2,0.0135,0.0119,-0.3899,0.9207,0.0128,0.0012,0.0067,-0.0254,-0.0577,-0.1290,-0.2898,0.0920,9.6792,0.0002,0.0000,0.0001,1.0000,-0.0072,0.0023,0.2420
372,Pelvis,2,-0.1280,-0.6361,-0.1516,0.7456,0.0012,-0.0006,-0.0031,-0.0004,-0.0116,-0.0207,9.6698,0.0083,1.5422,0.0000,-0.0000,-0.0000,1.0000,0.2417,0.0002,0.0386
372,Left,2,0.0132,0.0088,-0.8008,0.5987,0.0018,0.0043,0.0024,0.0126,0.0044,-0.0640,-0.3171,0.0285,9.7435,0.0000,0.0001,0.0000,1.0000,-0.0079,0.0007,0.2436
373,Right,2,0.0135,0.0120,-0.3898,0.9207,0.0122,0.0012,0.0055,-0.0440,-0.0767,-0.1187,-0.2906,0.0661,9.6898,0.0002,0.0000,0.0001,1.0000,-0.0073,0.0016,0.2422
373,Pelvis,2,-0.1280,-0.6361,-0.1516,0.7456,-0.0000,0.0006,-0.0031,-0.0037,0.0012,-0.0095,9.6795,0.0189,1.5520,-0.0000,0.0000,-0.0000,1.0000,0.2420,0.0005,0.0388
373,Left,2,0.0132,0.0088,-0.8008,0.5987,0.0024,0.0037,0.0031,-0.0055,0.0105,-0.0542,-0.3184,0.0096,9.7533,0.0000,0.0000,0.0000,1.0000,-0.0079,0.0002,0.2438
374,Right,2,0.0135,0.0120,-0.3898,0.9207,0.0134,0.0012,0.0055,-0.0209,-0.0685,-0.1193,-0.2808,0.0886,9.6892,0.0002,0.0000,0.0001,1.0000,-0.0070,0.0022,0.2422
374,Pelvis,2,-0.1280,-0.6361,-0.1516,0.7456,0.0006,-0.0000,-0.0031,0.0092,-0.0143,-0.0222,9.6698,0.0098,1.5326,0.0000,-0.0000,-0.0000,1.0000,0.2417,0.0002,0.0383
374,Left,2,0.0132,0.0088,-0.8008,0.5987,0.0012,0.0024,0.0037,0.0111,-0.0034,-0.0740,-0.3090,0.0294,9.7338,0.0000,0.0000,0.0000,1.0000,-0.0077,0.0007,0.2433
375,Right,2,0.0135,0.0120,-0.3898,0.9207,0.0122,0.0012,0.0061,-0.0252,-0.0731,-0.1093,-0.2812,0.0823,9.6992,0.0002,0.0000,0.0001,1.0000,-0.0070,0.0020,0.2425
375,Pelvis,2,-0.1280,-0.6361,-0.1516,0.7456,0.0000,-0.0018,-0.0018,0.0059,-0.0015,-0.0111,9.6795,0.0203,1.5421,0.0000,-0.0000,-0.0000,1.0000,0.2420,0.0005,0.0386
375,Left,2,0.0132,0.0088,-0.8008,0.5987,0.0000,0.0043,0.0018,-0.0070,0.0026,-0.0544,-0.3102,0.0102,9.7534,0.0000,0.0001,0.0000,1.0000,-0.0077,0.0003,0.2438
376,Right,2,0.0134,0.0120,-0.3899,0.9207,0.0128,0.0012,0.0061,-0.0231,-0.0692,-0.1288,-0.2815,0.0847,9.6797,0.0002,0.0000,0.0001,1.0000,-0.0070,0.0021,0.2420
376,Pelvis,2,-0.1280,-0.6361,-0.1516,0.7456,0.0012,-0.0000,-0.0043,-0.0064,-0.0062,-0.0095,9.6797,0.0113,1.5516,0.0000,-0.0000,-0.0001,1.0000,0.2420,0.0003,0.0388
376,Left,2,0.0132,0.0088,-0.8008,0.5987,0.0012,0.0049,0.0055,-0.0062,0.0035,-0.0642,-0.3112,0.0103,9.7436,0.0000,0.0001,0.0001,1.0000,-0.0078,0.0003,0.2436
377,Right,2,0.0134,0.0121,-0.3900,0.9206,0.0116,0.0006,0.0061,-0.0181,-0.0682,-0.1190,-0.2817,0.0881,9.6894,0.0001,0.0000,0.0001,1.0000,-0.0070,0.0022,0.2422
377,Pelvis,2,-0.1280,-0.6361,-0.1516,0.7456,0.0006,-0.0006,-0.0024,-0.0008,0.0028,0.0001,9.6894,0.0220,1.5515,0.0000,-0.0000,-0.0000,1.0000,0.2422,0.0005,0.0388
377,Left,2,0.0132,0.0088,-0.8008,0.5987,0.0018,0.0031,0.0037,0.0038,0.0016,-0.0739,-0.3120,0.0204,9.7337,0.0000,0.0000,0.0000,1.0000,-0.0078,0.0005,0.2433
378,Right,2,0.0134,0.0124,-0.3901,0.9206,0.0116,0.0018,0.0049,-0.0185,-0.0733,-0.1091,-0.2822,0.0815,9.6995,0.0001,0.0000,0.0001,1.0000,-0.0070,0.0020,0.2425
378,Pelvis,2,-0.1280,-0.6361,-0.1516,0.7456,0.0018,-0.0006,-0.0031,0.0017,-0.0084,-0.0207,9.6699,0.0128,1.5417,0.0000,-0.0000,-0.0000,1.0000,0.2417,0.0003,0.0385
378,Left,2,0.0132,0.0088,-0.8008,0.5987,0.0006,0.0031,0.0018,-0.0105,-0.0137,-0.0646,-0.2934,0.0109,9.7437,0.0000,0.0000,0.0000,1.0000,-0.0073,0.0003,0.2436
379,Right,2,0.0133,0.0122,-0.3902,0.9205,0.0116,0.0006,0.0055,-0.0186,-0.0683,-0.1188,-0.2824,0.0840,9.6897,0.0001,0.0000,0.0001,1.0000,-0.0071,0.0021,0.2422
379,Pelvis,2,-0.1280,-0.6361,-0.1516,0.7457,0.0012,0.0006,-0.0018,0.0022,0.0134,-0.0096,9.6795,0.0330,1.5514,0.0000,0.0000,-0.0000,1.0000,0.2420,0.0008,0.0388
379,Left,2,0.0132,0.0088,-0.8008,0.5987,0.0012,0.0031,0.0055,-0.0041,0.0061,-0.0837,-0.3134,0.0112,9.7240,0.0000,0.0000,0.0001,1.0000,-0.0078,0.0003,0.2431
380,Right,2,0.0133,0.0120,-0.3902,0.9206,0.0128,0.0012,0.0067,-0.0280,-0.0711,-0.1283,-0.2828,0.0769,9.6802,0.0002,0.0000,0.0001,1.0000,-0.0071,0.0019,0.2420
380,Pelvis,2,-0.1280,-0.6361,-0.1516,0.7456,0.0006,-0.0012,-0.0018,-0.0125,-0.0008,0.0017,9.6895,0.0141,1.5611,0.0000,-0.0000,-0.0000,1.0000,0.2422,0.0003,0.0390
380,Left,2,0.0132,0.0088,-0.8008,0.5987,0.0012,0.0037,0.0037,0.0031,-0.0056,-0.0742,-0.3045,0.0212,9.7337,0.0000,0.0000,0.0000,1.0000,-0.0076,0.0005,0.2433
381,Right,2,0.0133,0.0121,-0.3902,0.9206,0.0122,0.0000,0.0067,-0.0110,-0.0707,-0.1190,-0.2730,0.0899,9.6896,0.0002,0.0000,0.0001,1.0000,-0.0068,0.0022,0.2422
381,Pelvis,2,-0.1280,-0.6361,-0.1516,0.7456,0.0012,-0.0006,-0.0031,-0.0033,-0.0041,0.0002,9.6895,0.0147,1.5511,0.0000,-0.0000,-0.0000,1.0000,0.2422,0.0004,0.0388
381,Left,2,0.0132,0.0088,-0.8008,0.5987,0.0012,0.0031,0.0031,-0.0027,0.0076,-0.0837,-0.3151,0.0118,9.7239,0.0000,0.0000,0.0000,1.0000,-0.0079,0.0003,0.2431
382,Right,2,0.0132,0.0121,-0.3904,0.9205,0.0116,0.0012,0.0055,-0.0347,-0.0659,-0.1180,-0.2930,0.0737,9.6902,0.0001,0.0000,0.0001,1.0000,-0.0073,0.0018,0.2423
382,Pelvis,2,-0.1280,-0.6361,-0.1516,0.7456,0.0006,-0.0006,-0.0024,0.0045,-0.0067,-0.0110,9.6797,0.0153,1.5412,0.0000,-0.0000,-0.0000,1.0000,0.2420,0.0004,0.0385
382,Left,2,0.0132,0.0088,-0.8008,0.5987,0.0031,0.0049,0.0024,0.0073,0.0050,-0.0642,-0.3161,0.0222,9.7434,0.0000,0.0001,0.0000,1.0000,-0.0079,0.0005,0.2436
383,Pelvis,2,-0.1280,-0.6361,-0.1516,0.7456,0.0012,-0.0006,-0.0031,-0.0017,0.0072,-0.0192,9.6699,0.0257,1.5508,0.0000,-0.0000,-0.0000,1.0000,0.2417,0.0006,0.0388
383,Left,2,0.0132,0.0088,-0.8008,0.5987,0.0024,0.0018,0.0031,-0.0071,-0.0101,-0.0646,-0.2975,0.0130,9.7436,0.0000,0.0000,0.0000,1.0000,-0.0074,0.0003,0.2436
384,Right,2,0.0132,0.0122,-0.3904,0.9205,0.0122,0.0018,0.0058,-0.0159,-0.0737,-0.1236,-0.2740,0.0825,9.6852,0.0003,0.0000,0.0001,1.0000,-0.0137,0.0040,0.4843
384,Pelvis,2,-0.1280,-0.6361,-0.1516,0.7456,0.0006,0.0006,-0.0037,-0.0125,0.0019,-0.0079,9.6798,0.0169,1.5606,0.0000,0.0000,-0.0000,1.0000,0.2420,0.0004,0.0390
384,Left,2,0.0132,0.0088,-0.8008,0.5987,0.0006,0.0043,0.0024,0.0058,-0.0027,-0.0742,-0.3078,0.0232,9.7336,0.0000,0.0001,0.0000,1.0000,-0.0077,0.0006,0.2433
385,Right,2,0.0133,0.0123,-0.3903,0.9205,0.0104,0.0019,0.0073,-0.0073,-0.0691,-0.1188,-0.2745,0.0918,9.6898,0.0001,0.0000,0.0001,1.0000,-0.0069,0.0023,0.2422
385,Pelvis,2,-0.1280,-0.6361,-0.1516,0.7456,0.0006,-0.0018,-0.0024,0.0144,-0.0088,-0.0126,9.6798,0.0176,1.5311,0.0000,-0.0000,-0.0000,1.0000,0.2420,0.0004,0.0383
385,Left,2,0.0132,0.0088,-0.8008,0.5987,0.0018,0.0018,0.0037,-0.0028,0.0009,-0.0741,-0.3087,0.0137,9.7337,0.0000,0.0000,0.0000,1.0000,-0.0077,0.0003,0.2433
386,Right,2,0.0131,0.0122,-0.3906,0.9204,0.0134,0.0012,0.0043,-0.0198,-0.0765,-0.1085,-0.2753,0.0756,9.7003,0.0002,0.0000,0.0001,1.0000,-0.0069,0.0018,0.2425
386,Pelvis,2,-0.1280,-0.6361,-0.1516,0.7456,0.0012,-0.0006,-0.0031,-0.0082,-0.0092,-0.0190,9.6702,0.0085,1.5504,0.0000,-0.0000,-0.0000,1.0000,0.2418,0.0002,0.0388
386,Left,2,0.0132,0.0088,-0.8008,0.5987,0.0018,0.0037,0.0024,0.0036,0.0203,-0.0737,-0.3289,0.0144,9.7334,0.0000,0.0000,0.0000,1.0000,-0.0082,0.0004,0.2433
387,Right,2,0.0132,0.0123,-0.3906,0.9204,0.0128,0.0006,0.0061,-0.0227,-0.0689,-0.1180,-0.2852,0.0786,9.6904,0.0002,0.0000,0.0001,1.0000,-0.0071,0.0019,0.2423
387,Pelvis,2,-0.1280,-0.6361,-0.1516,0.7456,0.0006,-0.0000,-0.0024,-0.0026,-0.0002,-0.0095,9.6799,0.0190,1.5503,0.0000,-0.0000,-0.0000,1.0000,0.2420,0.0005,0.0388
387,Left,2,0.0132,0.0088,-0.8008,0.5987,0.0012,0.0037,0.0024,-0.0108,0.0051,-0.0741,-0.3103,0.0048,9.7337,0.0000,0.0000,0.0000,1.0000,-0.0077,0.0001,0.2433
388,Right,2,0.0133,0.0124,-0.3905,0.9204,0.0128,0.0012,0.0055,-0.0268,-0.0618,-0.1079,-0.2952,0.0823,9.7001,0.0002,0.0000,0.0001,1.0000,-0.0074,0.0020,0.2425
388,Pelvis,2,-0.1280,-0.6361,-0.1517,0.7456,-0.0000,0.0006,-0.0037,0.0116,-0.0162,-0.0125,9.6799,0.0099,1.5309,-0.0000,0.0000,-0.0000,1.0000,0.2420,0.0002,0.0383
388,Left,2,0.0132,0.0088,-0.8008,0.5987,0.0018,0.0043,0.0043,0.0086,0.0001,-0.0742,-0.3111,0.0248,9.7335,0.0000,0.0001,0.0001,1.0000,-0.0078,0.0006,0.2433
389,Right,2,0.0133,0.0124,-0.3905,0.9204,0.0122,0.0018,0.0055,-0.0180,-0.0535,-0.1179,-0.2954,0.0947,9.6900,0.0002,0.0000,0.0001,1.0000,-0.0074,0.0023,0.2423
389,Pelvis,2,-0.1280,-0.6361,-0.1517,0.7456,0.0006,-0.0006,-0.0031,-0.0058,-0.0081,-0.0094,9.6799,0.0108,1.5504,0.0000,-0.0000,-0.0000,1.0000,0.2420,0.0003,0.0388
389,Left,2,0.0132,0.0088,-0.8008,0.5987,0.0012,0.0031,0.0037,-0.0001,0.0031,-0.0448,-0.3124,0.0156,9.7628,0.0000,0.0000,0.0000,1.0000,-0.0078,0.0004,0.2441
390,Right,2,0.0133,0.0125,-0.3906,0.9204,0.0122,0.0000,0.0061,-0.0153,-0.0652,-0.1375,-0.2859,0.0871,9.6708,0.0002,0.0000,0.0001,1.0000,-0.0071,0.0021,0.2418
390,Pelvis,2,-0.1280,-0.6361,-0.1517,0.7456,0.0012,0.0000,-0.0031,-0.0016,0.0015,-0.0095,9.6799,0.0214,1.5503,0.0000,0.0000,-0.0000,1.0000,0.2420,0.0005,0.0388
390,Left,2,0.0132,0.0088,-0.8008,0.5987,0.0024,0.0043,0.0037,0.0072,-0.0076,-0.0841,-0.3030,0.0255,9.7238,0.0000,0.0001,0.0000,1.0000,-0.0076,0.0006,0.2431
391,Right,2,0.0134,0.0125,-0.3906,0.9204,0.0110,0.0006,0.0055,-0.0062,-0.0714,-0.1085,-0.2763,0.0909,9.7001,0.0001,0.0000,0.0001,1.0000,-0.0069,0.0022,0.2425
391,Pelvis,2,-0.1280,-0.6361,-0.1517,0.7456,0.0006,-0.0000,-0.0024,-0.0013,0.0020,-0.0095,9.6798,0.0221,1.5503,0.0000,-0.0000,-0.0000,1.0000,0.2420,0.0005,0.0388
391,Left,2,0.0132,0.0088,-0.8008,0.5987,0.0006,0.0024,0.0024,0.0013,0.0049,-0.0644,-0.3139,0.0163,9.7433,0.0000,0.0000,0.0000,1.0000,-0.0078,0.0004,0.2436
392,Right,2,0.0134,0.0124,-0.3905,0.9204,0.0134,0.0018,0.0055,-0.0342,-0.0680,-0.1172,-0.2965,0.0743,9.6910,0.0002,0.0000,0.0001,1.0000,-0.0074,0.0018,0.2423
392,Pelvis,2,-0.1280,-0.6361,-0.1517,0.7456,0.0012,0.0000,-0.0018,-0.0024,0.0031,-0.0191,9.6701,0.0225,1.5503,0.0000,0.0000,-0.0000,1.0000,0.2418,0.0006,0.0388
392,Left,2,0.0132,0.0088,-0.8008,0.5987,0.0030,0.0030,0.0037,0.0085,-0.0064,-0.0744,-0.3046,0.0264,9.7335,0.0000,0.0000,0.0000,1.0000,-0.0076,0.0007,0.2433
393,Right,2,0.0134,0.0123,-0.3906,0.9204,0.0122,0.0012,0.0055,-0.0192,-0.0667,-0.1079,-0.2869,0.0874,9.7004,0.0002,0.0000,0.0001,1.0000,-0.0072,0.0021,0.2425
393,Pelvis,2,-0.1280,-0.6361,-0.1516,0.7456,0.0018,-0.0006,-0.0012,0.0208,-0.0167,-0.0237,9.6701,0.0131,1.5210,0.0000,-0.0000,-0.0000,1.0000,0.2418,0.0003,0.0380
393,Left,2,0.0131,0.0088,-0.8008,0.5987,0.0006,0.0031,0.0037,0.0027,0.0063,-0.0644,-0.3153,0.0173,9.7432,0.0000,0.0000,0.0000,1.0000,-0.0079,0.0004,0.2436
394,Right,2,0.0133,0.0122,-0.3907,0.9204,0.0128,0.0006,0.0061,-0.0253,-0.0686,-0.1272,-0.2872,0.0800,9.6812,0.0002,0.0000,0.0001,1.0000,-0.0072,0.0020,0.2420
394,Pelvis,2,-0.1280,-0.6361,-0.1516,0.7456,0.0000,-0.0006,-0.0018,-0.0017,0.0042,-0.0191,9.6701,0.0234,1.5501,0.0000,-0.0000,-0.0000,1.0000,0.2418,0.0006,0.0388
394,Left,2,0.0132,0.0088,-0.8008,0.5987,0.0024,0.0043,0.0024,0.0099,-0.0051,-0.0646,-0.3063,0.0273,9.7432,0.0000,0.0001,0.0000,1.0000,-0.0076,0.0007,0.2436
395,Right,2,0.0133,0.0124,-0.3907,0.9203,0.0128,0.0012,0.0067,-0.0210,-0.0807,-0.1174,-0.2779,0.0736,9.6914,0.0002,0.0000,0.0001,1.0000,-0.0069,0.0018,0.2423
395,Pelvis,2,-0.1280,-0.6361,-0.1516,0.7456,0.0006,-0.0006,-0.0037,0.0001,0.0042,-0.0095,9.6799,0.0241,1.5499,0.0000,-0.0000,-0.0000,1.0000,0.2420,0.0006,0.0387
395,Left,2,0.0131,0.0088,-0.8008,0.5987,0.0012,0.0024,0.0031,-0.0110,-0.0082,-0.0550,-0.2977,0.0082,9.7532,0.0000,0.0000,0.0000,1.0000,-0.0074,0.0002,0.2438
396,Right,2,0.0133,0.0121,-0.3909,0.9203,0.0122,0.0006,0.0055,-0.0231,-0.0616,-0.1369,-0.2876,0.0858,9.6714,0.0002,0.0000,0.0001,1.0000,-0.0072,0.0021,0.2418
396,Pelvis,2,-0.1280,-0.6361,-0.1516,0.7456,0.0012,0.0000,-0.0012,0.0055,-0.0080,-0.0109,9.6800,0.0150,1.5401,0.0000,0.0000,-0.0000,1.0000,0.2420,0.0004,0.0385
396,Left,2,0.0131,0.0088,-0.8008,0.5987,0.0006,0.0037,0.0024,0.0113,-0.0035,-0.0744,-0.3078,0.0280,9.7334,0.0000,0.0000,0.0000,1.0000,-0.0077,0.0007,0.2433
397,Right,2,0.0133,0.0120,-0.3909,0.9203,0.0122,0.0006,0.0061,-0.0233,-0.0722,-0.1174,-0.2782,0.0796,9.6913,0.0002,0.0000,0.0001,1.0000,-0.0070,0.0020,0.2423
397,Pelvis,2,-0.1280,-0.6361,-0.1516,0.7457,0.0006,-0.0000,-0.0024,-0.0119,0.0001,-0.0078,9.6800,0.0155,1.5596,0.0000,-0.0000,-0.0000,1.0000,0.2420,0.0004,0.0390
397,Left,2,0.0131,0.0088,-0.8008,0.5987,0.0018,0.0031,0.0037,0.0119,-0.0032,-0.0548,-0.3088,0.0284,9.7529,0.0000,0.0000,0.0000,1.0000,-0.0077,0.0007,0.2438
398,Right,2,0.0132,0.0120,-0.3909,0.9203,0.0104,0.0013,0.0067,-0.0141,-0.0636,-0.1274,-0.2782,0.0918,9.6811,0.0001,0.0000,0.0001,1.0000,-0.0070,0.0023,0.2420
398,Pelvis,2,-0.1280,-0.6361,-0.1516,0.7457,0.0006,-0.0000,-0.0018,-0.0181,0.0140,-0.0160,9.6702,0.0258,1.5694,0.0000,-0.0000,-0.0000,1.0000,0.2418,0.0006,0.0392
398,Left,2,0.0131,0.0088,-0.8008,0.5987,0.0012,0.0031,0.0024,0.0033,0.0006,-0.0646,-0.3095,0.0190,9.7432,0.0000,0.0000,0.0000,1.0000,-0.0077,0.0005,0.2436
399,Right,2,0.0132,0.0119,-0.3910,0.9202,0.0134,0.0006,0.0049,-0.0211,-0.0516,-0.1368,-0.2882,0.0945,9.6713,0.0002,0.0000,0.0001,1.0000,-0.0072,0.0023,0.2418
399,Pelvis,2,-0.1280,-0.6361,-0.1516,0.7457,-0.0000,0.0006,-0.0043,0.0042,-0.0159,-0.0012,9.6898,0.0070,1.5402,-0.0000,0.0000,-0.0001,1.0000,0.2422,0.0002,0.0385
399,Left,2,0.0131,0.0088,-0.8008,0.5987,0.0012,0.0043,0.0030,0.0039,0.0013,-0.0646,-0.3104,0.0193,9.7432,0.0000,0.0001,0.0000,1.0000,-0.0077,0.0005,0.2436
400,Right,2,0.0133,0.0117,-0.3908,0.9203,0.0122,-0.0006,0.0067,-0.0220,-0.0643,-0.1271,-0.2786,0.0881,9.6814,0.0002,-0.0000,0.0001,1.0000,-0.0070,0.0022,0.2420
400,Pelvis,2,-0.1280,-0.6361,-0.1517,0.7457,0.0012,0.0000,-0.0018,0.0018,0.0070,-0.0095,9.6799,0.0273,1.5500,0.0000,0.0000,-0.0000,1.0000,0.2420,0.0007,0.0387
400,Left,2,0.0131,0.0088,-0.8008,0.5987,0.0012,0.0049,0.0043,0.0047,0.0024,-0.0841,-0.3113,0.0195,9.7236,0.0000,0.0001,0.0001,1.0000,-0.0078,0.0005,0.2431
401,Right,2,0.0133,0.0117,-0.3908,0.9203,0.0116,0.0019,0.0073,-0.0281,-0.0678,-0.1170,-0.2790,0.0817,9.6916,0.0001,0.0000,0.0001,1.0000,-0.0070,0.0020,0.2423
401,Pelvis,2,-0.1280,-0.6361,-0.1517,0.7457,0.0018,-0.0006,-0.0024,-0.0105,0.0023,-0.0078,9.6800,0.0181,1.5597,0.0000,-0.0000,-0.0000,1.0000,0.2420,0.0004,0.0390
401,Left,2,0.0131,0.0088,-0.8008,0.5987,0.0024,0.0024,0.0031,0.0053,0.0029,-0.0743,-0.3123,0.0200,9.7333,0.0000,0.0000,0.0000,1.0000,-0.0078,0.0005,0.2433
402,Right,2,0.0133,0.0116,-0.3908,0.9203,0.0122,0.0024,0.0055,-0.0278,-0.0661,-0.1365,-0.2794,0.0838,9.6720,0.0002,0.0000,0.0001,1.0000,-0.0070,0.0021,0.2418
402,Pelvis,2,-0.1280,-0.6361,-0.1517,0.7457,-0.0000,-0.0000,-0.0018,-0.0102,0.0029,-0.0078,9.6800,0.0187,1.5596,-0.0000,-0.0000,-0.0000,1.0000,0.2420,0.0005,0.0390
402,Left,2,0.0131,0.0088,-0.8008,0.5987,0.0024,0.0037,0.0031,-0.0034,0.0059,-0.0450,-0.3135,0.0111,9.7627,0.0000,0.0000,0.0000,1.0000,-0.0078,0.0003,0.2441
403,Right,2,0.0132,0.0117,-0.3909,0.9202,0.0128,0.0018,0.0067,-0.0367,-0.0750,-0.1067,-0.2804,0.0686,9.7021,0.0002,0.0000,0.0001,1.0000,-0.0070,0.0017,0.2426
403,Pelvis,2,-0.1280,-0.6361,-0.1516,0.7457,0.0018,-0.0006,-0.0024,0.0041,-0.0131,-0.0109,9.6801,0.0094,1.5401,0.0000,-0.0000,-0.0000,1.0000,0.2420,0.0002,0.0385
403,Left,2,0.0131,0.0088,-0.8008,0.5987,0.0018,0.0037,0.0031,0.0131,-0.0078,-0.0746,-0.3041,0.0309,9.7333,0.0000,0.0000,0.0000,1.0000,-0.0076,0.0008,0.2433
404,Right,2,0.0132,0.0115,-0.3909,0.9203,0.0116,0.0006,0.0061,-0.0318,-0.0648,-0.1167,-0.2805,0.0809,9.6919,0.0001,0.0000,0.0001,1.0000,-0.0070,0.0020,0.2423
404,Pelvis,2,-0.1280,-0.6361,-0.1517,0.7457,0.0012,0.0006,-0.0031,-0.0095,0.0040,-0.0078,9.6800,0.0200,1.5596,0.0000,0.0000,-0.0000,1.0000,0.2420,0.0005,0.0390
404,Left,2,0.0131,0.0088,-0.8008,0.5987,0.0018,0.0024,0.0043,0.0138,-0.0073,-0.0648,-0.3049,0.0314,9.7431,0.0000,0.0000,0.0001,1.0000,-0.0076,0.0008,0.2436
405,Right,2,0.0133,0.0115,-0.3906,0.9204,0.0122,0.0012,0.0061,-0.0305,-0.0657,-0.1167,-0.2807,0.0839,9.6918,0.0002,0.0000,0.0001,1.0000,-0.0070,0.0021,0.2423
405,Pelvis,2,-0.1280,-0.6361,-0.1516,0.7457,0.0012,0.0000,-0.0018,-0.0041,-0.0082,-0.0093,9.6801,0.0108,1.5499,0.0000,0.0000,-0.0000,1.0000,0.2420,0.0003,0.0387
405,Left,2,0.0131,0.0088,-0.8008,0.5987,0.0012,0.0037,0.0024,0.0173,0.0025,-0.0548,-0.3156,0.0320,9.7527,0.0000,0.0000,0.0000,1.0000,-0.0079,0.0008,0.2438
406,Right,2,0.0133,0.0117,-0.3907,0.9203,0.0128,0.0018,0.0061,-0.0324,-0.0712,-0.1066,-0.2813,0.0776,9.7020,0.0002,0.0000,0.0001,1.0000,-0.0070,0.0019,0.2425
406,Pelvis,2,-0.1280,-0.6361,-0.1517,0.7457,0.0006,-0.0006,-0.0037,0.0202,0.0033,-0.0222,9.6701,0.0309,1.5303,0.0000,-0.0000,-0.0000,1.0000,0.2418,0.0008,0.0383
406,Left,2,0.0131,0.0088,-0.8008,0.5987,0.0018,0.0037,0.0031,0.0030,-0.0122,-0.0747,-0.2968,0.0223,9.7334,0.0000,0.0000,0.0000,1.0000,-0.0074,0.0006,0.2433
407,Right,2,0.0133,0.0118,-0.3909,0.9203,0.0122,0.0018,0.0067,-0.0425,-0.0684,-0.1256,-0.2916,0.0703,9.6828,0.0002,0.0000,0.0001,1.0000,-0.0073,0.0017,0.2421
407,Pelvis,2,-0.1280,-0.6361,-0.1516,0.7457,0.0012,0.0006,-0.0006,-0.0085,0.0056,-0.0078,9.6800,0.0218,1.5596,0.0000,0.0000,-0.0000,1.0000,0.2420,0.0005,0.0390
407,Left,2,0.0131,0.0088,-0.8008,0.5987,0.0018,0.0024,0.0024,0.0065,-0.0021,-0.0745,-0.3073,0.0228,9.7333,0.0000,0.0000,0.0000,1.0000,-0.0077,0.0006,0.2433
408,Right,2,0.0132,0.0118,-0.3912,0.9201,0.0122,0.0006,0.0055,-0.0187,-0.0717,-0.1264,-0.2722,0.0826,9.6824,0.0002,0.0000,0.0001,1.0000,-0.0068,0.0020,0.2421
408,Pelvis,2,-0.1280,-0.6361,-0.1517,0.7457,0.0006,-0.0006,-0.0024,-0.0016,-0.0071,0.0003,9.6898,0.0125,1.5498,0.0000,-0.0000,-0.0000,1.0000,0.2422,0.0003,0.0387
408,Left,2,0.0131,0.0088,-0.8008,0.5987,0.0024,0.0037,0.0043,-0.0021,0.0018,-0.0940,-0.3079,0.0135,9.7138,0.0000,0.0000,0.0001,1.0000,-0.0077,0.0003,0.2428
409,Right,2,0.0132,0.0120,-0.3912,0.9202,0.0128,0.0031,0.0073,-0.0285,-0.0707,-0.1160,-0.2826,0.0766,9.6925,0.0002,0.0000,0.0001,1.0000,-0.0071,0.0019,0.2423
409,Pelvis,2,-0.1280,-0.6361,-0.1516,0.7457,0.0018,-0.0006,-0.0024,0.0011,0.0029,-0.0094,9.6800,0.0229,1.5497,0.0000,-0.0000,-0.0000,1.0000,0.2420,0.0006,0.0387
409,Left,2,0.0131,0.0088,-0.8008,0.5987,0.0018,0.0031,0.0037,0.0108,0.0086,-0.0743,-0.3186,0.0240,9.7331,0.0000,0.0000,0.0000,1.0000,-0.0080,0.0006,0.2433
410,Right,2,0.0132,0.0118,-0.3912,0.9201,0.0140,-0.0007,0.0049,-0.0213,-0.0602,-0.1163,-0.2827,0.0896,9.6921,0.0002,-0.0000,0.0001,1.0000,-0.0071,0.0022,0.2423
410,Pelvis,2,-0.1280,-0.6361,-0.1516,0.7457,0.0006,-0.0012,-0.0031,0.0065,-0.0093,-0.0109,9.6801,0.0138,1.5397,0.0000,-0.0000,-0.0000,1.0000,0.2420,0.0003,0.0385
410,Left,2,0.0131,0.0088,-0.8008,0.5987,0.0012,0.0043,0.0037,0.0086,-0.0004,-0.0550,-0.3100,0.0244,9.7527,0.0000,0.0001,0.0000,1.0000,-0.0077,0.0006,0.2438
411,Right,2,0.0132,0.0119,-0.3914,0.9201,0.0122,0.0018,0.0049,-0.0319,-0.0710,-0.1254,-0.2832,0.0729,9.6831,0.0002,0.0000,0.0001,1.0000,-0.0071,0.0018,0.2421
411,Pelvis,2,-0.1280,-0.6361,-0.1516,0.7457,0.0006,-0.0006,-0.0031,-0.0124,-0.0006,-0.0174,9.6704,0.0145,1.5590,0.0000,-0.0000,-0.0000,1.0000,0.2418,0.0004,0.0390
411,Left,2,0.0131,0.0088,-0.8008,0.5987,0.0018,0.0049,0.0024,0.0028,0.0127,-0.0645,-0.3209,0.0151,9.7429,0.0000,0.0001,0.0000,1.0000,-0.0080,0.0004,0.2436
412,Right,2,0.0132,0.0118,-0.3913,0.9201,0.0122,0.0006,0.0061,-0.0446,-0.0681,-0.1053,-0.2935,0.0672,9.7030,0.0002,0.0000,0.0001,1.0000,-0.0073,0.0016,0.2426
412,Pelvis,2,-0.1280,-0.6361,-0.1517,0.7457,-0.0000,-0.0000,-0.0031,-0.0082,0.0089,-0.0175,9.6703,0.0250,1.5589,-0.0000,-0.0000,-0.0000,1.0000,0.2418,0.0006,0.0390
412,Left,2,0.0131,0.0088,-0.8008,0.5987,0.0012,0.0037,0.0037,0.0099,0.0013,-0.0648,-0.3120,0.0252,9.7429,0.0000,0.0000,0.0000,1.0000,-0.0078,0.0006,0.2436
413,Right,2,0.0131,0.0119,-0.3915,0.9200,0.0140,0.0012,0.0061,-0.0198,-0.0727,-0.1062,-0.2740,0.0798,9.7026,0.0002,0.0000,0.0001,1.0000,-0.0068,0.0020,0.2426
413,Pelvis,2,-0.1280,-0.6361,-0.1517,0.7457,0.0018,-0.0006,-0.0037,0.0075,-0.0076,-0.0109,9.6802,0.0161,1.5393,0.0000,-0.0000,-0.0000,1.0000,0.2420,0.0004,0.0385
413,Left,2,0.0131,0.0088,-0.8008,0.5987,0.0024,0.0030,0.0037,-0.0081,0.0077,-0.0647,-0.3131,0.0061,9.7430,0.0000,0.0000,0.0000,1.0000,-0.0078,0.0001,0.2436
414,Right,2,0.0132,0.0119,-0.3913,0.9201,0.0122,0.0012,0.0049,-0.0204,-0.0720,-0.1257,-0.2742,0.0821,9.6831,0.0002,0.0000,0.0001,1.0000,-0.0069,0.0020,0.2421
414,Pelvis,2,-0.1280,-0.6361,-0.1517,0.7457,-0.0000,-0.0000,-0.0031,-0.0010,-0.0033,-0.0093,9.6802,0.0170,1.5490,-0.0000,-0.0000,-0.0000,1.0000,0.2420,0.0004,0.0387
414,Left,2,0.0131,0.0088,-0.8008,0.5987,0.0012,0.0037,0.0037,-0.0074,0.0084,-0.0647,-0.3139,0.0066,9.7430,0.0000,0.0000,0.0000,1.0000,-0.0078,0.0002,0.2436
415,Right,2,0.0132,0.0119,-0.3913,0.9201,0.0122,0.0013,0.0073,-0.0383,-0.0620,-0.1150,-0.2942,0.0762,9.6932,0.0002,0.0000,0.0001,1.0000,-0.0074,0.0019,0.2423
415,Pelvis,2,-0.1280,-0.6361,-0.1517,0.7457,0.0018,-0.0012,-0.0024,-0.0060,-0.0112,-0.0189,9.6706,0.0079,1.5489,0.0000,-0.0000,-0.0000,1.0000,0.2418,0.0002,0.0387
415,Left,2,0.0131,0.0088,-0.8008,0.5987,0.0006,0.0037,0.0037,0.0055,0.0158,-0.0743,-0.3243,0.0167,9.7330,0.0000,0.0000,0.0000,1.0000,-0.0081,0.0004,0.2433
416,Right,2,0.0132,0.0119,-0.3913,0.9201,0.0122,0.0018,0.0055,-0.0296,-0.0796,-0.1055,-0.2753,0.0695,9.7034,0.0002,0.0000,0.0001,1.0000,-0.0069,0.0017,0.2426
416,Pelvis,2,-0.1280,-0.6361,-0.1517,0.7457,0.0018,-0.0006,-0.0024,0.0212,-0.0008,-0.0125,9.6801,0.0281,1.5291,0.0000,-0.0000,-0.0000,1.0000,0.2420,0.0007,0.0382
416,Left,2,0.0131,0.0088,-0.8008,0.5987,0.0024,0.0024,0.0018,0.0126,0.0039,-0.0550,-0.3154,0.0268,9.7526,0.0000,0.0000,0.0000,1.0000,-0.0079,0.0007,0.2438
417,Right,2,0.0132,0.0118,-0.3913,0.9201,0.0116,0.0007,0.0073,-0.0360,-0.0708,-0.1247,-0.2853,0.0718,9.6838,0.0001,0.0000,0.0001,1.0000,-0.0071,0.0018,0.2421
417,Pelvis,2,-0.1280,-0.6361,-0.1517,0.7457,0.0006,-0.0006,-0.0024,-0.0230,-0.0026,-0.0158,9.6706,0.0092,1.5681,0.0000,-0.0000,-0.0000,1.0000,0.2418,0.0002,0.0392
417,Left,2,0.0131,0.0088,-0.8008,0.5987,0.0018,0.0055,0.0037,0.0076,-0.0137,-0.0749,-0.2966,0.0270,9.7333,0.0000,0.0001,0.0000,1.0000,-0.0074,0.0007,0.2433
418,Right,2,0.0132,0.0118,-0.3914,0.9201,0.0116,0.0031,0.0061,-0.0278,-0.0611,-0.1152,-0.2856,0.0848,9.6931,0.0001,0.0000,0.0001,1.0000,-0.0071,0.0021,0.2423
418,Pelvis,2,-0.1280,-0.6361,-0.1517,0.7457,-0.0000,-0.0006,-0.0043,-0.0138,-0.0058,-0.0173,9.6706,0.0100,1.5582,-0.0000,-0.0000,-0.0001,1.0000,0.2418,0.0002,0.0390
418,Left,2,0.0131,0.0088,-0.8008,0.5987,0.0018,0.0043,0.0031,0.0140,0.0057,-0.0745,-0.3173,0.0277,9.7330,0.0000,0.0001,0.0000,1.0000,-0.0079,0.0007,0.2433
419,Right,2,0.0131,0.0118,-0.3914,0.9200,0.0134,0.0006,0.0067,-0.0325,-0.0641,-0.1247,-0.2862,0.0777,9.6838,0.0002,0.0000,0.0001,1.0000,-0.0072,0.0019,0.2421
419,Pelvis,2,-0.1280,-0.6361,-0.1517,0.7456,0.0006,-0.0018,-0.0024,0.0095,-0.0044,-0.0109,9.6803,0.0206,1.5383,0.0000,-0.0000,-0.0000,1.0000,0.2420,0.0005,0.0385
419,Left,2,0.0131,0.0088,-0.8008,0.5987,0.0024,0.0037,0.0037,0.0025,-0.0001,-0.0747,-0.3086,0.0184,9.7331,0.0000,0.0000,0.0000,1.0000,-0.0077,0.0005,0.2433
420,Right,2,0.0132,0.0119,-0.3913,0.9201,0.0122,0.0006,0.0061,-0.0297,-0.0784,-0.1246,-0.2768,0.0709,9.6842,0.0002,0.0000,0.0001,1.0000,-0.0069,0.0017,0.2421
420,Pelvis,2,-0.1280,-0.6361,-0.1517,0.7456,0.0012,-0.0012,-0.0031,-0.0132,-0.0047,-0.0173,9.6708,0.0115,1.5575,0.0000,-0.0000,-0.0000,1.0000,0.2418,0.0003,0.0389
420,Left,2,0.0131,0.0088,-0.8008,0.5987,0.0018,0.0030,0.0018,0.0031,0.0005,-0.0649,-0.3096,0.0190,9.7429,0.0000,0.0000,0.0000,1.0000,-0.0077,0.0005,0.2436
421,Right,2,0.0133,0.0119,-0.3913,0.9201,0.0122,0.0006,0.0061,-0.0138,-0.0771,-0.1252,-0.2669,0.0834,9.6838,0.0002,0.0000,0.0001,1.0000,-0.0067,0.0020,0.2421
421,Pelvis,2,-0.1280,-0.6361,-0.1517,0.7456,0.0000,-0.0006,-0.0018,-0.0025,-0.0085,-0.0092,9.6805,0.0122,1.5475,0.0000,-0.0000,-0.0000,1.0000,0.2420,0.0003,0.0387
421,Left,2,0.0131,0.0088,-0.8008,0.5987,0.0012,0.0043,0.0024,-0.0055,0.0040,-0.0648,-0.3106,0.0096,9.7429,0.0000,0.0001,0.0000,1.0000,-0.0078,0.0002,0.2436
422,Right,2,0.0132,0.0120,-0.3913,0.9201,0.0116,0.0012,0.0055,-0.0308,-0.0537,-0.1341,-0.2964,0.0865,9.6739,0.0001,0.0000,0.0001,1.0000,-0.0074,0.0021,0.2418
422,Pelvis,2,-0.1280,-0.6361,-0.1517,0.7456,0.0012,-0.0018,-0.0018,0.0029,-0.0207,-0.0107,9.6807,0.0029,1.5375,0.0000,-0.0000,-0.0000,1.0000,0.2420,0.0001,0.0384
422,Left,2,0.0131,0.0088,-0.8008,0.5987,0.0012,0.0024,0.0031,0.0016,-0.0073,-0.0748,-0.3014,0.0195,9.7332,0.0000,0.0000,0.0000,1.0000,-0.0075,0.0005,0.2433
423,Right,2,0.0133,0.0120,-0.3913,0.9201,0.0134,-0.0006,0.0074,-0.0292,-0.0662,-0.1243,-0.2870,0.0801,9.6841,0.0002,-0.0000,0.0001,1.0000,-0.0072,0.0020,0.2421
423,Pelvis,2,-0.1280,-0.6361,-0.1517,0.7456,0.0006,-0.0000,-0.0024,-0.0121,-0.0031,-0.0173,9.6709,0.0132,1.5568,0.0000,-0.0000,-0.0000,1.0000,0.2418,0.0003,0.0389
423,Left,2,0.0131,0.0088,-0.8008,0.5987,0.0024,0.0030,0.0031,0.0023,-0.0071,-0.0455,-0.3024,0.0202,9.7625,0.0000,0.0000,0.0000,1.0000,-0.0076,0.0005,0.2441
424,Right,2,0.0134,0.0120,-0.3912,0.9201,0.0122,0.0006,0.0055,-0.0346,-0.0721,-0.1142,-0.2872,0.0740,9.6943,0.0002,0.0000,0.0001,1.0000,-0.0072,0.0018,0.2424
424,Pelvis,2,-0.1280,-0.6361,-0.1517,0.7456,0.0012,-0.0012,-0.0043,0.0104,-0.0117,0.0085,9.7002,0.0142,1.5370,0.0000,-0.0000,-0.0001,1.0000,0.2425,0.0003,0.0384
424,Left,2,0.0131,0.0088,-0.8008,0.5987,0.0012,0.0049,0.0030,0.0030,-0.0062,-0.0553,-0.3033,0.0206,9.7527,0.0000,0.0001,0.0000,1.0000,-0.0076,0.0005,0.2438
425,Right,2,0.0134,0.0119,-0.3913,0.9201,0.0122,0.0012,0.0055,-0.0276,-0.0904,-0.1241,-0.2681,0.0663,9.6851,0.0002,0.0000,0.0001,1.0000,-0.0067,0.0016,0.2421
425,Pelvis,2,-0.1280,-0.6361,-0.1517,0.7456,0.0012,0.0012,-0.0031,-0.0100,-0.0025,-0.0077,9.6807,0.0150,1.5566,0.0000,0.0000,-0.0000,1.0000,0.2420,0.0004,0.0389
425,Left,2,0.0131,0.0088,-0.8008,0.5987,0.0000,0.0037,0.0030,-0.0028,0.0072,-0.0844,-0.3138,0.0109,9.7233,0.0000,0.0000,0.0000,1.0000,-0.0078,0.0003,0.2431
426,Right,2,0.0134,0.0120,-0.3913,0.9201,0.0122,0.0012,0.0055,-0.0166,-0.0683,-0.1342,-0.2776,0.0885,9.6743,0.0002,0.0000,0.0001,1.0000,-0.0069,0.0022,0.2419
426,Pelvis,2,-0.1280,-0.6361,-0.1517,0.7456,-0.0000,-0.0000,-0.0031,-0.0236,0.0146,-0.0046,9.6806,0.0256,1.5762,-0.0000,-0.0000,-0.0000,1.0000,0.2420,0.0006,0.0394
426,Left,2,0.0131,0.0088,-0.8008,0.5987,0.0018,0.0037,0.0037,-0.0079,-0.0112,-0.0554,-0.2956,0.0111,9.7528,0.0000,0.0000,0.0000,1.0000,-0.0074,0.0003,0.2438
427,Right,2,0.0134,0.0121,-0.3913,0.9201,0.0116,0.0012,0.0055,-0.0356,-0.0723,-0.1430,-0.2881,0.0717,9.6654,0.0001,0.0000,0.0001,1.0000,-0.0072,0.0018,0.2416
427,Pelvis,2,-0.1280,-0.6361,-0.1516,0.7457,-0.0000,-0.0000,-0.0018,0.0019,-0.0043,0.0004,9.6904,0.0165,1.5470,-0.0000,-0.0000,-0.0000,1.0000,0.2423,0.0004,0.0387
427,Left,2,0.0131,0.0088,-0.8008,0.5987,0.0018,0.0037,0.0018,0.0050,-0.0039,-0.0651,-0.3060,0.0214,9.7428,0.0000,0.0000,0.0000,1.0000,-0.0076,0.0005,0.2436
428,Right,2,0.0133,0.0121,-0.3914,0.9201,0.0128,0.0006,0.0061,-0.0252,-0.0625,-0.1238,-0.2882,0.0854,9.6844,0.0002,0.0000,0.0001,1.0000,-0.0072,0.0021,0.2421
428,Pelvis,2,-0.1280,-0.6361,-0.1516,0.7456,0.0012,-0.0012,-0.0024,0.0046,0.0058,-0.0093,9.6805,0.0267,1.5468,0.0000,-0.0000,-0.0000,1.0000,0.2420,0.0007,0.0387
428,Left,2,0.0132,0.0088,-0.8008,0.5988,0.0018,0.0031,0.0031,-0.0059,-0.0014,-0.0650,-0.3069,0.0121,9.7428,0.0000,0.0000,0.0000,1.0000,-0.0077,0.0003,0.2436
429,Right,2,0.0133,0.0121,-0.3914,0.9201,0.0134,0.0012,0.0055,-0.0217,-0.0740,-0.1237,-0.2788,0.0786,9.6849,0.0002,0.0000,0.0001,1.0000,-0.0070,0.0019,0.2421
429,Pelvis,2,-0.1280,-0.6361,-0.1516,0.7456,0.0012,-0.0006,-0.0031,-0.0181,0.0055,-0.0158,9.6709,0.0176,1.5662,0.0000,-0.0000,-0.0000,1.0000,0.2418,0.0004,0.0392
429,Left,2,0.0132,0.0088,-0.8008,0.5988,0.0018,0.0043,0.0037,-0.0052,-0.0007,-0.0650,-0.3078,0.0126,9.7428,0.0000,0.0001,0.0000,1.0000,-0.0077,0.0003,0.2436
430,Right,2,0.0132,0.0121,-0.3915,0.9200,0.0122,0.0012,0.0055,-0.0194,-0.0709,-0.1237,-0.2791,0.0818,9.6849,0.0002,0.0000,0.0001,1.0000,-0.0070,0.0020,0.2421
430,Pelvis,2,-0.1280,-0.6361,-0.1516,0.7457,0.0006,-0.0006,-0.0006,-0.0163,0.0055,-0.0061,9.6807,0.0182,1.5660,0.0000,-0.0000,-0.0000,1.0000,0.2420,0.0005,0.0392
430,Left,2,0.0133,0.0088,-0.8008,0.5988,0.0018,0.0049,0.0037,-0.0046,-0.0002,-0.0552,-0.3090,0.0131,9.7525,0.0000,0.0001,0.0000,1.0000,-0.0077,0.0003,0.2438
431,Right,2,0.0132,0.0123,-0.3915,0.9200,0.0128,0.0006,0.0055,-0.0138,-0.0547,-0.1238,-0.2888,0.0948,9.6843,0.0002,0.0000,0.0001,1.0000,-0.0072,0.0023,0.2421
431,Pelvis,2,-0.1280,-0.6361,-0.1516,0.7457,0.0018,0.0000,-0.0037,0.0056,0.0075,-0.0093,9.6806,0.0284,1.5463,0.0000,0.0000,-0.0000,1.0000,0.2420,0.0007,0.0387
431,Left,2,0.0133,0.0088,-0.8008,0.5988,0.0024,0.0018,0.0031,0.0054,-0.0025,-0.0455,-0.3099,0.0235,9.7622,0.0000,0.0000,0.0000,1.0000,-0.0077,0.0006,0.2441
432,Right,2,0.0131,0.0123,-0.3916,0.9199,0.0128,0.0012,0.0061,-0.0118,-0.0790,-0.1236,-0.2700,0.0780,9.6854,0.0002,0.0000,0.0001,1.0000,-0.0067,0.0019,0.2421
432,Pelvis,2,-0.1280,-0.6361,-0.1516,0.7457,0.0006,-0.0006,-0.0024,-0.0022,0.0006,-0.0382,9.6514,0.0191,1.5464,0.0000,-0.0000,-0.0000,1.0000,0.2413,0.0005,0.0387
432,Left,2,0.0133,0.0088,-0.8008,0.5988,0.0018,0.0055,0.0037,-0.0061,-0.0079,-0.0652,-0.3008,0.0140,9.7429,0.0000,0.0001,0.0000,1.0000,-0.0075,0.0003,0.2436
433,Right,2,0.0130,0.0124,-0.3919,0.9198,0.0116,0.0030,0.0048,-0.0148,-0.0669,-0.1233,-0.2803,0.0812,9.6853,0.0001,0.0000,0.0001,1.0000,-0.0070,0.0020,0.2421
433,Pelvis,2,-0.1280,-0.6361,-0.1516,0.7456,0.0006,-0.0018,-0.0024,-0.0013,-0.0094,-0.0091,9.6809,0.0103,1.5460,0.0000,-0.0000,-0.0000,1.0000,0.2420,0.0002,0.0387
433,Left,2,0.0133,0.0088,-0.8008,0.5988,0.0030,0.0030,0.0037,-0.0054,-0.0072,-0.0652,-0.3019,0.0147,9.7428,0.0000,0.0000,0.0000,1.0000,-0.0075,0.0004,0.2436
434,Right,2,0.0128,0.0124,-0.3922,0.9197,0.0122,-0.0000,0.0055,-0.0245,-0.0619,-0.1128,-0.2907,0.0752,9.6954,0.0002,-0.0000,0.0001,1.0000,-0.0073,0.0018,0.2424
434,Pelvis,2,-0.1280,-0.6361,-0.1516,0.7456,-0.0006,0.0006,-0.0031,0.0067,0.0091,-0.0093,9.6807,0.0305,1.5458,-0.0000,0.0000,-0.0000,1.0000,0.2420,0.0008,0.0386
434,Left,2,0.0133,0.0088,-0.8008,0.5988,0.0012,0.0037,0.0030,0.0168,-0.0029,-0.0651,-0.3122,0.0349,9.7425,0.0000,0.0000,0.0000,1.0000,-0.0078,0.0009,0.2436
435,Right,2,0.0128,0.0125,-0.3923,0.9197,0.0116,0.0006,0.0061,-0.0203,-0.0739,-0.1127,-0.2812,0.0681,9.6960,0.0001,0.0000,0.0001,1.0000,-0.0070,0.0017,0.2424
435,Pelvis,2,-0.1280,-0.6361,-0.1516,0.7457,0.0012,0.0000,-0.0031,0.0083,-0.0121,-0.0107,9.6809,0.0117,1.5362,0.0000,0.0000,-0.0000,1.0000,0.2420,0.0003,0.0384
435,Left,2,0.0133,0.0088,-0.8008,0.5988,0.0006,0.0043,0.0024,-0.0012,0.0034,-0.0552,-0.3136,0.0156,9.7524,0.0000,0.0001,0.0000,1.0000,-0.0078,0.0004,0.2438
436,Right,2,0.0128,0.0125,-0.3923,0.9197,0.0122,0.0018,0.0061,-0.0135,-0.0651,-0.1423,-0.2811,0.0793,9.6662,0.0002,0.0000,0.0001,1.0000,-0.0070,0.0019,0.2417
436,Pelvis,2,-0.1280,-0.6361,-0.1516,0.7457,0.0018,0.0000,-0.0031,0.0022,0.0018,-0.0189,9.6710,0.0222,1.5460,0.0000,0.0000,-0.0000,1.0000,0.2418,0.0005,0.0386
436,Left,2,0.0133,0.0088,-0.8008,0.5988,0.0012,0.0037,0.0037,-0.0034,-0.0047,-0.0847,-0.3043,0.0155,9.7232,0.0000,0.0000,0.0000,1.0000,-0.0076,0.0004,0.2431
437,Right,2,0.0129,0.0126,-0.3923,0.9197,0.0134,0.0012,0.0055,-0.0239,-0.0776,-0.1318,-0.2820,0.0634,9.6769,0.0002,0.0000,0.0001,1.0000,-0.0070,0.0015,0.2419
437,Pelvis,2,-0.1280,-0.6361,-0.1516,0.7457,0.0018,0.0000,-0.0024,-0.0102,-0.0028,-0.0172,9.6711,0.0132,1.5558,0.0000,0.0000,-0.0000,1.0000,0.2418,0.0003,0.0389
437,Left,2,0.0133,0.0088,-0.8008,0.5988,0.0012,0.0024,0.0031,0.0001,0.0053,-0.0845,-0.3148,0.0160,9.7230,0.0000,0.0000,0.0000,1.0000,-0.0079,0.0004,0.2431
438,Right,2,0.0129,0.0125,-0.3923,0.9197,0.0122,0.0018,0.0061,-0.0150,-0.0548,-0.1225,-0.2917,0.0868,9.6856,0.0002,0.0000,0.0001,1.0000,-0.0073,0.0021,0.2421
438,Pelvis,2,-0.1280,-0.6361,-0.1516,0.7457,0.0006,0.0012,-0.0049,0.0043,0.0024,-0.0092,9.6807,0.0239,1.5461,0.0000,0.0000,-0.0001,1.0000,0.2420,0.0006,0.0386
438,Left,2,0.0132,0.0088,-0.8008,0.5988,0.0006,0.0037,0.0030,-0.0085,0.0087,-0.0747,-0.3159,0.0065,9.7329,0.0000,0.0000,0.0000,1.0000,-0.0079,0.0002,0.2433
439,Right,2,0.0128,0.0127,-0.3923,0.9197,0.0122,0.0018,0.0055,-0.0181,-0.0729,-0.1220,-0.2829,0.0701,9.6866,0.0002,0.0000,0.0001,1.0000,-0.0071,0.0017,0.2422
439,Pelvis,2,-0.1280,-0.6361,-0.1516,0.7457,0.0012,-0.0018,-0.0018,-0.0080,-0.0023,-0.0076,9.6809,0.0151,1.5558,0.0000,-0.0000,-0.0000,1.0000,0.2420,0.0004,0.0389
439,Left,2,0.0133,0.0088,-0.8008,0.5988,0.0024,0.0043,0.0031,0.0079,-0.0058,-0.0652,-0.3070,0.0264,9.7426,0.0000,0.0001,0.0000,1.0000,-0.0077,0.0007,0.2436
440,Right,2,0.0128,0.0127,-0.3924,0.9196,0.0122,0.0006,0.0055,-0.0086,-0.0637,-0.1224,-0.2829,0.0828,9.6861,0.0002,0.0000,0.0001,1.0000,-0.0071,0.0020,0.2422
440,Pelvis,2,-0.1280,-0.6361,-0.1517,0.7457,0.0012,-0.0000,-0.0043,-0.0053,0.0078,-0.0173,9.6710,0.0255,1.5556,0.0000,-0.0000,-0.0001,1.0000,0.2418,0.0006,0.0389
440,Left,2,0.0133,0.0088,-0.8008,0.5988,0.0018,0.0043,0.0037,-0.0101,0.0008,-0.0749,-0.3081,0.0074,9.7329,0.0000,0.0001,0.0000,1.0000,-0.0077,0.0002,0.2433
441,Right,2,0.0127,0.0127,-0.3925,0.9196,0.0122,-0.0000,0.0055,-0.0040,-0.0469,-0.1127,-0.2925,0.0963,9.6952,0.0002,-0.0000,0.0001,1.0000,-0.0073,0.0024,0.2424
441,Pelvis,2,-0.1280,-0.6361,-0.1517,0.7457,0.0000,-0.0012,-0.0018,0.0015,-0.0049,-0.0091,9.6809,0.0166,1.5457,0.0000,-0.0000,-0.0000,1.0000,0.2420,0.0004,0.0386
441,Left,2,0.0133,0.0088,-0.8008,0.5988,0.0012,0.0037,0.0030,0.0092,-0.0043,-0.0750,-0.3088,0.0273,9.7328,0.0000,0.0000,0.0000,1.0000,-0.0077,0.0007,0.2433
442,Right,2,0.0128,0.0126,-0.3924,0.9196,0.0134,0.0012,0.0055,-0.0129,-0.0651,-0.1317,-0.2833,0.0787,9.6768,0.0002,0.0000,0.0001,1.0000,-0.0071,0.0019,0.2419
442,Pelvis,2,-0.1280,-0.6361,-0.1517,0.7457,0.0018,0.0006,-0.0031,-0.0019,-0.0134,-0.0090,9.6810,0.0074,1.5456,0.0000,0.0000,-0.0000,1.0000,0.2420,0.0002,0.0386
442,Left,2,0.0133,0.0088,-0.8008,0.5988,0.0024,0.0037,0.0024,0.0035,0.0085,-0.0650,-0.3197,0.0182,9.7424,0.0000,0.0000,0.0000,1.0000,-0.0080,0.0004,0.2436
443,Right,2,0.0128,0.0126,-0.3924,0.9196,0.0122,0.0018,0.0055,0.0036,-0.0629,-0.1323,-0.2736,0.0913,9.6763,0.0002,0.0000,0.0001,1.0000,-0.0068,0.0022,0.2419
443,Pelvis,2,-0.1280,-0.6361,-0.1516,0.7457,0.0006,-0.0012,-0.0018,-0.0170,0.0043,-0.0157,9.6712,0.0178,1.5651,0.0000,-0.0000,-0.0000,1.0000,0.2418,0.0004,0.0391
443,Left,2,0.0133,0.0088,-0.8008,0.5988,0.0012,0.0043,0.0030,0.0013,-0.0003,-0.0554,-0.3111,0.0186,9.7523,0.0000,0.0001,0.0000,1.0000,-0.0078,0.0005,0.2438
444,Right,2,0.0128,0.0125,-0.3924,0.9196,0.0128,-0.0000,0.0055,-0.0245,-0.0722,-0.1211,-0.2844,0.0659,9.6875,0.0002,-0.0000,0.0001,1.0000,-0.0071,0.0016,0.2422
444,Pelvis,2,-0.1280,-0.6361,-0.1517,0.7457,0.0000,-0.0006,-0.0024,0.0114,-0.0070,-0.0107,9.6810,0.0183,1.5355,0.0000,-0.0000,-0.0000,1.0000,0.2420,0.0005,0.0384
444,Left,2,0.0133,0.0088,-0.8008,0.5988,0.0012,0.0031,0.0031,0.0019,0.0009,-0.0847,-0.3115,0.0187,9.7230,0.0000,0.0000,0.0000,1.0000,-0.0078,0.0005,0.2431
445,Right,2,0.0128,0.0124,-0.3923,0.9197,0.0128,0.0006,0.0049,-0.0173,-0.0636,-0.1215,-0.2842,0.0788,9.6870,0.0002,0.0000,0.0001,1.0000,-0.0071,0.0019,0.2422
445,Pelvis,2,-0.1280,-0.6361,-0.1517,0.7457,-0.0000,-0.0000,-0.0012,0.0044,-0.0032,0.0005,9.6907,0.0189,1.5452,-0.0000,-0.0000,-0.0000,1.0000,0.2423,0.0005,0.0386
445,Left,2,0.0133,0.0088,-0.8008,0.5988,0.0018,0.0031,0.0037,-0.0067,0.0042,-0.0651,-0.3127,0.0095,9.7426,0.0000,0.0000,0.0000,1.0000,-0.0078,0.0002,0.2436
446,Right,2,0.0127,0.0125,-0.3924,0.9196,0.0128,0.0012,0.0049,0.0014,-0.0612,-0.1124,-0.2744,0.0920,9.6962,0.0002,0.0000,0.0001,1.0000,-0.0069,0.0023,0.2424
446,Pelvis,2,-0.1280,-0.6361,-0.1517,0.7457,0.0012,-0.0006,-0.0031,-0.0086,0.0027,-0.0269,9.6615,0.0192,1.5550,0.0000,-0.0000,-0.0000,1.0000,0.2415,0.0005,0.0389
446,Left,2,0.0133,0.0088,-0.8008,0.5988,0.0006,0.0037,0.0030,0.0126,-0.0009,-0.0652,-0.3133,0.0293,9.7424,0.0000,0.0000,0.0000,1.0000,-0.0078,0.0007,0.2436
447,Right,2,0.0128,0.0124,-0.3922,0.9197,0.0141,0.0018,0.0055,-0.0132,-0.0589,-0.1312,-0.2847,0.0847,9.6771,0.0002,0.0000,0.0001,1.0000,-0.0071,0.0021,0.2419
447,Pelvis,2,-0.1280,-0.6361,-0.1517,0.7456,-0.0006,-0.0012,-0.0037,0.0199,-0.0086,-0.0219,9.6712,0.0200,1.5254,-0.0000,-0.0000,-0.0000,1.0000,0.2418,0.0005,0.0381
447,Left,2,0.0133,0.0088,-0.8008,0.5988,0.0018,0.0037,0.0037,0.0039,0.0030,-0.0847,-0.3140,0.0197,9.7229,0.0000,0.0000,0.0000,1.0000,-0.0078,0.0005,0.2431
448,Right,2,0.0128,0.0124,-0.3921,0.9198,0.0122,0.0006,0.0067,-0.0113,-0.0574,-0.1409,-0.2850,0.0874,9.6673,0.0002,0.0000,0.0001,1.0000,-0.0071,0.0021,0.2417
448,Pelvis,2,-0.1280,-0.6361,-0.1517,0.7456,0.0018,-0.0006,-0.0024,0.0092,0.0075,0.0004,9.6907,0.0308,1.5447,0.0000,-0.0000,-0.0000,1.0000,0.2423,0.0008,0.0386
448,Left,2,0.0133,0.0088,-0.8008,0.5988,0.0018,0.0043,0.0024,-0.0076,-0.0032,-0.0555,-0.3058,0.0105,9.7524,0.0000,0.0001,0.0000,1.0000,-0.0076,0.0003,0.2438
449,Right,2,0.0128,0.0124,-0.3920,0.9198,0.0116,0.0030,0.0048,-0.0155,-0.0747,-0.1013,-0.2763,0.0727,9.7075,0.0001,0.0000,0.0001,1.0000,-0.0069,0.0018,0.2427
449,Pelvis,2,-0.1281,-0.6361,-0.1517,0.7456,-0.0000,-0.0000,-0.0018,0.0028,0.0001,-0.0188,9.6713,0.0214,1.5447,-0.0000,-0.0000,-0.0000,1.0000,0.2418,0.0005,0.0386
449,Left,2,0.0133,0.0089,-0.8008,0.5988,0.0000,0.0049,0.0030,-0.0041,0.0070,-0.0651,-0.3165,0.0108,9.7424,0.0000,0.0001,0.0000,1.0000,-0.0079,0.0003,0.2436
450,Right,2,0.0127,0.0126,-0.3921,0.9198,0.0116,0.0006,0.0061,-0.0117,-0.0723,-0.1208,-0.2767,0.0745,9.6879,0.0001,0.0000,0.0001,1.0000,-0.0069,0.0018,0.2422
450,Pelvis,2,-0.1280,-0.6361,-0.1517,0.7456,0.0012,-0.0006,-0.0043,0.0031,0.0006,-0.0188,9.6713,0.0221,1.5446,0.0000,-0.0000,-0.0001,1.0000,0.2418,0.0005,0.0386
450,Left,2,0.0133,0.0089,-0.8008,0.5988,0.0024,0.0030,0.0031,0.0059,0.0050,-0.0749,-0.3172,0.0209,9.7326,0.0000,0.0000,0.0000,1.0000,-0.0079,0.0005,0.2433
451,Right,2,0.0127,0.0126,-0.3921,0.9197,0.0116,0.0012,0.0055,-0.0086,-0.0705,-0.1208,-0.2769,0.0773,9.6879,0.0001,0.0000,0.0001,1.0000,-0.0069,0.0019,0.2422
451,Pelvis,2,-0.1280,-0.6361,-0.1517,0.7456,0.0012,0.0006,-0.0024,-0.0077,-0.0045,-0.0075,9.6812,0.0134,1.5544,0.0000,0.0000,-0.0000,1.0000,0.2420,0.0003,0.0389
451,Left,2,0.0133,0.0089,-0.8008,0.5988,0.0012,0.0037,0.0024,0.0066,0.0054,-0.0554,-0.3183,0.0215,9.7521,0.0000,0.0000,0.0000,1.0000,-0.0079,0.0005,0.2438
452,Right,2,0.0127,0.0126,-0.3923,0.9197,0.0128,0.0012,0.0067,-0.0185,-0.0525,-0.1105,-0.2967,0.0814,9.6975,0.0002,0.0000,0.0001,1.0000,-0.0074,0.0020,0.2424
452,Pelvis,2,-0.1280,-0.6361,-0.1517,0.7456,0.0012,-0.0006,-0.0024,-0.0036,0.0050,-0.0076,9.6811,0.0238,1.5543,0.0000,-0.0000,-0.0000,1.0000,0.2420,0.0006,0.0389
452,Left,2,0.0133,0.0089,-0.8008,0.5988,0.0018,0.0043,0.0031,0.0015,-0.0126,-0.0557,-0.2998,0.0216,9.7524,0.0000,0.0001,0.0000,1.0000,-0.0075,0.0005,0.2438
453,Right,2,0.0126,0.0127,-0.3925,0.9196,0.0116,0.0018,0.0061,-0.0094,-0.0699,-0.1105,-0.2778,0.0742,9.6981,0.0001,0.0000,0.0001,1.0000,-0.0069,0.0018,0.2425
453,Pelvis,2,-0.1280,-0.6361,-0.1517,0.7456,0.0012,0.0000,-0.0031,0.0018,-0.0072,-0.0090,9.6812,0.0147,1.5445,0.0000,0.0000,-0.0000,1.0000,0.2420,0.0004,0.0386
453,Left,2,0.0133,0.0089,-0.8008,0.5988,0.0018,0.0031,0.0037,0.0050,-0.0022,-0.0751,-0.3101,0.0221,9.7326,0.0000,0.0000,0.0000,1.0000,-0.0077,0.0005,0.2433
454,Right,2,0.0125,0.0127,-0.3926,0.9195,0.0122,0.0006,0.0067,-0.0202,-0.0661,-0.1196,-0.2881,0.0670,9.6889,0.0002,0.0000,0.0001,1.0000,-0.0072,0.0016,0.2422
454,Pelvis,2,-0.1280,-0.6361,-0.1517,0.7457,0.0024,0.0000,-0.0031,-0.0067,-0.0029,-0.0075,9.6812,0.0155,1.5543,0.0000,0.0000,-0.0000,1.0000,0.2420,0.0004,0.0389
454,Left,2,0.0133,0.0089,-0.8008,0.5988,0.0012,0.0037,0.0030,-0.0036,0.0010,-0.0555,-0.3114,0.0128,9.7522,0.0000,0.0000,0.0000,1.0000,-0.0078,0.0003,0.2438
455,Right,2,0.0124,0.0127,-0.3927,0.9195,0.0110,0.0012,0.0055,0.0035,-0.0571,-0.1207,-0.2780,0.0891,9.6878,0.0001,0.0000,0.0001,1.0000,-0.0069,0.0022,0.2422
455,Pelvis,2,-0.1280,-0.6361,-0.1517,0.7456,0.0012,-0.0018,-0.0018,0.0025,-0.0061,-0.0090,9.6812,0.0162,1.5443,0.0000,-0.0000,-0.0000,1.0000,0.2420,0.0004,0.0386
455,Left,2,0.0133,0.0089,-0.8008,0.5988,0.0024,0.0043,0.0031,0.0093,0.0083,-0.0652,-0.3218,0.0231,9.7422,0.0000,0.0001,0.0000,1.0000,-0.0080,0.0006,0.2436
456,Right,2,0.0125,0.0126,-0.3927,0.9195,0.0128,0.0000,0.0061,-0.0108,-0.0544,-0.1297,-0.2882,0.0820,9.6785,0.0002,0.0000,0.0001,1.0000,-0.0072,0.0020,0.2420
456,Pelvis,2,-0.1280,-0.6361,-0.1517,0.7456,0.0012,0.0000,-0.0031,-0.0060,-0.0017,-0.0075,9.6813,0.0168,1.5539,0.0000,0.0000,-0.0000,1.0000,0.2420,0.0004,0.0388
456,Left,2,0.0133,0.0089,-0.8008,0.5988,0.0024,0.0037,0.0031,0.0041,-0.0094,-0.0752,-0.3031,0.0234,9.7327,0.0000,0.0000,0.0000,1.0000,-0.0076,0.0006,0.2433
457,Right,2,0.0125,0.0127,-0.3929,0.9194,0.0134,0.0000,0.0068,-0.0145,-0.0581,-0.1195,-0.2885,0.0761,9.6888,0.0002,0.0000,0.0001,1.0000,-0.0072,0.0019,0.2422
457,Pelvis,2,-0.1280,-0.6361,-0.1517,0.7457,0.0012,0.0000,-0.0018,-0.0057,-0.0012,-0.0075,9.6813,0.0175,1.5539,0.0000,0.0000,-0.0000,1.0000,0.2420,0.0004,0.0388
457,Left,2,0.0133,0.0089,-0.8008,0.5988,0.0024,0.0037,0.0031,-0.0016,0.0033,-0.0653,-0.3140,0.0145,9.7424,0.0000,0.0000,0.0000,1.0000,-0.0078,0.0004,0.2436
458,Right,2,0.0125,0.0127,-0.3930,0.9194,0.0122,0.0012,0.0055,-0.0054,-0.0637,-0.1295,-0.2788,0.0784,9.6791,0.0002,0.0000,0.0001,1.0000,-0.0070,0.0019,0.2420
458,Pelvis,2,-0.1280,-0.6361,-0.1517,0.7457,0.0018,0.0000,-0.0024,-0.0017,-0.0129,-0.0186,9.6716,0.0081,1.5441,0.0000,0.0000,-0.0000,1.0000,0.2418,0.0002,0.0386
458,Left,2,0.0133,0.0089,-0.8008,0.5988,0.0012,0.0031,0.0037,0.0084,0.0008,-0.0458,-0.3150,0.0249,9.7618,0.0000,0.0000,0.0000,1.0000,-0.0079,0.0006,0.2440
459,Right,2,0.0124,0.0128,-0.3931,0.9193,0.0122,0.0012,0.0055,-0.0019,-0.0616,-0.1392,-0.2790,0.0808,9.6693,0.0002,0.0000,0.0001,1.0000,-0.0070,0.0020,0.2417
459,Pelvis,2,-0.1280,-0.6361,-0.1517,0.7457,0.0012,0.0000,-0.0024,0.0115,0.0141,-0.0093,9.6810,0.0382,1.5440,0.0000,0.0000,-0.0000,1.0000,0.2420,0.0009,0.0386
459,Left,2,0.0133,0.0089,-0.8008,0.5988,0.0018,0.0043,0.0037,0.0119,0.0115,-0.0847,-0.3250,0.0251,9.7225,0.0000,0.0001,0.0000,1.0000,-0.0081,0.0006,0.2431
460,Right,2,0.0125,0.0127,-0.3929,0.9194,0.0122,0.0006,0.0061,-0.0076,-0.0527,-0.1292,-0.2891,0.0846,9.6789,0.0002,0.0000,0.0001,1.0000,-0.0072,0.0021,0.2420
460,Pelvis,2,-0.1280,-0.6361,-0.1517,0.7457,0.0000,-0.0006,-0.0031,0.0013,-0.0022,-0.0283,9.6617,0.0191,1.5441,0.0000,-0.0000,-0.0000,1.0000,0.2415,0.0005,0.0386
460,Left,2,0.0133,0.0089,-0.8008,0.5988,0.0012,0.0037,0.0030,0.0004,0.0054,-0.0653,-0.3167,0.0157,9.7423,0.0000,0.0000,0.0000,1.0000,-0.0079,0.0004,0.2436
461,Right,2,0.0125,0.0127,-0.3930,0.9194,0.0116,0.0012,0.0055,-0.0213,-0.0627,-0.1283,-0.2898,0.0681,9.6801,0.0001,0.0000,0.0001,1.0000,-0.0072,0.0017,0.2420
461,Pelvis,2,-0.1280,-0.6361,-0.1517,0.7457,0.0006,0.0006,-0.0031,-0.0066,-0.0084,0.0023,9.6912,0.0105,1.5538,0.0000,0.0000,-0.0000,1.0000,0.2423,0.0003,0.0388
461,Left,2,0.0133,0.0089,-0.8008,0.5988,0.0012,0.0031,0.0037,-0.0047,-0.0125,-0.0655,-0.2980,0.0158,9.7426,0.0000,0.0000,0.0000,1.0000,-0.0074,0.0004,0.2436
462,Right,2,0.0125,0.0128,-0.3930,0.9194,0.0128,0.0024,0.0055,-0.0042,-0.0614,-0.1290,-0.2802,0.0805,9.6795,0.0002,0.0000,0.0001,1.0000,-0.0070,0.0020,0.2420
462,Pelvis,2,-0.1280,-0.6361,-0.1517,0.7457,0.0012,0.0006,-0.0031,-0.0231,0.0097,-0.0140,9.6715,0.0209,1.5735,0.0000,0.0000,-0.0000,1.0000,0.2418,0.0005,0.0393
462,Left,2,0.0133,0.0089,-0.8008,0.5988,0.0025,0.0043,0.0018,0.0139,0.0134,-0.0749,-0.3278,0.0264,9.7322,0.0000,0.0001,0.0000,1.0000,-0.0082,0.0007,0.2433
463,Right,2,0.0124,0.0127,-0.3931,0.9193,0.0122,0.0012,0.0061,-0.0031,-0.0582,-0.1290,-0.2806,0.0836,9.6795,0.0002,0.0000,0.0001,1.0000,-0.0070,0.0021,0.2420
463,Pelvis,2,-0.1280,-0.6361,-0.1517,0.7457,0.0012,-0.0018,-0.0018,0.0065,-0.0233,-0.0104,9.6815,0.0019,1.5343,0.0000,-0.0000,-0.0000,1.0000,0.2420,0.0000,0.0384
463,Left,2,0.0133,0.0089,-0.8008,0.5988,0.0012,0.0018,0.0031,-0.0005,-0.0019,-0.0556,-0.3096,0.0169,9.7521,0.0000,0.0000,0.0000,1.0000,-0.0077,0.0004,0.2438
464,Right,2,0.0125,0.0127,-0.3930,0.9194,0.0116,0.0012,0.0061,-0.0079,-0.0633,-0.1187,-0.2813,0.0774,9.6898,0.0001,0.0000,0.0001,1.0000,-0.0070,0.0019,0.2422
464,Pelvis,2,-0.1280,-0.6361,-0.1517,0.7457,0.0000,-0.0012,-0.0030,-0.0068,0.0150,0.0036,9.6910,0.0321,1.5631,0.0000,-0.0000,-0.0000,1.0000,0.2423,0.0008,0.0391
464,Left,2,0.0133,0.0089,-0.8008,0.5988,0.0012,0.0049,0.0030,-0.0120,-0.0076,-0.0557,-0.3008,0.0073,9.7524,0.0000,0.0001,0.0000,1.0000,-0.0075,0.0002,0.2438
465,Right,2,0.0123,0.0126,-0.3933,0.9192,0.0122,0.0012,0.0055,-0.0061,-0.0581,-0.1187,-0.2815,0.0803,9.6897,0.0002,0.0000,0.0001,1.0000,-0.0070,0.0020,0.2422
465,Pelvis,2,-0.1280,-0.6361,-0.1517,0.7457,-0.0006,0.0006,-0.0024,-0.0170,-0.0013,-0.0154,9.6717,0.0130,1.5632,-0.0000,0.0000,-0.0000,1.0000,0.2418,0.0003,0.0391
465,Left,2,0.0133,0.0089,-0.8008,0.5988,0.0006,0.0031,0.0024,0.0072,-0.0126,-0.0656,-0.3012,0.0270,9.7424,0.0000,0.0000,0.0000,1.0000,-0.0075,0.0007,0.2436
466,Right,2,0.0123,0.0126,-0.3934,0.9192,0.0128,0.0006,0.0061,-0.0043,-0.0550,-0.1284,-0.2817,0.0828,9.6800,0.0002,0.0000,0.0001,1.0000,-0.0070,0.0020,0.2420
466,Pelvis,2,-0.1280,-0.6361,-0.1517,0.7457,0.0006,-0.0000,-0.0018,-0.0101,-0.0141,-0.0073,9.6816,0.0038,1.5535,0.0000,-0.0000,-0.0000,1.0000,0.2420,0.0001,0.0388
466,Left,2,0.0133,0.0089,-0.8008,0.5988,0.0006,0.0031,0.0055,0.0137,0.0071,-0.0849,-0.3212,0.0273,9.7225,0.0000,0.0000,0.0001,1.0000,-0.0080,0.0007,0.2431
467,Right,2,0.0123,0.0126,-0.3933,0.9192,0.0116,0.0012,0.0061,-0.0099,-0.0454,-0.1281,-0.2917,0.0860,9.6799,0.0001,0.0000,0.0001,1.0000,-0.0073,0.0021,0.2420
467,Pelvis,2,-0.1280,-0.6361,-0.1517,0.7457,0.0012,0.0006,-0.0031,-0.0036,0.0050,-0.0171,9.6716,0.0239,1.5535,0.0000,0.0000,-0.0000,1.0000,0.2418,0.0006,0.0388
467,Left,2,0.0132,0.0089,-0.8008,0.5988,0.0012,0.0031,0.0024,0.0022,0.0011,-0.0654,-0.3127,0.0178,9.7423,0.0000,0.0000,0.0000,1.0000,-0.0078,0.0004,0.2436
468,Right,2,0.0124,0.0125,-0.3931,0.9193,0.0128,0.0012,0.0043,-0.0180,-0.0634,-0.1274,-0.2828,0.0693,9.6811,0.0002,0.0000,0.0001,1.0000,-0.0071,0.0017,0.2420
468,Pelvis,2,-0.1280,-0.6361,-0.1517,0.7457,0.0006,-0.0012,-0.0024,-0.0018,0.0050,-0.0075,9.6813,0.0247,1.5534,0.0000,-0.0000,-0.0000,1.0000,0.2420,0.0006,0.0388
468,Left,2,0.0132,0.0089,-0.8008,0.5988,0.0018,0.0037,0.0024,0.0028,0.0018,-0.0654,-0.3135,0.0182,9.7422,0.0000,0.0000,0.0000,1.0000,-0.0078,0.0005,0.2436
469,Right,2,0.0123,0.0123,-0.3931,0.9193,0.0122,0.0012,0.0061,-0.0115,-0.0527,-0.1279,-0.2828,0.0821,9.6805,0.0002,0.0000,0.0001,1.0000,-0.0071,0.0020,0.2420
469,Pelvis,2,-0.1280,-0.6361,-0.1517,0.7457,0.0000,-0.0006,-0.0024,0.0036,-0.0072,-0.0089,9.6815,0.0155,1.5435,0.0000,-0.0000,-0.0000,1.0000,0.2420,0.0004,0.0386
469,Left,2,0.0132,0.0089,-0.8008,0.5988,0.0012,0.0031,0.0043,-0.0059,0.0057,-0.0849,-0.3141,0.0087,9.7228,0.0000,0.0000,0.0001,1.0000,-0.0078,0.0002,0.2431
470,Right,2,0.0123,0.0123,-0.3930,0.9194,0.0128,0.0012,0.0043,0.0032,-0.0516,-0.1384,-0.2729,0.0940,9.6701,0.0002,0.0000,0.0001,1.0000,-0.0068,0.0023,0.2418
470,Pelvis,2,-0.1280,-0.6361,-0.1517,0.7457,0.0018,0.0000,-0.0024,-0.0049,-0.0029,-0.0074,9.6815,0.0161,1.5531,0.0000,0.0000,-0.0000,1.0000,0.2420,0.0004,0.0388
470,Left,2,0.0132,0.0089,-0.8008,0.5988,0.0000,0.0037,0.0030,-0.0052,0.0062,-0.0751,-0.3151,0.0090,9.7325,0.0000,0.0000,0.0000,1.0000,-0.0079,0.0002,0.2433
471,Right,2,0.0123,0.0123,-0.3932,0.9193,0.0098,0.0000,0.0049,-0.0067,-0.0614,-0.1179,-0.2737,0.0785,9.6908,0.0001,0.0000,0.0001,1.0000,-0.0068,0.0019,0.2423
471,Pelvis,2,-0.1280,-0.6361,-0.1517,0.7457,-0.0006,-0.0012,-0.0024,0.0131,-0.0099,-0.0105,9.6815,0.0167,1.5335,-0.0000,-0.0000,-0.0000,1.0000,0.2420,0.0004,0.0383
471,Left,2,0.0132,0.0089,-0.8008,0.5988,0.0031,0.0036,0.0025,-0.0010,-0.0148,-0.0657,-0.2965,0.0189,9.7425,0.0000,0.0000,0.0000,1.0000,-0.0074,0.0005,0.2436
472,Right,2,0.0122,0.0123,-0.3932,0.9193,0.0128,0.0013,0.0073,-0.0191,-0.0444,-0.1368,-0.2933,0.0806,9.6712,0.0002,0.0000,0.0001,1.0000,-0.0073,0.0020,0.2418
472,Pelvis,2,-0.1280,-0.6361,-0.1517,0.7457,0.0024,0.0000,-0.0031,-0.0004,0.0073,-0.0075,9.6814,0.0272,1.5528,0.0000,0.0000,-0.0000,1.0000,0.2420,0.0007,0.0388
472,Left,2,0.0133,0.0089,-0.8008,0.5988,0.0025,0.0049,0.0031,-0.0068,-0.0017,-0.0752,-0.3072,0.0099,9.7326,0.0000,0.0001,0.0000,1.0000,-0.0077,0.0002,0.2433
473,Right,2,0.0122,0.0124,-0.3934,0.9192,0.0122,0.0024,0.0042,-0.0007,-0.0556,-0.1081,-0.2744,0.0850,9.7005,0.0002,0.0000,0.0001,1.0000,-0.0069,0.0021,0.2425
473,Pelvis,2,-0.1280,-0.6361,-0.1517,0.7457,0.0024,-0.0012,-0.0031,0.0073,0.0046,-0.0187,9.6717,0.0279,1.5429,0.0000,-0.0000,-0.0000,1.0000,0.2418,0.0007,0.0386
473,Left,2,0.0132,0.0089,-0.8008,0.5988,0.0006,0.0031,0.0037,0.0062,0.0051,-0.0556,-0.3182,0.0204,9.7518,0.0000,0.0000,0.0000,1.0000,-0.0079,0.0005,0.2438
474,Right,2,0.0121,0.0126,-0.3936,0.9191,0.0116,0.0018,0.0049,-0.0161,-0.0462,-0.1266,-0.2946,0.0775,9.6815,0.0001,0.0000,0.0001,1.0000,-0.0074,0.0019,0.2420
474,Pelvis,2,-0.1280,-0.6361,-0.1517,0.7457,-0.0000,0.0006,-0.0018,-0.0050,-0.0001,-0.0170,9.6718,0.0188,1.5527,-0.0000,0.0000,-0.0000,1.0000,0.2418,0.0005,0.0388
474,Left,2,0.0132,0.0089,-0.8008,0.5988,0.0006,0.0031,0.0030,0.0068,0.0060,-0.0654,-0.3187,0.0205,9.7421,0.0000,0.0000,0.0000,1.0000,-0.0080,0.0005,0.2436
475,Right,2,0.0121,0.0126,-0.3936,0.9191,0.0116,0.0001,0.0074,0.0071,-0.0516,-0.1081,-0.2751,0.0907,9.7004,0.0001,0.0000,0.0001,1.0000,-0.0069,0.0022,0.2425
475,Pelvis,2,-0.1280,-0.6361,-0.1517,0.7457,0.0006,0.0006,-0.0031,0.0004,-0.0123,-0.0185,9.6719,0.0096,1.5431,0.0000,0.0000,-0.0000,1.0000,0.2418,0.0002,0.0386
475,Left,2,0.0132,0.0089,-0.8008,0.5988,0.0018,0.0031,0.0037,0.0046,-0.0026,-0.0655,-0.3097,0.0206,9.7422,0.0000,0.0000,0.0000,1.0000,-0.0077,0.0005,0.2436
476,Right,2,0.0120,0.0126,-0.3937,0.9191,0.0116,0.0012,0.0049,-0.0112,-0.0404,-0.1168,-0.2950,0.0838,9.6912,0.0001,0.0000,0.0001,1.0000,-0.0074,0.0021,0.2423
476,Pelvis,2,-0.1280,-0.6361,-0.1517,0.7457,0.0012,-0.0006,-0.0012,-0.0043,0.0011,-0.0170,9.6718,0.0200,1.5528,0.0000,-0.0000,-0.0000,1.0000,0.2418,0.0005,0.0388
476,Left,2,0.0132,0.0089,-0.8008,0.5988,0.0006,0.0031,0.0030,-0.0012,0.0105,-0.0751,-0.3202,0.0113,9.7323,0.0000,0.0000,0.0000,1.0000,-0.0080,0.0003,0.2433
477,Right,2,0.0119,0.0126,-0.3938,0.9190,0.0122,0.0006,0.0055,-0.0161,-0.0427,-0.1162,-0.2955,0.0770,9.6918,0.0002,0.0000,0.0001,1.0000,-0.0074,0.0019,0.2423
477,Pelvis,2,-0.1280,-0.6361,-0.1517,0.7457,0.0006,-0.0000,-0.0031,-0.0128,0.0054,-0.0154,9.6718,0.0206,1.5625,0.0000,-0.0000,-0.0000,1.0000,0.2418,0.0005,0.0391
477,Left,2,0.0132,0.0089,-0.8008,0.5988,0.0024,0.0037,0.0031,0.0088,0.0084,-0.0849,-0.3207,0.0213,9.7225,0.0000,0.0000,0.0000,1.0000,-0.0080,0.0005,0.2431
478,Right,2,0.0120,0.0125,-0.3938,0.9191,0.0134,0.0012,0.0049,-0.0014,-0.0409,-0.1170,-0.2856,0.0896,9.6912,0.0002,0.0000,0.0001,1.0000,-0.0071,0.0022,0.2423
478,Pelvis,2,-0.1280,-0.6361,-0.1516,0.7457,0.0006,-0.0018,-0.0018,0.0029,-0.0111,-0.0088,9.6817,0.0114,1.5428,0.0000,-0.0000,-0.0000,1.0000,0.2420,0.0003,0.0386
478,Left,2,0.0132,0.0089,-0.8008,0.5988,0.0006,0.0037,0.0037,0.0036,-0.0097,-0.0754,-0.3022,0.0215,9.7326,0.0000,0.0000,0.0000,1.0000,-0.0075,0.0005,0.2433
479,Right,2,0.0119,0.0126,-0.3937,0.9191,0.0116,0.0006,0.0055,0.0017,-0.0527,-0.1167,-0.2764,0.0826,9.6918,0.0001,0.0000,0.0001,1.0000,-0.0069,0.0020,0.2423
479,Pelvis,2,-0.1280,-0.6361,-0.1517,0.7457,0.0000,-0.0006,-0.0018,-0.0003,0.0017,0.0023,9.6914,0.0218,1.5522,0.0000,-0.0000,-0.0000,1.0000,0.2423,0.0005,0.0388
479,Left,2,0.0132,0.0089,-0.8007,0.5988,0.0030,0.0024,0.0049,-0.0021,0.0032,-0.0752,-0.3129,0.0124,9.7324,0.0000,0.0000,0.0001,1.0000,-0.0078,0.0003,0.2433
480,Right,2,0.0119,0.0126,-0.3938,0.9190,0.0122,0.0006,0.0067,0.0029,-0.0502,-0.1362,-0.2764,0.0843,9.6723,0.0002,0.0000,0.0001,1.0000,-0.0069,0.0021,0.2418
480,Pelvis,2,-0.1280,-0.6361,-0.1517,0.7457,-0.0006,0.0006,-0.0024,-0.0015,0.0028,-0.0074,9.6817,0.0222,1.5522,-0.0000,0.0000,-0.0000,1.0000,0.2420,0.0005,0.0388
480,Left,2,0.0132,0.0089,-0.8007,0.5988,-0.0006,0.0055,0.0036,0.0050,-0.0086,-0.0559,-0.3043,0.0225,9.7520,-0.0000,0.0001,0.0000,1.0000,-0.0076,0.0006,0.2438
481,Right,2,0.0119,0.0125,-0.3937,0.9191,0.0128,0.0018,0.0049,-0.0153,-0.0392,-0.1059,-0.2967,0.0801,9.7020,0.0002,0.0000,0.0001,1.0000,-0.0074,0.0020,0.2426
481,Pelvis,2,-0.1280,-0.6361,-0.1517,0.7457,0.0024,-0.0012,-0.0031,0.0054,-0.0099,0.0008,9.6915,0.0132,1.5424,0.0000,-0.0000,-0.0000,1.0000,0.2423,0.0003,0.0386
481,Left,2,0.0132,0.0089,-0.8007,0.5988,0.0031,0.0030,0.0025,-0.0036,-0.0048,-0.0656,-0.3053,0.0129,9.7423,0.0000,0.0000,0.0000,1.0000,-0.0076,0.0003,0.2436
482,Right,2,0.0120,0.0125,-0.3937,0.9191,0.0122,0.0012,0.0043,-0.0092,-0.0582,-0.1156,-0.2778,0.0722,9.6930,0.0002,0.0000,0.0001,1.0000,-0.0069,0.0018,0.2423
482,Pelvis,2,-0.1280,-0.6361,-0.1517,0.7457,0.0006,-0.0018,-0.0030,-0.0046,-0.0051,-0.0072,9.6819,0.0139,1.5518,0.0000,-0.0000,-0.0000,1.0000,0.2420,0.0003,0.0388
482,Left,2,0.0132,0.0089,-0.8007,0.5988,0.0018,0.0030,0.0024,-0.0000,0.0051,-0.0557,-0.3160,0.0138,9.7519,0.0000,0.0000,0.0000,1.0000,-0.0079,0.0003,0.2438
483,Right,2,0.0120,0.0124,-0.3936,0.9191,0.0122,0.0000,0.0068,-0.0219,-0.0560,-0.1148,-0.2880,0.0658,9.6936,0.0002,0.0000,0.0001,1.0000,-0.0072,0.0016,0.2423
483,Pelvis,2,-0.1280,-0.6361,-0.1517,0.7457,0.0006,-0.0012,-0.0018,0.0123,0.0097,-0.0091,9.6816,0.0340,1.5416,0.0000,-0.0000,-0.0000,1.0000,0.2420,0.0008,0.0385
483,Left,2,0.0132,0.0089,-0.8007,0.5988,0.0018,0.0037,0.0043,0.0192,0.0001,-0.0656,-0.3163,0.0337,9.7419,0.0000,0.0000,0.0001,1.0000,-0.0079,0.0008,0.2435
484,Right,2,0.0120,0.0124,-0.3935,0.9191,0.0110,0.0018,0.0055,-0.0066,-0.0546,-0.1156,-0.2781,0.0781,9.6929,0.0001,0.0000,0.0001,1.0000,-0.0069,0.0019,0.2423
484,Pelvis,2,-0.1280,-0.6361,-0.1517,0.7457,0.0018,0.0006,-0.0031,-0.0001,0.0050,-0.0074,9.6818,0.0250,1.5513,0.0000,0.0000,-0.0000,1.0000,0.2420,0.0006,0.0388
484,Left,2,0.0132,0.0089,-0.8007,0.5988,0.0012,0.0043,0.0030,0.0013,0.0066,-0.0655,-0.3176,0.0146,9.7420,0.0000,0.0001,0.0000,1.0000,-0.0079,0.0004,0.2436
485,Right,2,0.0120,0.0125,-0.3938,0.9190,0.0134,0.0006,0.0061,-0.0019,-0.0514,-0.0961,-0.2785,0.0824,9.7124,0.0002,0.0000,0.0001,1.0000,-0.0070,0.0020,0.2428
485,Pelvis,2,-0.1280,-0.6361,-0.1517,0.7457,0.0018,-0.0006,-0.0031,-0.0154,0.0014,-0.0250,9.6624,0.0158,1.5612,0.0000,-0.0000,-0.0000,1.0000,0.2416,0.0004,0.0390
485,Left,2,0.0132,0.0089,-0.8007,0.5988,0.0012,0.0024,0.0037,-0.0010,-0.0020,-0.0656,-0.3087,0.0148,9.7422,0.0000,0.0000,0.0000,1.0000,-0.0077,0.0004,0.2436
486,Right,2,0.0119,0.0124,-0.3938,0.9190,0.0116,0.0006,0.0055,-0.0160,-0.0481,-0.1245,-0.2886,0.0741,9.6837,0.0001,0.0000,0.0001,1.0000,-0.0072,0.0018,0.2421
486,Pelvis,2,-0.1280,-0.6361,-0.1517,0.7457,0.0006,0.0006,-0.0024,0.0080,0.0029,-0.0186,9.6720,0.0263,1.5416,0.0000,0.0000,-0.0000,1.0000,0.2418,0.0006,0.0385
486,Left,2,0.0132,0.0089,-0.8007,0.5988,0.0037,0.0043,0.0031,0.0026,0.0080,-0.0655,-0.3192,0.0155,9.7420,0.0000,0.0001,0.0000,1.0000,-0.0080,0.0004,0.2436
487,Right,2,0.0120,0.0125,-0.3939,0.9190,0.0122,0.0018,0.0055,0.0019,-0.0478,-0.1156,-0.2788,0.0871,9.6929,0.0002,0.0000,0.0001,1.0000,-0.0070,0.0021,0.2423
487,Pelvis,2,-0.1280,-0.6361,-0.1517,0.7457,-0.0006,-0.0000,-0.0037,0.0060,-0.0061,-0.0088,9.6819,0.0174,1.5417,-0.0000,-0.0000,-0.0000,1.0000,0.2420,0.0004,0.0385
487,Left,2,0.0132,0.0089,-0.8007,0.5988,0.0024,0.0031,0.0043,0.0004,-0.0007,-0.0558,-0.3106,0.0162,9.7519,0.0000,0.0000,0.0001,1.0000,-0.0078,0.0004,0.2438
488,Right,2,0.0120,0.0125,-0.3938,0.9190,0.0134,-0.0006,0.0068,0.0030,-0.0468,-0.1253,-0.2789,0.0895,9.6831,0.0002,-0.0000,0.0001,1.0000,-0.0070,0.0022,0.2421
488,Pelvis,2,-0.1280,-0.6361,-0.1517,0.7457,0.0018,-0.0006,-0.0024,-0.0114,0.0021,-0.0057,9.6819,0.0183,1.5611,0.0000,-0.0000,-0.0000,1.0000,0.2420,0.0004,0.0390
488,Left,2,0.0132,0.0089,-0.8007,0.5988,0.0012,0.0024,0.0031,0.0132,0.0066,-0.0753,-0.3204,0.0265,9.7321,0.0000,0.0000,0.0000,1.0000,-0.0080,0.0007,0.2433
489,Right,2,0.0119,0.0126,-0.3940,0.9189,0.0122,0.0012,0.0043,-0.0070,-0.0431,-0.1342,-0.2890,0.0826,9.6739,0.0002,0.0000,0.0001,1.0000,-0.0072,0.0020,0.2418
489,Pelvis,2,-0.1280,-0.6361,-0.1517,0.7457,0.0006,-0.0006,-0.0037,0.0170,-0.0092,-0.0007,9.6917,0.0190,1.5316,0.0000,-0.0000,-0.0000,1.0000,0.2423,0.0005,0.0383
489,Left,2,0.0132,0.0089,-0.8007,0.5988,0.0012,0.0037,0.0030,-0.0076,0.0037,-0.0655,-0.3119,0.0072,9.7422,0.0000,0.0000,0.0000,1.0000,-0.0078,0.0002,0.2436
490,Right,2,0.0119,0.0125,-0.3941,0.9189,0.0134,0.0012,0.0067,0.0078,-0.0532,-0.1250,-0.2698,0.0858,9.6837,0.0002,0.0000,0.0001,1.0000,-0.0067,0.0021,0.2421
490,Pelvis,2,-0.1280,-0.6361,-0.1517,0.7457,0.0006,0.0000,-0.0012,-0.0018,-0.0006,-0.0072,9.6820,0.0196,1.5511,0.0000,0.0000,-0.0000,1.0000,0.2420,0.0005,0.0388
490,Left,2,0.0132,0.0089,-0.8007,0.5988,0.0018,0.0030,0.0012,0.0023,0.0018,-0.0851,-0.3122,0.0171,9.7226,0.0000,0.0000,0.0000,1.0000,-0.0078,0.0004,0.2431
491,Right,2,0.0119,0.0125,-0.3941,0.9189,0.0122,0.0025,0.0061,-0.0115,-0.0421,-0.1239,-0.2901,0.0798,9.6842,0.0002,0.0000,0.0001,1.0000,-0.0072,0.0020,0.2421
491,Pelvis,2,-0.1280,-0.6361,-0.1517,0.7457,0.0006,0.0006,-0.0024,-0.0030,0.0005,-0.0169,9.6722,0.0199,1.5512,0.0000,0.0000,-0.0000,1.0000,0.2418,0.0005,0.0388
491,Left,2,0.0132,0.0089,-0.8007,0.5988,0.0025,0.0049,0.0031,0.0031,0.0021,-0.0558,-0.3137,0.0180,9.7518,0.0000,0.0001,0.0000,1.0000,-0.0078,0.0004,0.2438
492,Right,2,0.0118,0.0126,-0.3942,0.9189,0.0122,0.0018,0.0061,-0.0070,-0.0394,-0.1141,-0.2906,0.0835,9.6939,0.0002,0.0000,0.0001,1.0000,-0.0073,0.0021,0.2423
492,Pelvis,2,-0.1280,-0.6361,-0.1517,0.7457,0.0000,-0.0006,-0.0024,0.0127,-0.0161,-0.0102,9.6820,0.0108,1.5317,0.0000,-0.0000,-0.0000,1.0000,0.2421,0.0003,0.0383
492,Left,2,0.0132,0.0089,-0.8007,0.5988,0.0018,0.0037,0.0024,-0.0056,0.0059,-0.0655,-0.3148,0.0086,9.7421,0.0000,0.0000,0.0000,1.0000,-0.0079,0.0002,0.2436
493,Right,2,0.0119,0.0127,-0.3942,0.9189,0.0116,0.0013,0.0067,0.0017,-0.0461,-0.1241,-0.2812,0.0854,9.6842,0.0001,0.0000,0.0001,1.0000,-0.0070,0.0021,0.2421
493,Pelvis,2,-0.1280,-0.6361,-0.1517,0.7457,0.0012,0.0000,-0.0031,-0.0023,0.0016,-0.0169,9.6722,0.0212,1.5511,0.0000,0.0000,-0.0000,1.0000,0.2418,0.0005,0.0388
493,Left,2,0.0132,0.0089,-0.8007,0.5988,0.0018,0.0037,0.0037,0.0044,0.0036,-0.0656,-0.3155,0.0189,9.7420,0.0000,0.0000,0.0000,1.0000,-0.0079,0.0005,0.2436
494,Right,2,0.0118,0.0127,-0.3944,0.9188,0.0122,0.0006,0.0049,0.0117,-0.0362,-0.1344,-0.2810,0.0974,9.6738,0.0002,0.0000,0.0001,1.0000,-0.0070,0.0024,0.2418
494,Pelvis,2,-0.1280,-0.6361,-0.1517,0.7457,0.0018,0.0000,-0.0031,-0.0020,0.0021,-0.0169,9.6722,0.0220,1.5511,0.0000,0.0000,-0.0000,1.0000,0.2418,0.0005,0.0388
494,Left,2,0.0132,0.0089,-0.8007,0.5988,0.0018,0.0037,0.0024,0.0021,-0.0048,-0.0755,-0.3064,0.0191,9.7324,0.0000,0.0000,0.0000,1.0000,-0.0076,0.0005,0.2433
495,Right,2,0.0118,0.0126,-0.3944,0.9188,0.0122,0.0012,0.0055,-0.0076,-0.0525,-0.1132,-0.2823,0.0726,9.6953,0.0002,0.0000,0.0001,1.0000,-0.0071,0.0018,0.2424
495,Pelvis,2,-0.1280,-0.6361,-0.1517,0.7457,0.0000,-0.0006,-0.0031,-0.0143,-0.0025,-0.0152,9.6724,0.0131,1.5609,0.0000,-0.0000,-0.0000,1.0000,0.2418,0.0003,0.0390
495,Left,2,0.0132,0.0089,-0.8007,0.5988,0.0012,0.0031,0.0043,0.0028,-0.0044,-0.0559,-0.3076,0.0197,9.7519,0.0000,0.0000,0.0001,1.0000,-0.0077,0.0005,0.2438
496,Right,2,0.0117,0.0127,-0.3946,0.9187,0.0128,0.0012,0.0061,0.0033,-0.0430,-0.1137,-0.2823,0.0854,9.6946,0.0002,0.0000,0.0001,1.0000,-0.0071,0.0021,0.2424
496,Pelvis,2,-0.1280,-0.6361,-0.1517,0.7457,0.0012,-0.0012,-0.0031,0.0052,-0.0100,-0.0087,9.6821,0.0139,1.5411,0.0000,-0.0000,-0.0000,1.0000,0.2421,0.0003,0.0385
496,Left,2,0.0132,0.0089,-0.8007,0.5988,0.0006,0.0055,0.0024,-0.0030,0.0089,-0.0850,-0.3180,0.0100,9.7225,0.0000,0.0001,0.0000,1.0000,-0.0079,0.0002,0.2431
497,Right,2,0.0117,0.0126,-0.3946,0.9187,0.0122,0.0012,0.0055,-0.0016,-0.0327,-0.1037,-0.2924,0.0895,9.7042,0.0002,0.0000,0.0001,1.0000,-0.0073,0.0022,0.2426
497,Pelvis,2,-0.1280,-0.6361,-0.1517,0.7457,0.0000,-0.0012,-0.0018,0.0079,0.0001,-0.0185,9.6723,0.0241,1.5408,0.0000,-0.0000,-0.0000,1.0000,0.2418,0.0006,0.0385
497,Left,2,0.0132,0.0089,-0.8007,0.5988,0.0018,0.0031,0.0037,-0.0022,0.0092,-0.0557,-0.3196,0.0107,9.7517,0.0000,0.0000,0.0000,1.0000,-0.0080,0.0003,0.2438
498,Right,2,0.0117,0.0126,-0.3945,0.9187,0.0122,0.0000,0.0068,-0.0084,-0.0511,-0.1126,-0.2834,0.0720,9.6959,0.0002,0.0000,0.0001,1.0000,-0.0071,0.0018,0.2424
498,Pelvis,2,-0.1280,-0.6361,-0.1517,0.7457,0.0006,-0.0000,-0.0037,-0.0118,-0.0013,-0.0056,9.6822,0.0153,1.5602,0.0000,-0.0000,-0.0000,1.0000,0.2421,0.0004,0.0390
498,Left,2,0.0132,0.0089,-0.8007,0.5988,0.0012,0.0037,0.0030,-0.0046,0.0008,-0.0656,-0.3105,0.0108,9.7421,0.0000,0.0000,0.0000,1.0000,-0.0078,0.0003,0.2436
499,Right,2,0.0117,0.0126,-0.3943,0.9188,0.0110,0.0018,0.0042,-0.0057,-0.0352,-0.1129,-0.2930,0.0849,9.6951,0.0001,0.0000,0.0001,1.0000,-0.0073,0.0021,0.2424
499,Pelvis,2,-0.1280,-0.6361,-0.1517,0.7457,0.0012,0.0006,-0.0012,0.0160,-0.0021,-0.0297,9.6625,0.0252,1.5310,0.0000,0.0000,-0.0000,1.0000,0.2416,0.0006,0.0383
499,Left,2,0.0132,0.0089,-0.8007,0.5988,0.0012,0.0031,0.0024,0.0089,-0.0230,-0.0660,-0.2914,0.0303,9.7423,0.0000,0.0000,0.0000,1.0000,-0.0073,0.0008,0.2436
500,Right,2,0.0117,0.0125,-0.3943,0.9188,0.0128,0.0006,0.0061,-0.0012,-0.0392,-0.1326,-0.2834,0.0861,9.6756,0.0002,0.0000,0.0001,1.0000,-0.0071,0.0021,0.2419
500,Pelvis,2,-0.1280,-0.6361,-0.1517,0.7457,0.0006,0.0006,-0.0031,-0.0061,-0.0129,-0.0070,9.6823,0.0067,1.5507,0.0000,0.0000,-0.0000,1.0000,0.2421,0.0002,0.0388
500,Left,2,0.0132,0.0089,-0.8008,0.5988,0.0012,0.0037,0.0024,0.0091,0.0084,-0.0558,-0.3219,0.0215,9.7515,0.0000,0.0000,0.0000,1.0000,-0.0080,0.0005,0.2438
501,Right,2,0.0117,0.0124,-0.3943,0.9188,0.0122,0.0006,0.0049,-0.0209,-0.0425,-0.1214,-0.2940,0.0707,9.6867,0.0002,0.0000,0.0001,1.0000,-0.0073,0.0017,0.2422
501,Pelvis,2,-0.1280,-0.6361,-0.1517,0.7457,0.0006,-0.0012,-0.0018,-0.0093,-0.0001,0.0041,9.6920,0.0172,1.5603,0.0000,-0.0000,-0.0000,1.0000,0.2423,0.0004,0.0390
501,Left,2,0.0132,0.0089,-0.8008,0.5988,0.0012,0.0049,0.0030,-0.0026,0.0030,-0.0754,-0.3130,0.0116,9.7323,0.0000,0.0001,0.0000,1.0000,-0.0078,0.0003,0.2433
502,Right,2,0.0117,0.0124,-0.3943,0.9188,0.0116,0.0019,0.0067,-0.0040,-0.0409,-0.1125,-0.2843,0.0838,9.6957,0.0001,0.0000,0.0001,1.0000,-0.0071,0.0021,0.2424
502,Pelvis,2,-0.1280,-0.6361,-0.1517,0.7457,0.0018,0.0006,-0.0043,-0.0007,0.0071,-0.0265,9.6625,0.0273,1.5505,0.0000,0.0000,-0.0001,1.0000,0.2416,0.0007,0.0388
502,Left,2,0.0132,0.0090,-0.8008,0.5988,0.0006,0.0043,0.0036,-0.0048,-0.0059,-0.0559,-0.3047,0.0119,9.7520,0.0000,0.0001,0.0000,1.0000,-0.0076,0.0003,0.2438
503,Right,2,0.0117,0.0125,-0.3944,0.9188,0.0122,0.0018,0.0042,-0.0090,-0.0324,-0.1415,-0.2943,0.0849,9.6664,0.0002,0.0000,0.0001,1.0000,-0.0074,0.0021,0.2417
503,Pelvis,2,-0.1280,-0.6361,-0.1517,0.7457,0.0012,-0.0006,-0.0006,0.0076,-0.0061,-0.0087,9.6822,0.0184,1.5407,0.0000,-0.0000,-0.0000,1.0000,0.2421,0.0005,0.0385
503,Left,2,0.0132,0.0090,-0.8008,0.5988,0.0012,0.0043,0.0018,0.0081,0.0014,-0.0657,-0.3152,0.0220,9.7419,0.0000,0.0001,0.0000,1.0000,-0.0079,0.0005,0.2435
504,Right,2,0.0117,0.0126,-0.3945,0.9187,0.0122,-0.0006,0.0068,0.0019,-0.0372,-0.1320,-0.2847,0.0883,9.6762,0.0002,-0.0000,0.0001,1.0000,-0.0071,0.0022,0.2419
504,Pelvis,2,-0.1280,-0.6361,-0.1517,0.7457,-0.0006,-0.0006,-0.0024,0.0042,-0.0145,-0.0085,9.6823,0.0090,1.5406,-0.0000,-0.0000,-0.0000,1.0000,0.2421,0.0002,0.0385
504,Left,2,0.0132,0.0090,-0.8008,0.5988,0.0012,0.0037,0.0043,-0.0128,-0.0014,-0.0656,-0.3067,0.0026,9.7422,0.0000,0.0000,0.0001,1.0000,-0.0077,0.0001,0.2436
505,Right,2,0.0117,0.0127,-0.3945,0.9187,0.0122,0.0012,0.0055,-0.0011,-0.0426,-0.1216,-0.2852,0.0823,9.6866,0.0002,0.0000,0.0001,1.0000,-0.0071,0.0020,0.2422
505,Pelvis,2,-0.1280,-0.6361,-0.1517,0.7457,0.0024,-0.0012,-0.0018,0.0098,-0.0054,0.0010,9.6920,0.0195,1.5403,0.0000,-0.0000,-0.0000,1.0000,0.2423,0.0005,0.0385
505,Left,2,0.0132,0.0090,-0.8008,0.5988,0.0012,0.0037,0.0018,0.0094,0.0029,-0.0755,-0.3168,0.0225,9.7321,0.0000,0.0000,0.0000,1.0000,-0.0079,0.0006,0.2433
506,Right,2,0.0117,0.0127,-0.3945,0.9187,0.0116,0.0030,0.0048,0.0069,-0.0479,-0.1219,-0.2759,0.0848,9.6867,0.0001,0.0000,0.0001,1.0000,-0.0069,0.0021,0.2422
506,Pelvis,2,-0.1280,-0.6361,-0.1517,0.7457,0.0018,0.0000,-0.0031,-0.0017,-0.0001,-0.0168,9.6725,0.0199,1.5500,0.0000,0.0000,-0.0000,1.0000,0.2418,0.0005,0.0388
506,Left,2,0.0132,0.0090,-0.8008,0.5988,0.0018,0.0043,0.0037,0.0071,-0.0057,-0.0756,-0.3080,0.0228,9.7322,0.0000,0.0001,0.0000,1.0000,-0.0077,0.0006,0.2433
507,Right,2,0.0117,0.0128,-0.3946,0.9187,0.0122,0.0006,0.0055,0.0038,-0.0520,-0.1115,-0.2767,0.0788,9.6971,0.0002,0.0000,0.0001,1.0000,-0.0069,0.0019,0.2424
507,Pelvis,2,-0.1280,-0.6361,-0.1516,0.7457,0.0006,-0.0000,-0.0024,0.0105,-0.0031,0.0010,9.6920,0.0209,1.5402,0.0000,-0.0000,-0.0000,1.0000,0.2423,0.0005,0.0385
507,Left,2,0.0132,0.0090,-0.8008,0.5988,0.0024,0.0024,0.0031,-0.0015,-0.0022,-0.0657,-0.3092,0.0136,9.7421,0.0000,0.0000,0.0000,1.0000,-0.0077,0.0003,0.2436
508,Right,2,0.0095,0.0118,-0.3906,0.9204,0.0116,0.0012,0.0055,-0.0115,-0.0036,-0.1300,-0.2870,0.0708,9.6782,0.0001,0.0000,0.0001,1.0000,-0.0072,0.0017,0.2420
508,Pelvis,2,-0.1280,-0.6361,-0.1516,0.7457,0.0012,-0.0006,-0.0024,-0.0034,-0.0072,-0.0070,9.6824,0.0117,1.5500,0.0000,-0.0000,-0.0000,1.0000,0.2421,0.0003,0.0388
508,Left,2,0.0132,0.0089,-0.8008,0.5987,0.0006,0.0031,0.0030,-0.0051,-0.0092,-0.0756,-0.2999,0.0137,9.7325,0.0000,0.0000,0.0000,1.0000,-0.0075,0.0003,0.2433
509,Right,2,0.0095,0.0118,-0.3907,0.9204,0.0134,0.0012,0.0061,-0.0095,-0.0013,-0.1300,-0.2872,0.0739,9.6782,0.0002,0.0000,0.0001,1.0000,-0.0072,0.0018,0.2420
509,Pelvis,2,-0.1280,-0.6361,-0.1516,0.7457,0.0018,0.0006,-0.0024,-0.0030,-0.0067,-0.0070,9.6824,0.0123,1.5500,0.0000,0.0000,-0.0000,1.0000,0.2421,0.0003,0.0387
509,Left,2,0.0132,0.0089,-0.8008,0.5987,0.0012,0.0024,0.0031,0.0078,-0.0021,-0.0756,-0.3102,0.0239,9.7322,0.0000,0.0000,0.0000,1.0000,-0.0077,0.0006,0.2433
510,Right,2,0.0095,0.0118,-0.3906,0.9204,0.0122,0.0006,0.0061,0.0075,0.0008,-0.1113,-0.2774,0.0879,9.6970,0.0002,0.0000,0.0001,1.0000,-0.0069,0.0022,0.2424
510,Pelvis,2,-0.1280,-0.6361,-0.1516,0.7457,0.0006,-0.0006,-0.0024,-0.0092,0.0072,-0.0152,9.6725,0.0226,1.5597,0.0000,-0.0000,-0.0000,1.0000,0.2418,0.0006,0.0390
510,Left,2,0.0132,0.0089,-0.8008,0.5987,0.0012,0.0031,0.0024,0.0022,0.0106,-0.0558,-0.3212,0.0149,9.7515,0.0000,0.0000,0.0000,1.0000,-0.0080,0.0004,0.2438
511,Right,2,0.0095,0.0118,-0.3906,0.9204,0.0135,0.0024,0.0048,0.0017,-0.0037,-0.1204,-0.2781,0.0806,9.6879,0.0002,0.0000,0.0001,1.0000,-0.0069,0.0020,0.2422
511,Pelvis,2,-0.1280,-0.6361,-0.1516,0.7457,-0.0000,0.0006,-0.0031,-0.0023,-0.0056,-0.0070,9.6824,0.0136,1.5500,-0.0000,0.0000,-0.0000,1.0000,0.2421,0.0003,0.0387
511,Left,2,0.0132,0.0089,-0.8008,0.5987,0.0012,0.0043,0.0030,0.0091,-0.0007,-0.0756,-0.3117,0.0246,9.7321,0.0000,0.0001,0.0000,1.0000,-0.0078,0.0006,0.2433
512,Right,2,0.0095,0.0118,-0.3906,0.9205,0.0122,-0.0006,0.0056,0.0037,-0.0015,-0.1204,-0.2783,0.0837,9.6879,0.0002,-0.0000,0.0001,1.0000,-0.0070,0.0021,0.2422
512,Pelvis,2,-0.1280,-0.6361,-0.1516,0.7457,0.0018,-0.0018,-0.0024,0.0030,-0.0178,-0.0084,9.6826,0.0045,1.5401,0.0000,-0.0000,-0.0000,1.0000,0.2421,0.0001,0.0385
512,Left,2,0.0132,0.0089,-0.8008,0.5987,0.0006,0.0031,0.0024,0.0004,0.0030,-0.0755,-0.3128,0.0151,9.7322,0.0000,0.0000,0.0000,1.0000,-0.0078,0.0004,0.2433
513,Right,2,0.0095,0.0118,-0.3906,0.9204,0.0116,0.0031,0.0060,-0.0081,0.0015,-0.1196,-0.2887,0.0773,9.6885,0.0001,0.0000,0.0001,1.0000,-0.0072,0.0019,0.2422
513,Pelvis,2,-0.1280,-0.6361,-0.1516,0.7457,0.0006,0.0006,-0.0037,-0.0055,-0.0134,-0.0068,9.6826,0.0053,1.5497,0.0000,0.0000,-0.0000,1.0000,0.2421,0.0001,0.0387
513,Left,2,0.0132,0.0089,-0.8008,0.5987,0.0006,0.0031,0.0024,0.0012,0.0036,-0.0657,-0.3137,0.0153,9.7419,0.0000,0.0000,0.0000,1.0000,-0.0078,0.0004,0.2435
514,Right,2,0.0095,0.0118,-0.3905,0.9205,0.0134,0.0012,0.0055,-0.0074,-0.0103,-0.1288,-0.2797,0.0695,9.6796,0.0002,0.0000,0.0001,1.0000,-0.0070,0.0017,0.2420
514,Pelvis,2,-0.1280,-0.6361,-0.1516,0.7457,0.0006,-0.0006,-0.0018,0.0040,0.0046,0.0025,9.6921,0.0257,1.5496,0.0000,-0.0000,-0.0000,1.0000,0.2423,0.0006,0.0387
514,Left,2,0.0132,0.0089,-0.8008,0.5987,0.0037,0.0036,0.0037,0.0048,0.0136,-0.0656,-0.3243,0.0161,9.7417,0.0000,0.0000,0.0000,1.0000,-0.0081,0.0004,0.2435
515,Right,2,0.0095,0.0118,-0.3905,0.9205,0.0116,0.0013,0.0067,-0.0047,-0.0077,-0.1191,-0.2801,0.0734,9.6893,0.0001,0.0000,0.0001,1.0000,-0.0070,0.0018,0.2422
515,Pelvis,2,-0.1280,-0.6361,-0.1516,0.7457,-0.0000,0.0006,-0.0018,0.0056,-0.0166,0.0012,9.6924,0.0066,1.5399,-0.0000,0.0000,-0.0000,1.0000,0.2423,0.0002,0.0385
515,Left,2,0.0132,0.0089,-0.8008,0.5987,0.0018,0.0024,0.0024,0.0089,-0.0074,-0.0561,-0.3056,0.0262,9.7517,0.0000,0.0000,0.0000,1.0000,-0.0076,0.0007,0.2438
516,Right,2,0.0095,0.0118,-0.3905,0.9205,0.0122,0.0012,0.0055,-0.0014,0.0087,-0.1098,-0.2898,0.0871,9.6981,0.0002,0.0000,0.0001,1.0000,-0.0072,0.0021,0.2425
516,Pelvis,2,-0.1280,-0.6361,-0.1516,0.7457,0.0012,-0.0012,-0.0018,-0.0160,0.0143,-0.0136,9.6726,0.0264,1.5691,0.0000,-0.0000,-0.0000,1.0000,0.2418,0.0007,0.0392
516,Left,2,0.0132,0.0089,-0.8008,0.5987,0.0012,0.0037,0.0037,0.0124,0.0027,-0.0658,-0.3159,0.0267,9.7417,0.0000,0.0000,0.0000,1.0000,-0.0079,0.0007,0.2435
517,Right,2,0.0095,0.0118,-0.3906,0.9204,0.0122,0.0006,0.0055,-0.0015,-0.0169,-0.1186,-0.2712,0.0692,9.6900,0.0002,0.0000,0.0001,1.0000,-0.0068,0.0017,0.2423
517,Pelvis,2,-0.1280,-0.6361,-0.1516,0.7457,0.0000,-0.0006,-0.0024,0.0086,-0.0060,-0.0085,9.6825,0.0172,1.5396,0.0000,-0.0000,-0.0000,1.0000,0.2421,0.0004,0.0385
517,Left,2,0.0132,0.0089,-0.8008,0.5987,0.0006,0.0037,0.0037,0.0101,-0.0057,-0.0757,-0.3068,0.0267,9.7322,0.0000,0.0000,0.0000,1.0000,-0.0077,0.0007,0.2433
518,Right,2,0.0095,0.0118,-0.3906,0.9204,0.0123,0.0030,0.0048,-0.0059,0.0061,-0.1286,-0.2907,0.0819,9.6794,0.0002,0.0000,0.0001,1.0000,-0.0073,0.0020,0.2420
518,Pelvis,2,-0.1280,-0.6361,-0.1516,0.7457,-0.0006,-0.0000,-0.0024,0.0074,-0.0049,-0.0182,9.6727,0.0176,1.5395,-0.0000,-0.0000,-0.0000,1.0000,0.2418,0.0004,0.0385
518,Left,2,0.0132,0.0089,-0.8008,0.5987,0.0018,0.0037,0.0037,-0.0107,-0.0087,-0.0560,-0.2987,0.0075,9.7521,0.0000,0.0000,0.0000,1.0000,-0.0075,0.0002,0.2438
519,Right,2,0.0095,0.0118,-0.3906,0.9205,0.0122,0.0012,0.0043,-0.0034,-0.0048,-0.1087,-0.2819,0.0763,9.6996,0.0002,0.0000,0.0001,1.0000,-0.0070,0.0019,0.2425
519,Pelvis,2,-0.1280,-0.6361,-0.1516,0.7457,0.0018,-0.0012,-0.0037,0.0057,0.0075,0.0025,9.6922,0.0285,1.5491,0.0000,-0.0000,-0.0000,1.0000,0.2423,0.0007,0.0387
519,Left,2,0.0132,0.0089,-0.8008,0.5987,0.0012,0.0031,0.0030,0.0114,-0.0043,-0.0757,-0.3085,0.0274,9.7321,0.0000,0.0000,0.0000,1.0000,-0.0077,0.0007,0.2433
520,Right,2,0.0095,0.0118,-0.3905,0.9205,0.0116,0.0012,0.0061,0.0046,0.0034,-0.1288,-0.2817,0.0874,9.6794,0.0001,0.0000,0.0001,1.0000,-0.0070,0.0022,0.2420
520,Pelvis,2,-0.1280,-0.6360,-0.1516,0.7457,-0.0006,0.0018,-0.0024,-0.0120,-0.0056,-0.0053,9.6827,0.0096,1.5590,-0.0000,0.0000,-0.0000,1.0000,0.2421,0.0002,0.0390
520,Left,2,0.0132,0.0089,-0.8008,0.5987,0.0018,0.0043,0.0024,0.0030,-0.0010,-0.0463,-0.3102,0.0183,9.7615,0.0000,0.0001,0.0000,1.0000,-0.0077,0.0005,0.2440
521,Right,2,0.0095,0.0118,-0.3905,0.9205,0.0110,0.0025,0.0054,-0.0000,-0.0005,-0.1184,-0.2826,0.0813,9.6898,0.0001,0.0000,0.0001,1.0000,-0.0071,0.0020,0.2422
