PacketId,Role,StatusWord,Qx,Qy,Qz,Qw,Gx,Gy,Gz,FreeAx,FreeAy,FreeAz,Ax,Ay,Az,DQx,DQy,DQz,DQw,DVx,DVy,DVz
13389166,Right,2,-0.0915,0.2015,0.5118,0.8301,0.0275,0.0564,-0.0045,-0.2829,-0.0946,0.1216,-4.4375,0.7457,8.8618,0.0003,0.0007,-0.0001,1.0000,-0.1108,0.0186,0.2216
13389166,Pelvis,2,-0.4962,0.4337,-0.4463,-0.6054,0.2621,0.0796,0.1106,0.6890,-0.0915,-1.1669,8.5142,1.1764,1.1652,0.0033,0.0010,0.0014,1.0000,0.2128,0.0296,0.0290
13389166,Left,2,-0.1751,0.0410,0.7674,0.6154,0.0568,0.0355,0.0242,-0.0240,-0.0692,0.0260,-3.1967,-1.4663,9.1889,0.0007,0.0004,0.0003,1.0000,-0.0798,-0.0368,0.2297
13389167,Right,2,-0.0914,0.2015,0.5116,0.8302,0.0134,-0.0084,-0.0132,0.0280,-0.1378,0.0647,-4.3311,0.4489,8.8670,0.0002,-0.0001,-0.0002,1.0000,-0.1083,0.0112,0.2217
13389167,Pelvis,2,-0.4973,0.4324,-0.4487,-0.6036,0.2618,0.0582,0.0925,0.2833,0.1428,-0.9113,8.6974,1.6361,1.0066,0.0033,0.0007,0.0012,1.0000,0.2174,0.0411,0.0251
13389167,Left,2,-0.1749,0.0412,0.7675,0.6153,0.0319,-0.0020,0.0127,-0.0483,-0.0999,0.0532,-3.2337,-1.4309,9.2111,0.0004,-0.0000,0.0002,1.0000,-0.0808,-0.0359,0.2303
13389168,Right,2,-0.0910,0.2017,0.5117,0.8302,0.0413,-0.0040,0.0201,0.0693,-0.0451,-0.0290,-4.1979,0.4544,8.8260,0.0005,-0.0001,0.0003,1.0000,-0.1050,0.0112,0.2207
13389168,Pelvis,2,-0.4983,0.4312,-0.4509,-0.6020,0.2322,0.0465,0.0837,0.0136,0.2578,-0.2709,9.2727,2.0327,0.9982,0.0029,0.0006,0.0010,1.0000,0.2318,0.0510,0.0250
13389168,Left,2,-0.1746,0.0413,0.7676,0.6153,0.0309,-0.0148,0.0110,0.0130,0.0261,-0.1176,-3.0712,-1.4886,9.0745,0.0004,-0.0002,0.0001,1.0000,-0.0768,-0.0373,0.2268
13389169,Right,2,-0.0905,0.2019,0.5120,0.8300,0.0426,-0.0088,0.0427,-0.0877,-0.0603,0.1038,-4.3273,0.6048,8.9026,0.0005,-0.0001,0.0005,1.0000,-0.1082,0.0149,0.2226
13389169,Pelvis,2,-0.4990,0.4299,-0.4530,-0.6008,0.2025,0.0842,0.0738,-0.0880,0.2631,0.4483,9.9497,2.2715,1.0991,0.0025,0.0011,0.0009,1.0000,0.2487,0.0569,0.0274
13389169,Left,2,-0.1743,0.0414,0.7677,0.6153,0.0316,-0.0098,0.0094,-0.0115,0.0245,-0.1006,-3.0709,-1.4622,9.0970,0.0004,-0.0001,0.0001,1.0000,-0.0768,-0.0367,0.2274
13389170,Left,2,-0.1741,0.0416,0.7678,0.6152,0.0303,0.0005,0.0098,-0.0042,0.0435,-0.1095,-3.0507,-1.4674,9.0936,0.0004,0.0000,0.0001,1.0000,-0.0763,-0.0368,0.2273
13389171,Right,2,-0.0892,0.2016,0.5126,0.8298,0.0367,-0.0362,0.0362,-0.0573,0.0177,0.0017,-4.1984,0.6252,8.8492,0.0009,-0.0009,0.0009,1.0000,-0.2104,0.0307,0.4423
13389171,Pelvis,2,-0.5008,0.4268,-0.4568,-0.5987,0.2110,0.0793,0.0359,-0.3133,0.2143,0.2862,9.7383,2.4435,1.1517,0.0053,0.0020,0.0009,1.0000,0.4869,0.1223,0.0573
13389171,Left,2,-0.1741,0.0420,0.7678,0.6151,0.0397,0.0189,0.0157,0.0225,0.0634,-0.1159,-3.0373,-1.4906,9.0876,0.0005,0.0002,0.0002,1.0000,-0.0759,-0.0374,0.2272
13389172,Right,2,-0.0885,0.2019,0.5127,0.8298,0.0618,-0.0090,0.0254,0.0607,0.0143,-0.0158,-4.1377,0.5345,8.8644,0.0008,-0.0001,0.0003,1.0000,-0.1035,0.0132,0.2216
13389172,Pelvis,2,-0.5022,0.4254,-0.4579,-0.5977,0.1963,0.0283,-0.0104,-0.4691,0.1400,-0.1453,9.2765,2.5009,1.1798,0.0025,0.0004,-0.0001,1.0000,0.2319,0.0624,0.0296
13389172,Left,2,-0.1741,0.0425,0.7678,0.6150,0.0413,0.0308,0.0147,-0.0717,0.0488,-0.0878,-3.0485,-1.3934,9.1294,0.0005,0.0004,0.0002,1.0000,-0.0761,-0.0350,0.2282
13389173,Right,2,-0.0878,0.2024,0.5129,0.8296,0.0692,0.0080,0.0354,-0.0635,0.0176,-0.0351,-4.1751,0.6610,8.8169,0.0009,0.0001,0.0004,1.0000,-0.1044,0.0163,0.2204
13389173,Pelvis,2,-0.5032,0.4242,-0.4587,-0.5971,0.1442,0.0353,-0.0215,-0.2566,0.0846,-0.3351,9.1305,2.2586,1.1961,0.0018,0.0004,-0.0003,1.0000,0.2283,0.0563,0.0299
13389173,Left,2,-0.1743,0.0431,0.7679,0.6149,0.0361,0.0347,0.0162,-0.0124,0.0213,-0.0994,-3.0888,-1.4347,9.0966,0.0005,0.0004,0.0002,1.0000,-0.0771,-0.0360,0.2274
13389174,Right,2,-0.0872,0.2028,0.5131,0.8295,0.0638,0.0033,0.0356,-0.0499,0.0195,-0.0229,-4.1740,0.6672,8.8304,0.0008,0.0000,0.0004,1.0000,-0.1043,0.0165,0.2208
13389174,Pelvis,2,-0.5042,0.4232,-0.4589,-0.5967,0.1074,0.0043,-0.0462,0.0276,0.0385,-0.5558,8.9712,1.9431,1.1974,0.0013,0.0001,-0.0006,1.0000,0.2243,0.0484,0.0300
13389174,Left,2,-0.1743,0.0436,0.7679,0.6149,0.0403,0.0280,0.0108,-0.0064,-0.0081,-0.0783,-3.1313,-1.4296,9.1055,0.0005,0.0003,0.0001,1.0000,-0.0782,-0.0359,0.2276
13389175,Right,2,-0.0865,0.2031,0.5133,0.8293,0.0567,-0.0120,0.0391,-0.0458,-0.0282,-0.0250,-4.2089,0.6571,8.8122,0.0007,-0.0001,0.0005,1.0000,-0.1053,0.0162,0.2203
13389175,Pelvis,2,-0.5054,0.4223,-0.4586,-0.5966,0.0894,-0.0203,-0.0867,0.1063,0.0042,-0.4276,9.1054,1.9098,1.2387,0.0011,-0.0003,-0.0011,1.0000,0.2277,0.0475,0.0311
13389175,Left,2,-0.1743,0.0439,0.7679,0.6148,0.0361,0.0197,0.0087,-0.0304,-0.0196,-0.0612,-3.1484,-1.3997,9.1226,0.0005,0.0002,0.0001,1.0000,-0.0787,-0.0351,0.2281
13389176,Right,2,-0.0858,0.2031,0.5136,0.8292,0.0489,-0.0250,0.0376,-0.0729,0.0408,-0.0311,-4.1559,0.7263,8.8254,0.0006,-0.0003,0.0005,1.0000,-0.1040,0.0180,0.2206
13389176,Pelvis,2,-0.5065,0.4214,-0.4580,-0.5968,0.0623,-0.0080,-0.1054,-0.0550,0.0171,0.2271,9.6999,2.2343,1.3122,0.0008,-0.0001,-0.0013,1.0000,0.2426,0.0555,0.0329
13389176,Left,2,-0.1742,0.0442,0.7679,0.6148,0.0317,0.0132,0.0064,-0.0163,0.0098,-0.0496,-3.1310,-1.4164,9.1383,0.0004,0.0002,0.0001,1.0000,-0.0782,-0.0355,0.2285
13389177,Right,2,-0.0854,0.2032,0.5137,0.8292,0.0323,-0.0069,0.0185,-0.0497,0.1756,-0.1062,-4.0008,0.7727,8.8117,0.0004,-0.0001,0.0002,1.0000,-0.1000,0.0192,0.2203
13389177,Pelvis,2,-0.5069,0.4205,-0.4578,-0.5972,0.0339,0.0303,-0.0767,-0.2575,0.0331,0.7251,10.1318,2.5659,1.3701,0.0004,0.0004,-0.0010,1.0000,0.2534,0.0639,0.0342
13389177,Left,2,-0.1742,0.0445,0.7679,0.6148,0.0308,0.0098,0.0078,-0.0211,0.0284,-0.0403,-3.1183,-1.4127,9.1532,0.0004,0.0001,0.0001,1.0000,-0.0779,-0.0354,0.2288
13389178,Right,2,-0.0855,0.2037,0.5135,0.8292,0.0203,0.0311,-0.0033,-0.0680,0.1123,-0.1258,-4.0539,0.7636,8.7656,0.0003,0.0004,-0.0000,1.0000,-0.1013,0.0190,0.2192
13389178,Pelvis,2,-0.5068,0.4199,-0.4580,-0.5975,0.0138,0.0470,-0.0174,-0.2323,0.0507,0.5815,9.9964,2.5239,1.3410,0.0002,0.0006,-0.0002,1.0000,0.2499,0.0630,0.0334
13389178,Left,2,-0.1742,0.0448,0.7680,0.6147,0.0264,0.0200,0.0116,0.0057,0.0469,-0.1254,-3.0819,-1.4259,9.0728,0.0003,0.0002,0.0001,1.0000,-0.0770,-0.0357,0.2268
13389179,Right,2,-0.0857,0.2043,0.5132,0.8292,0.0206,0.0597,-0.0133,-0.0361,0.0426,-0.0511,-4.1402,0.7104,8.8117,0.0003,0.0007,-0.0002,1.0000,-0.1033,0.0177,0.2204
13389179,Pelvis,2,-0.5066,0.4194,-0.4587,-0.5976,0.0282,0.0637,0.0194,0.0389,0.0431,0.0219,9.5147,2.1367,1.2760,0.0004,0.0008,0.0002,1.0000,0.2379,0.0535,0.0317
13389179,Left,2,-0.1745,0.0453,0.7680,0.6146,0.0267,0.0435,0.0187,-0.0242,0.0831,-0.1588,-3.0393,-1.3967,9.0563,0.0003,0.0005,0.0002,1.0000,-0.0759,-0.0350,0.2264
13389180,Right,2,-0.0859,0.2051,0.5130,0.8291,0.0277,0.0631,-0.0062,-0.0391,-0.0222,0.0040,-4.2316,0.6897,8.8311,0.0003,0.0008,-0.0001,1.0000,-0.1056,0.0172,0.2209
13389180,Pelvis,2,-0.5068,0.4189,-0.4592,-0.5973,0.0592,0.0273,0.0121,0.1668,0.0485,-0.3864,9.1493,1.9207,1.2197,0.0007,0.0003,0.0002,1.0000,0.2287,0.0480,0.0304
13389180,Left,2,-0.1751,0.0461,0.7680,0.6143,0.0274,0.0766,0.0277,-0.0086,0.0832,-0.1467,-3.0600,-1.4082,9.0605,0.0003,0.0010,0.0003,1.0000,-0.0763,-0.0353,0.2266
13389181,Right,2,-0.0861,0.2057,0.5129,0.8290,0.0187,0.0459,0.0046,-0.0594,-0.0459,0.0610,-4.2953,0.7042,8.8629,0.0002,0.0006,0.0001,1.0000,-0.1073,0.0175,0.2216
13389181,Pelvis,2,-0.5073,0.4185,-0.4597,-0.5968,0.0798,0.0072,0.0027,0.1151,0.1388,-0.3014,9.2305,1.9961,1.1443,0.0010,0.0001,0.0000,1.0000,0.2308,0.0499,0.0286
13389182,Right,2,-0.0861,0.2060,0.5129,0.8289,0.0139,0.0241,0.0118,-0.0469,0.0001,0.0080,-4.2378,0.7134,8.8306,0.0002,0.0003,0.0001,1.0000,-0.1059,0.0178,0.2208
13389182,Left,2,-0.1763,0.0474,0.7681,0.6138,0.0186,0.0754,0.0252,-0.0535,0.0271,-0.1022,-3.1449,-1.3504,9.0876,0.0005,0.0019,0.0006,1.0000,-0.1563,-0.0678,0.4546
13389183,Right,2,-0.0861,0.2063,0.5130,0.8288,0.0152,0.0197,0.0111,-0.0688,-0.0060,0.0184,-4.2603,0.7336,8.8299,0.0002,0.0002,0.0001,1.0000,-0.1065,0.0183,0.2208
13389183,Pelvis,2,-0.5083,0.4177,-0.4607,-0.5958,0.0780,0.0038,0.0157,-0.0935,0.1317,0.0158,9.4894,2.2684,1.1963,0.0020,0.0001,0.0004,1.0000,0.4744,0.1135,0.0600
13389183,Left,2,-0.1773,0.0480,0.7681,0.6135,-0.0034,0.0895,0.0228,-0.0192,-0.0446,0.0021,-3.2795,-1.3797,9.1473,-0.0000,0.0011,0.0003,1.0000,-0.0817,-0.0345,0.2288
13389184,Right,2,-0.0861,0.2065,0.5129,0.8288,0.0165,0.0122,0.0057,-0.0335,0.0015,0.0034,-4.2374,0.7075,8.8261,0.0002,0.0002,0.0001,1.0000,-0.1059,0.0176,0.2207
13389184,Pelvis,2,-0.5086,0.4174,-0.4612,-0.5953,0.0604,0.0081,0.0182,-0.1530,0.0439,0.1425,9.5884,2.3473,1.2979,0.0008,0.0001,0.0002,1.0000,0.2397,0.0587,0.0325
13389184,Left,2,-0.1781,0.0484,0.7681,0.6132,-0.0063,0.0685,0.0184,-0.0321,-0.0072,-0.0095,-3.2570,-1.3769,9.1433,-0.0001,0.0009,0.0002,1.0000,-0.0812,-0.0344,0.2287
13389185,Right,2,-0.0860,0.2066,0.5129,0.8288,0.0205,0.0038,0.0052,-0.0381,-0.0056,-0.0077,-4.2418,0.7106,8.8115,0.0003,0.0000,0.0001,1.0000,-0.1060,0.0177,0.2203
13389185,Pelvis,2,-0.5088,0.4170,-0.4617,-0.5950,0.0556,0.0222,0.0146,-0.1396,-0.0402,0.0716,9.5128,2.3119,1.3717,0.0007,0.0003,0.0002,1.0000,0.2378,0.0578,0.0343
13389185,Left,2,-0.1788,0.0487,0.7681,0.6130,-0.0090,0.0592,0.0162,0.0077,-0.0066,-0.0336,-3.2705,-1.4148,9.1067,-0.0001,0.0007,0.0002,1.0000,-0.0816,-0.0354,0.2277
13389186,Right,2,-0.0858,0.2066,0.5129,0.8288,0.0146,-0.0017,0.0079,-0.0451,0.0033,0.0141,-4.2467,0.7254,8.8321,0.0002,-0.0000,0.0001,1.0000,-0.1062,0.0181,0.2208
13389186,Pelvis,2,-0.5088,0.4165,-0.4622,-0.5950,0.0424,0.0443,0.0048,-0.2201,-0.0791,0.0702,9.4878,2.3874,1.4171,0.0005,0.0006,0.0001,1.0000,0.2372,0.0597,0.0353
13389186,Left,2,-0.1794,0.0490,0.7681,0.6128,-0.0014,0.0580,0.0175,-0.0099,0.0298,-0.0852,-3.2297,-1.4020,9.0680,-0.0000,0.0007,0.0002,1.0000,-0.0806,-0.0351,0.2268
13389187,Right,2,-0.0857,0.2066,0.5130,0.8287,0.0102,-0.0070,0.0111,-0.0534,0.0160,-0.0098,-4.2281,0.7391,8.8134,0.0001,-0.0001,0.0001,1.0000,-0.1057,0.0184,0.2203
13389187,Pelvis,2,-0.5086,0.4160,-0.4626,-0.5953,0.0100,0.0579,-0.0042,-0.2632,-0.1021,0.0825,9.4852,2.4321,1.4531,0.0001,0.0007,-0.0001,1.0000,0.2372,0.0608,0.0362
13389187,Left,2,-0.1800,0.0493,0.7680,0.6126,-0.0057,0.0566,0.0129,-0.0367,-0.0010,-0.0388,-3.2818,-1.3778,9.1029,-0.0001,0.0007,0.0002,1.0000,-0.0819,-0.0344,0.2276
13389188,Right,2,-0.0857,0.2066,0.5131,0.8287,0.0060,-0.0045,0.0104,-0.0616,0.0689,-0.0534,-4.1680,0.7689,8.7915,0.0001,-0.0001,0.0001,1.0000,-0.1042,0.0192,0.2198
13389188,Pelvis,2,-0.5082,0.4156,-0.4628,-0.5957,-0.0134,0.0569,-0.0103,-0.0837,-0.0461,0.0618,9.5103,2.2578,1.4041,-0.0002,0.0007,-0.0001,1.0000,0.2378,0.0564,0.0349
13389188,Left,2,-0.1807,0.0495,0.7680,0.6124,-0.0107,0.0528,0.0108,-0.0573,0.0454,-0.0712,-3.2366,-1.3684,9.0860,-0.0001,0.0007,0.0001,1.0000,-0.0808,-0.0342,0.2272
13389189,Right,2,-0.0857,0.2066,0.5131,0.8287,0.0024,0.0059,0.0023,-0.0505,0.0492,-0.0512,-4.1806,0.7503,8.7892,0.0000,0.0001,0.0000,1.0000,-0.1045,0.0187,0.2197
13389189,Pelvis,2,-0.5077,0.4151,-0.4630,-0.5963,-0.0187,0.0625,-0.0148,0.0836,0.0251,0.0421,9.5355,2.0971,1.3418,-0.0002,0.0008,-0.0002,1.0000,0.2384,0.0524,0.0333
13389189,Left,2,-0.1815,0.0498,0.7680,0.6122,-0.0115,0.0645,0.0116,0.0109,0.0378,-0.0816,-3.2658,-1.4347,9.0538,-0.0001,0.0008,0.0001,1.0000,-0.0815,-0.0358,0.2264
13389190,Right,2,-0.0858,0.2067,0.5130,0.8287,0.0056,0.0065,0.0009,-0.0376,-0.0019,-0.0016,-4.2399,0.7185,8.8185,0.0001,0.0001,0.0000,1.0000,-0.1060,0.0179,0.2205
13389190,Pelvis,2,-0.5074,0.4146,-0.4632,-0.5967,-0.0060,0.0671,-0.0132,0.1725,0.0816,0.0575,9.5750,2.0205,1.3020,-0.0001,0.0008,-0.0002,1.0000,0.2394,0.0505,0.0323
13389190,Left,2,-0.1822,0.0500,0.7680,0.6120,-0.0083,0.0611,0.0158,0.0052,-0.0019,-0.0422,-3.3289,-1.4291,9.0740,-0.0001,0.0008,0.0002,1.0000,-0.0830,-0.0357,0.2269
13389191,Right,2,-0.0857,0.2067,0.5130,0.8287,0.0109,-0.0001,0.0056,-0.0383,0.0114,-0.0193,-4.2223,0.7245,8.8067,0.0001,-0.0000,0.0001,1.0000,-0.1056,0.0181,0.2202
13389191,Pelvis,2,-0.5070,0.4139,-0.4637,-0.5971,0.0113,0.0793,-0.0068,0.1190,0.0825,-0.0292,9.4764,2.0559,1.3071,0.0001,0.0010,-0.0001,1.0000,0.2369,0.0514,0.0325
13389191,Left,2,-0.1827,0.0503,0.7680,0.6118,-0.0008,0.0521,0.0158,0.0031,-0.0128,-0.0420,-3.3515,-1.4269,9.0663,-0.0000,0.0007,0.0002,1.0000,-0.0836,-0.0357,0.2267
13389192,Right,2,-0.0856,0.2067,0.5130,0.8287,0.0090,-0.0016,0.0066,-0.0249,0.0296,-0.0705,-4.1798,0.7188,8.7706,0.0001,-0.0000,0.0001,1.0000,-0.1045,0.0179,0.2193
13389192,Pelvis,2,-0.5068,0.4133,-0.4642,-0.5974,0.0212,0.0677,-0.0019,0.0103,0.0763,-0.1026,9.3773,2.1473,1.3220,0.0003,0.0008,-0.0000,1.0000,0.2345,0.0537,0.0329
13389192,Left,2,-0.1831,0.0506,0.7680,0.6117,0.0066,0.0392,0.0112,-0.0134,-0.0043,-0.0144,-3.3604,-1.4181,9.0941,0.0001,0.0005,0.0001,1.0000,-0.0839,-0.0355,0.2274
13389193,Right,2,-0.0856,0.2068,0.5130,0.8287,0.0130,0.0099,0.0052,-0.0474,0.0510,-0.0620,-4.1756,0.7507,8.7797,0.0002,0.0001,0.0001,1.0000,-0.1044,0.0187,0.2195
13389193,Pelvis,2,-0.5066,0.4127,-0.4647,-0.5976,0.0218,0.0566,0.0002,0.0813,0.0403,-0.0357,9.4508,2.0922,1.3793,0.0003,0.0007,0.0000,1.0000,0.2363,0.0523,0.0343
13389193,Left,2,-0.1834,0.0508,0.7680,0.6115,0.0090,0.0290,0.0100,-0.0012,-0.0053,-0.0519,-3.3583,-1.4241,9.0536,0.0001,0.0004,0.0001,1.0000,-0.0839,-0.0356,0.2264
13389194,Right,2,-0.0856,0.2071,0.5130,0.8286,0.0154,0.0153,0.0077,-0.0469,0.0605,-0.0341,-4.1822,0.7588,8.8068,0.0002,0.0002,0.0001,1.0000,-0.1045,0.0189,0.2202
13389194,Pelvis,2,-0.5066,0.4122,-0.4650,-0.5976,0.0317,0.0385,-0.0014,0.1432,0.0242,-0.0025,9.4929,2.0399,1.4085,0.0004,0.0005,-0.0000,1.0000,0.2373,0.0510,0.0351
13389194,Left,2,-0.1836,0.0510,0.7680,0.6115,0.0103,0.0238,0.0074,-0.0178,0.0031,-0.0243,-3.3627,-1.4142,9.0833,0.0001,0.0003,0.0001,1.0000,-0.0840,-0.0354,0.2271
13389195,Right,2,-0.0856,0.2073,0.5130,0.8286,0.0125,0.0144,0.0058,-0.0534,0.0015,0.0091,-4.2545,0.7428,8.8215,0.0002,0.0002,0.0001,1.0000,-0.1063,0.0185,0.2206
13389195,Pelvis,2,-0.5067,0.4118,-0.4654,-0.5976,0.0365,0.0317,-0.0030,0.0894,0.0434,0.0037,9.4879,2.0968,1.3983,0.0005,0.0004,-0.0000,1.0000,0.2372,0.0524,0.0349
13389195,Left,2,-0.1837,0.0511,0.7680,0.6114,0.0134,0.0163,0.0054,-0.0191,0.0018,-0.0340,-3.3645,-1.4107,9.0727,0.0002,0.0002,0.0001,1.0000,-0.0841,-0.0353,0.2268
13389196,Right,2,-0.0856,0.2073,0.5130,0.8286,0.0085,0.0030,0.0077,-0.0468,-0.0111,0.0162,-4.2670,0.7333,8.8241,0.0001,0.0000,0.0001,1.0000,-0.1067,0.0183,0.2206
13389196,Pelvis,2,-0.5069,0.4113,-0.4657,-0.5975,0.0421,0.0278,-0.0026,0.0584,0.0697,-0.0117,9.4683,2.1272,1.3757,0.0005,0.0003,-0.0000,1.0000,0.2367,0.0532,0.0343
13389196,Left,2,-0.1837,0.0512,0.7680,0.6114,0.0172,0.0063,0.0010,-0.0112,0.0108,-0.0425,-3.3568,-1.4183,9.0651,0.0002,0.0001,0.0000,1.0000,-0.0839,-0.0355,0.2266
13389197,Right,2,-0.0855,0.2073,0.5131,0.8285,0.0037,-0.0044,0.0079,-0.0478,0.0159,-0.0025,-4.2369,0.7459,8.8167,0.0000,-0.0001,0.0001,1.0000,-0.1059,0.0186,0.2204
13389197,Pelvis,2,-0.5071,0.4109,-0.4661,-0.5973,0.0446,0.0196,0.0042,0.0114,0.0620,-0.0772,9.3926,2.1595,1.3778,0.0006,0.0002,0.0001,1.0000,0.2348,0.0540,0.0344
13389197,Left,2,-0.1836,0.0512,0.7680,0.6114,0.0181,0.0002,0.0024,-0.0035,0.0004,-0.0411,-3.3685,-1.4218,9.0618,0.0002,0.0000,0.0000,1.0000,-0.0842,-0.0356,0.2265
13389198,Right,2,-0.0855,0.2072,0.5131,0.8285,0.0049,-0.0017,0.0064,-0.0516,0.0753,-0.0519,-4.1678,0.7733,8.7927,0.0001,-0.0000,0.0001,1.0000,-0.1042,0.0193,0.2198
13389198,Pelvis,2,-0.5074,0.4108,-0.4663,-0.5969,0.0447,-0.0102,0.0121,0.0230,0.0992,-0.1233,9.3563,2.1398,1.3328,0.0006,-0.0001,0.0002,1.0000,0.2339,0.0535,0.0334
13389198,Left,2,-0.1835,0.0512,0.7680,0.6115,0.0207,-0.0067,0.0003,-0.0152,0.0376,-0.0624,-3.3235,-1.4150,9.0566,0.0003,-0.0001,0.0000,1.0000,-0.0831,-0.0354,0.2264
13389199,Right,2,-0.0855,0.2072,0.5131,0.8285,0.0048,0.0005,0.0053,-0.0411,-0.0112,-0.0114,-4.2513,0.7274,8.8014,0.0001,0.0000,0.0001,1.0000,-0.1063,0.0182,0.2200
13389199,Pelvis,2,-0.5079,0.4109,-0.4665,-0.5964,0.0524,-0.0309,0.0142,0.0271,0.1484,-0.0722,9.4147,2.1484,1.2841,0.0007,-0.0004,0.0002,1.0000,0.2353,0.0537,0.0322
13389199,Left,2,-0.1833,0.0513,0.7680,0.6115,0.0250,-0.0091,0.0002,0.0005,0.0083,-0.0400,-3.3586,-1.4236,9.0663,0.0003,-0.0001,0.0000,1.0000,-0.0840,-0.0357,0.2266
13389200,Right,2,-0.0854,0.2072,0.5131,0.8285,0.0077,-0.0035,0.0069,-0.0477,0.0240,-0.0084,-4.2259,0.7502,8.8151,0.0001,-0.0000,0.0001,1.0000,-0.1057,0.0187,0.2204
13389200,Pelvis,2,-0.5083,0.4109,-0.4666,-0.5958,0.0484,-0.0271,0.0143,-0.0129,0.2100,0.0153,9.5000,2.2084,1.2271,0.0006,-0.0003,0.0002,1.0000,0.2375,0.0552,0.0308
13389200,Left,2,-0.1829,0.0512,0.7680,0.6116,0.0256,-0.0225,-0.0049,-0.0321,-0.0234,-0.0240,-3.3831,-1.3840,9.0807,0.0003,-0.0003,-0.0001,1.0000,-0.0846,-0.0347,0.2270
13389201,Right,2,-0.0853,0.2071,0.5132,0.8285,0.0066,-0.0089,0.0098,-0.0491,0.0245,-0.0084,-4.2243,0.7526,8.8156,0.0001,-0.0001,0.0001,1.0000,-0.1056,0.0188,0.2204
13389201,Pelvis,2,-0.5088,0.4109,-0.4668,-0.5953,0.0512,-0.0235,0.0176,-0.0161,0.2079,0.0064,9.4921,2.2075,1.2192,0.0006,-0.0003,0.0002,1.0000,0.2373,0.0552,0.0306
13389201,Left,2,-0.1825,0.0511,0.7680,0.6118,0.0265,-0.0293,-0.0079,-0.0121,0.0151,-0.0608,-3.3320,-1.4046,9.0568,0.0003,-0.0004,-0.0001,1.0000,-0.0834,-0.0352,0.2264
13389202,Right,2,-0.0852,0.2071,0.5133,0.8285,0.0060,-0.0084,0.0109,-0.0432,0.0394,-0.0032,-4.2100,0.7557,8.8281,0.0001,-0.0001,0.0001,1.0000,-0.1053,0.0189,0.2207
13389202,Pelvis,2,-0.5093,0.4109,-0.4671,-0.5946,0.0645,-0.0303,0.0206,0.0412,0.1936,-0.0346,9.4653,2.1393,1.2170,0.0008,-0.0004,0.0003,1.0000,0.2366,0.0535,0.0306
13389202,Left,2,-0.1822,0.0510,0.7680,0.6119,0.0252,-0.0215,-0.0046,-0.0081,0.0620,-0.1293,-3.2594,-1.4075,9.0093,0.0003,-0.0003,-0.0001,1.0000,-0.0815,-0.0353,0.2252
13389203,Right,2,-0.0851,0.2070,0.5133,0.8285,0.0071,-0.0081,0.0086,-0.0502,0.0508,-0.0440,-4.1837,0.7652,8.7946,0.0001,-0.0001,0.0001,1.0000,-0.1046,0.0191,0.2199
13389203,Pelvis,2,-0.5100,0.4109,-0.4673,-0.5939,0.0696,-0.0397,0.0188,0.0417,0.1439,-0.0332,9.4620,2.1346,1.2546,0.0009,-0.0005,0.0002,1.0000,0.2365,0.0534,0.0315
13389203,Left,2,-0.1820,0.0510,0.7680,0.6119,0.0239,-0.0120,-0.0026,-0.0103,0.0803,-0.1393,-3.2342,-1.4059,9.0080,0.0003,-0.0001,-0.0000,1.0000,-0.0809,-0.0352,0.2252
13389204,Right,2,-0.0851,0.2069,0.5134,0.8285,0.0065,-0.0054,0.0087,-0.0402,0.0321,-0.0249,-4.2015,0.7502,8.8084,0.0001,-0.0001,0.0001,1.0000,-0.1051,0.0187,0.2202
13389204,Pelvis,2,-0.5107,0.4109,-0.4675,-0.5932,0.0726,-0.0412,0.0150,0.0317,0.1188,0.0310,9.5204,2.1559,1.2753,0.0009,-0.0005,0.0002,1.0000,0.2380,0.0539,0.0321
13389204,Left,2,-0.1819,0.0511,0.7680,0.6119,0.0195,0.0007,0.0020,-0.0392,0.0396,-0.0735,-3.2869,-1.3755,9.0642,0.0002,0.0000,0.0000,1.0000,-0.0822,-0.0344,0.2266
13389205,Right,2,-0.0850,0.2069,0.5134,0.8285,0.0098,-0.0050,0.0081,-0.0284,0.0222,0.0219,-4.2237,0.7398,8.8507,0.0001,-0.0001,0.0001,1.0000,-0.1056,0.0185,0.2213
13389205,Pelvis,2,-0.5112,0.4107,-0.4678,-0.5926,0.0720,-0.0201,0.0115,-0.0917,0.1204,0.0371,9.5004,2.2771,1.2646,0.0009,-0.0003,0.0001,1.0000,0.2375,0.0569,0.0317
13389205,Left,2,-0.1818,0.0511,0.7680,0.6120,0.0183,0.0004,0.0001,-0.0227,0.0200,-0.0609,-3.3119,-1.3867,9.0668,0.0002,0.0000,0.0000,1.0000,-0.0828,-0.0347,0.2267
13389206,Right,2,-0.0848,0.2068,0.5135,0.8285,0.0082,-0.0101,0.0115,-0.0471,0.0264,-0.0191,-4.2079,0.7570,8.8112,0.0001,-0.0001,0.0001,1.0000,-0.1052,0.0189,0.2203
13389206,Pelvis,2,-0.5118,0.4106,-0.4680,-0.5920,0.0572,-0.0264,0.0099,-0.1103,0.1127,0.1113,9.5681,2.3110,1.2735,0.0007,-0.0003,0.0001,1.0000,0.2392,0.0578,0.0320
13389206,Left,2,-0.1817,0.0511,0.7680,0.6120,0.0172,-0.0012,0.0013,-0.0263,0.0383,-0.0612,-3.2935,-1.3864,9.0732,0.0002,-0.0000,0.0000,1.0000,-0.0823,-0.0347,0.2268
13389207,Right,2,-0.0848,0.2068,0.5135,0.8285,0.0055,-0.0064,0.0066,-0.0547,0.0653,-0.0618,-4.1586,0.7796,8.7855,0.0001,-0.0001,0.0001,1.0000,-0.1040,0.0195,0.2196
13389207,Pelvis,2,-0.5121,0.4103,-0.4683,-0.5917,0.0485,-0.0017,0.0039,-0.1240,0.1526,0.0964,9.5567,2.3229,1.2257,0.0006,-0.0000,0.0000,1.0000,0.2389,0.0581,0.0307
13389207,Left,2,-0.1817,0.0512,0.7680,0.6120,0.0156,0.0029,0.0039,-0.0167,0.0666,-0.0894,-3.2592,-1.3973,9.0538,0.0002,0.0000,0.0000,1.0000,-0.0815,-0.0350,0.2263
13389208,Right,2,-0.0847,0.2068,0.5135,0.8285,0.0082,0.0044,0.0050,-0.0414,0.0405,-0.0308,-4.1865,0.7594,8.8083,0.0001,0.0001,0.0001,1.0000,-0.1047,0.0190,0.2202
13389208,Pelvis,2,-0.5124,0.4102,-0.4685,-0.5914,0.0414,-0.0035,0.0058,-0.1366,0.1063,0.0806,9.5327,2.3306,1.2664,0.0005,-0.0000,0.0001,1.0000,0.2383,0.0583,0.0317
13389208,Left,2,-0.1818,0.0513,0.7680,0.6119,0.0133,0.0131,0.0051,-0.0082,0.0658,-0.0978,-3.2599,-1.4030,9.0437,0.0002,0.0002,0.0001,1.0000,-0.0815,-0.0351,0.2261
13389209,Right,2,-0.0847,0.2069,0.5135,0.8284,0.0069,0.0053,0.0054,-0.0393,0.0349,-0.0188,-4.1962,0.7567,8.8171,0.0001,0.0001,0.0001,1.0000,-0.1049,0.0189,0.2204
13389209,Pelvis,2,-0.5126,0.4101,-0.4685,-0.5912,0.0262,-0.0083,0.0041,-0.1384,0.0825,0.0442,9.4943,2.3236,1.2817,0.0003,-0.0001,0.0001,1.0000,0.2374,0.0581,0.0321
13389209,Left,2,-0.1819,0.0515,0.7680,0.6118,0.0150,0.0234,0.0081,-0.0097,0.0450,-0.0975,-3.2826,-1.3955,9.0368,0.0002,0.0003,0.0001,1.0000,-0.0820,-0.0349,0.2259
13389210,Right,2,-0.0848,0.2069,0.5135,0.8284,0.0039,0.0050,0.0032,-0.0736,0.0490,-0.0107,-4.2024,0.7943,8.8202,0.0000,0.0001,0.0000,1.0000,-0.1050,0.0198,0.2205
13389210,Pelvis,2,-0.5127,0.4102,-0.4684,-0.5911,0.0019,-0.0173,-0.0007,-0.1458,0.0325,-0.0375,9.4075,2.3113,1.3163,0.0000,-0.0002,-0.0000,1.0000,0.2352,0.0578,0.0330
13389210,Left,2,-0.1821,0.0517,0.7681,0.6118,0.0146,0.0218,0.0088,-0.0047,0.0347,-0.0767,-3.3049,-1.3994,9.0504,0.0002,0.0003,0.0001,1.0000,-0.0826,-0.0350,0.2263
13389211,Right,2,-0.0848,0.2069,0.5135,0.8284,0.0038,0.0009,0.0032,-0.0383,0.0160,-0.0059,-4.2181,0.7481,8.8217,0.0000,0.0000,0.0000,1.0000,-0.1055,0.0187,0.2205
13389211,Pelvis,2,-0.5126,0.4104,-0.4682,-0.5912,-0.0183,-0.0108,-0.0006,-0.0922,0.0326,0.0274,9.4826,2.2736,1.3221,-0.0002,-0.0001,-0.0000,1.0000,0.2371,0.0568,0.0331
13389211,Left,2,-0.1823,0.0519,0.7681,0.6117,0.0153,0.0245,0.0080,0.0011,0.0340,-0.0657,-3.3152,-1.4051,9.0576,0.0002,0.0003,0.0001,1.0000,-0.0828,-0.0352,0.2265
13389212,Right,2,-0.0847,0.2069,0.5136,0.8284,0.0042,-0.0036,0.0067,-0.0604,0.0234,0.0035,-4.2241,0.7719,8.8274,0.0001,-0.0000,0.0001,1.0000,-0.1056,0.0193,0.2207
13389212,Pelvis,2,-0.5125,0.4107,-0.4679,-0.5913,-0.0294,-0.0201,-0.0021,-0.0806,0.0699,-0.0186,9.4460,2.2533,1.2766,-0.0004,-0.0003,-0.0000,1.0000,0.2361,0.0563,0.0320
13389212,Left,2,-0.1824,0.0521,0.7681,0.6116,0.0147,0.0196,0.0085,-0.0236,0.0124,-0.0390,-3.3442,-1.3785,9.0797,0.0002,0.0002,0.0001,1.0000,-0.0835,-0.0345,0.2270
13389213,Right,2,-0.0847,0.2067,0.5136,0.8284,0.0029,-0.0117,0.0082,-0.0443,0.0228,-0.0179,-4.2072,0.7560,8.8130,0.0000,-0.0001,0.0001,1.0000,-0.1052,0.0189,0.2203
13389213,Pelvis,2,-0.5124,0.4111,-0.4675,-0.5915,-0.0423,-0.0271,-0.0044,-0.0734,0.0758,-0.0228,9.4449,2.2456,1.2668,-0.0005,-0.0003,-0.0001,1.0000,0.2361,0.0561,0.0317
13389213,Left,2,-0.1824,0.0522,0.7681,0.6116,0.0146,0.0109,0.0050,0.0020,0.0030,-0.0253,-3.3653,-1.4015,9.0832,0.0002,0.0001,0.0001,1.0000,-0.0841,-0.0351,0.2271
13389214,Right,2,-0.0846,0.2066,0.5137,0.8285,0.0005,-0.0119,0.0051,-0.0532,0.0226,-0.0241,-4.2052,0.7630,8.8065,0.0000,-0.0001,0.0001,1.0000,-0.1052,0.0191,0.2201
13389214,Pelvis,2,-0.5123,0.4115,-0.4670,-0.5918,-0.0419,-0.0259,-0.0117,-0.0380,0.1003,0.0220,9.4996,2.2230,1.2447,-0.0005,-0.0003,-0.0001,1.0000,0.2375,0.0556,0.0312
13389214,Left,2,-0.1824,0.0522,0.7681,0.6116,0.0162,0.0043,0.0004,-0.0195,0.0201,-0.0378,-3.3423,-1.3823,9.0811,0.0002,0.0001,0.0000,1.0000,-0.0835,-0.0346,0.2270
13389215,Right,2,-0.0845,0.2064,0.5137,0.8285,0.0043,-0.0113,0.0078,-0.0582,0.0427,-0.0370,-4.1823,0.7756,8.8021,0.0001,-0.0001,0.0001,1.0000,-0.1046,0.0194,0.2200
13389215,Pelvis,2,-0.5121,0.4118,-0.4665,-0.5921,-0.0493,-0.0153,-0.0150,-0.0198,0.1272,0.0190,9.5041,2.2077,1.2152,-0.0006,-0.0002,-0.0002,1.0000,0.2376,0.0552,0.0304
13389215,Left,2,-0.1824,0.0523,0.7681,0.6116,0.0159,0.0031,0.0017,-0.0172,0.0283,-0.0767,-3.3220,-1.3800,9.0471,0.0002,0.0000,0.0000,1.0000,-0.0830,-0.0345,0.2262
13389216,Right,2,-0.0844,0.2063,0.5138,0.8285,0.0038,-0.0157,0.0100,-0.0452,0.0317,-0.0069,-4.1958,0.7617,8.8301,0.0000,-0.0002,0.0001,1.0000,-0.1049,0.0190,0.2207
13389216,Pelvis,2,-0.5119,0.4121,-0.4659,-0.5925,-0.0574,-0.0151,-0.0211,-0.0332,0.1172,0.0055,9.4861,2.2205,1.2227,-0.0007,-0.0002,-0.0003,1.0000,0.2372,0.0555,0.0306
13389216,Left,2,-0.1824,0.0524,0.7681,0.6116,0.0154,0.0089,0.0031,-0.0110,0.0470,-0.0756,-3.3070,-1.3896,9.0524,0.0002,0.0001,0.0000,1.0000,-0.0826,-0.0348,0.2263
13389217,Right,2,-0.0843,0.2061,0.5139,0.8285,0.0043,-0.0165,0.0083,-0.0381,0.0453,-0.0186,-4.1731,0.7614,8.8280,0.0001,-0.0002,0.0001,1.0000,-0.1044,0.0190,0.2207
13389217,Pelvis,2,-0.5117,0.4124,-0.4653,-0.5929,-0.0500,-0.0215,-0.0259,0.0401,0.1373,0.0144,9.5131,2.1560,1.2022,-0.0006,-0.0003,-0.0003,1.0000,0.2378,0.0538,0.0301
13389217,Left,2,-0.1824,0.0524,0.7681,0.6116,0.0154,0.0037,0.0015,-0.0243,0.0161,-0.0572,-3.3401,-1.3709,9.0628,0.0002,0.0000,0.0000,1.0000,-0.0835,-0.0343,0.2266
13389218,Right,2,-0.0841,0.2059,0.5139,0.8285,0.0044,-0.0182,0.0091,-0.0599,0.0389,-0.0082,-4.1869,0.7791,8.8315,0.0001,-0.0002,0.0001,1.0000,-0.1047,0.0195,0.2208
13389218,Pelvis,2,-0.5116,0.4126,-0.4648,-0.5933,-0.0378,-0.0146,-0.0268,0.0635,0.1432,0.0145,9.5183,2.1387,1.1942,-0.0005,-0.0002,-0.0003,1.0000,0.2380,0.0534,0.0299
13389218,Left,2,-0.1823,0.0524,0.7681,0.6116,0.0150,-0.0013,-0.0019,-0.0072,0.0352,-0.0645,-3.3227,-1.3903,9.0584,0.0002,-0.0000,-0.0000,1.0000,-0.0831,-0.0348,0.2265
13389219,Right,2,-0.0840,0.2057,0.5140,0.8285,0.0023,-0.0202,0.0090,-0.0699,0.0398,0.0025,-4.1900,0.7895,8.8410,0.0000,-0.0003,0.0001,1.0000,-0.1048,0.0197,0.2210
13389219,Pelvis,2,-0.5116,0.4127,-0.4643,-0.5936,-0.0308,-0.0141,-0.0238,0.0432,0.0779,0.0064,9.4964,2.1589,1.2566,-0.0004,-0.0002,-0.0003,1.0000,0.2374,0.0539,0.0314
13389220,Right,2,-0.0839,0.2054,0.5141,0.8285,0.0010,-0.0232,0.0100,-0.0567,0.0313,-0.0299,-4.1728,0.7717,8.8147,0.0000,-0.0003,0.0001,1.0000,-0.1044,0.0193,0.2203
13389220,Pelvis,2,-0.5116,0.4130,-0.4638,-0.5938,-0.0316,-0.0275,-0.0200,0.0753,0.0823,-0.0507,9.4487,2.1195,1.2409,-0.0004,-0.0003,-0.0002,1.0000,0.2362,0.0529,0.0311
13389220,Left,2,-0.1820,0.0523,0.7680,0.6117,0.0162,-0.0077,-0.0029,-0.0215,0.0238,-0.0463,-3.3340,-1.3740,9.0763,0.0004,-0.0002,-0.0001,1.0000,-0.1668,-0.0689,0.4538
13389221,Right,2,-0.0837,0.2051,0.5142,0.8286,-0.0010,-0.0280,0.0112,-0.0449,0.0213,0.0170,-4.1903,0.7599,8.8594,-0.0000,-0.0004,0.0001,1.0000,-0.1048,0.0190,0.2214
13389221,Pelvis,2,-0.5117,0.4132,-0.4634,-0.5939,-0.0187,-0.0269,-0.0199,0.1445,0.1350,-0.0266,9.4942,2.0642,1.1858,-0.0002,-0.0003,-0.0002,1.0000,0.2374,0.0516,0.0297
13389221,Left,2,-0.1818,0.0522,0.7680,0.6118,0.0166,-0.0181,-0.0069,-0.0069,-0.0070,-0.0336,-3.3639,-1.3826,9.0776,0.0002,-0.0002,-0.0001,1.0000,-0.0842,-0.0346,0.2269
13389222,Right,2,-0.0835,0.2048,0.5143,0.8286,0.0003,-0.0264,0.0103,-0.0524,0.0601,-0.0257,-4.1369,0.7809,8.8356,0.0000,-0.0003,0.0001,1.0000,-0.1035,0.0195,0.2209
13389222,Pelvis,2,-0.5120,0.4133,-0.4631,-0.5938,0.0054,-0.0321,-0.0148,0.1885,0.1580,-0.0389,9.4952,2.0239,1.1542,0.0001,-0.0004,-0.0002,1.0000,0.2374,0.0506,0.0290
13389222,Left,2,-0.1814,0.0520,0.7680,0.6120,0.0211,-0.0325,-0.0101,-0.0228,0.0107,-0.0159,-3.3439,-1.3735,9.1055,0.0003,-0.0004,-0.0001,1.0000,-0.0837,-0.0344,0.2276
13389223,Right,2,-0.0835,0.2046,0.5144,0.8286,0.0002,-0.0165,0.0081,-0.0498,0.0972,-0.0959,-4.0705,0.7903,8.7883,0.0000,-0.0002,0.0001,1.0000,-0.1018,0.0197,0.2197
13389223,Pelvis,2,-0.5124,0.4135,-0.4628,-0.5935,0.0162,-0.0467,-0.0023,0.1263,0.1934,-0.0009,9.5227,2.0972,1.1154,0.0002,-0.0006,-0.0000,1.0000,0.2381,0.0524,0.0280
13389223,Left,2,-0.1809,0.0517,0.7680,0.6122,0.0245,-0.0390,-0.0121,-0.0136,0.0673,-0.1230,-3.2476,-1.3794,9.0247,0.0003,-0.0005,-0.0002,1.0000,-0.0813,-0.0345,0.2256
13389224,Right,2,-0.0834,0.2044,0.5144,0.8286,0.0047,-0.0110,0.0055,-0.0319,0.0488,-0.0063,-4.1379,0.7587,8.8584,0.0001,-0.0001,0.0001,1.0000,-0.1035,0.0189,0.2214
13389224,Pelvis,2,-0.5127,0.4136,-0.4627,-0.5933,0.0160,-0.0283,-0.0041,0.0903,0.2063,0.1185,9.6321,2.1612,1.1094,0.0002,-0.0004,-0.0001,1.0000,0.2408,0.0540,0.0278
13389224,Left,2,-0.1807,0.0517,0.7680,0.6122,0.0223,-0.0106,0.0004,0.0043,0.1253,-0.1501,-3.1815,-1.4048,9.0158,0.0003,-0.0001,0.0000,1.0000,-0.0796,-0.0352,0.2254
13389225,Right,2,-0.0833,0.2044,0.5145,0.8286,0.0070,-0.0029,0.0067,-0.0453,0.0556,-0.0076,-4.1350,0.7742,8.8570,0.0001,-0.0000,0.0001,1.0000,-0.1034,0.0193,0.2214
13389225,Pelvis,2,-0.5127,0.4136,-0.4626,-0.5934,0.0011,0.0030,-0.0058,0.0571,0.2253,0.1814,9.6875,2.2103,1.0961,0.0000,0.0000,-0.0001,1.0000,0.2422,0.0552,0.0274
13389225,Left,2,-0.1807,0.0518,0.7680,0.6122,0.0161,0.0067,0.0023,-0.0419,0.0637,-0.0967,-3.2468,-1.3513,9.0575,0.0002,0.0001,0.0000,1.0000,-0.0812,-0.0338,0.2264
13389226,Right,2,-0.0833,0.2044,0.5145,0.8286,0.0068,0.0004,0.0051,-0.0453,0.0548,-0.0244,-4.1279,0.7736,8.8417,0.0001,0.0000,0.0001,1.0000,-0.1032,0.0193,0.2210
13389226,Pelvis,2,-0.5124,0.4134,-0.4627,-0.5937,-0.0204,0.0379,-0.0076,-0.0027,0.2026,0.1896,9.6778,2.2709,1.1264,-0.0003,0.0005,-0.0001,1.0000,0.2420,0.0568,0.0280
13389226,Left,2,-0.1807,0.0518,0.7680,0.6122,0.0110,0.0051,0.0006,-0.0372,0.0338,-0.0660,-3.2864,-1.3523,9.0759,0.0001,0.0001,0.0000,1.0000,-0.0821,-0.0338,0.2269
13389227,Right,2,-0.0832,0.2045,0.5145,0.8286,0.0083,0.0036,0.0061,-0.0442,0.0528,-0.0581,-4.1149,0.7702,8.8108,0.0001,0.0000,0.0001,1.0000,-0.1029,0.0192,0.2203
13389227,Pelvis,2,-0.5118,0.4131,-0.4628,-0.5943,-0.0342,0.0538,-0.0056,-0.0061,0.2179,0.1118,9.6022,2.2584,1.1137,-0.0004,0.0007,-0.0001,1.0000,0.2401,0.0565,0.0277
13389227,Left,2,-0.1807,0.0518,0.7680,0.6122,0.0104,-0.0001,-0.0006,-0.0112,0.0437,-0.0621,-3.2831,-1.3805,9.0770,0.0001,-0.0000,-0.0000,1.0000,-0.0821,-0.0345,0.2269
13389228,Right,2,-0.0832,0.2045,0.5145,0.8286,0.0085,0.0041,0.0072,-0.0378,0.0373,0.0115,-4.1552,0.7639,8.8695,0.0001,0.0001,0.0001,1.0000,-0.1039,0.0191,0.2217
13389228,Pelvis,2,-0.5114,0.4130,-0.4628,-0.5947,-0.0292,0.0375,-0.0052,0.0669,0.1256,-0.0568,9.4429,2.1455,1.1940,-0.0004,0.0005,-0.0001,1.0000,0.2361,0.0536,0.0297
13389228,Left,2,-0.1806,0.0517,0.7680,0.6123,0.0124,-0.0044,-0.0014,-0.0303,0.0412,-0.0841,-3.2730,-1.3587,9.0603,0.0002,-0.0001,-0.0000,1.0000,-0.0818,-0.0340,0.2265
13389229,Right,2,-0.0831,0.2046,0.5145,0.8286,0.0126,0.0014,0.0073,-0.0572,0.0286,-0.0119,-4.1601,0.7772,8.8402,0.0002,0.0000,0.0001,1.0000,-0.1040,0.0194,0.2210
13389229,Pelvis,2,-0.5109,0.4126,-0.4630,-0.5953,-0.0244,0.0615,-0.0123,0.0871,0.1282,-0.0438,9.4584,2.1304,1.2062,-0.0003,0.0008,-0.0002,1.0000,0.2365,0.0532,0.0300
13389229,Left,2,-0.1805,0.0517,0.7680,0.6123,0.0135,-0.0046,-0.0001,-0.0070,0.0512,-0.0608,-3.2741,-1.3866,9.0807,0.0002,-0.0001,-0.0000,1.0000,-0.0819,-0.0347,0.2270
13389230,Right,2,-0.0830,0.2046,0.5145,0.8285,0.0120,-0.0010,0.0079,-0.0570,0.0679,-0.0484,-4.1119,0.7946,8.8210,0.0001,-0.0000,0.0001,1.0000,-0.1028,0.0198,0.2205
13389230,Pelvis,2,-0.5100,0.4120,-0.4631,-0.5964,-0.0617,0.1062,-0.0278,-0.0753,0.1366,0.1384,9.5939,2.3337,1.2484,-0.0008,0.0013,-0.0003,1.0000,0.2399,0.0583,0.0308
13389230,Left,2,-0.1804,0.0516,0.7680,0.6123,0.0141,-0.0050,-0.0022,-0.0205,0.0494,-0.0525,-3.2742,-1.3740,9.0915,0.0002,-0.0001,-0.0000,1.0000,-0.0819,-0.0344,0.2273
13389231,Right,2,-0.0830,0.2048,0.5145,0.8285,0.0109,0.0114,0.0039,-0.0528,0.0736,-0.0711,-4.0968,0.7938,8.8030,0.0001,0.0001,0.0000,1.0000,-0.1024,0.0198,0.2201
13389231,Pelvis,2,-0.5088,0.4114,-0.4631,-0.5979,-0.0869,0.1163,-0.0408,-0.0798,0.2374,0.2452,9.7037,2.3737,1.1951,-0.0011,0.0015,-0.0005,1.0000,0.2427,0.0593,0.0295
13389231,Left,2,-0.1804,0.0516,0.7680,0.6124,0.0111,0.0026,-0.0014,-0.0080,0.0775,-0.0998,-3.2333,-1.3862,9.0537,0.0001,0.0000,-0.0000,1.0000,-0.0808,-0.0347,0.2263
13389232,Right,2,-0.0830,0.2050,0.5144,0.8285,0.0096,0.0189,-0.0017,-0.0474,0.0618,-0.0471,-4.1175,0.7865,8.8204,0.0001,0.0002,-0.0000,1.0000,-0.1029,0.0196,0.2205
13389232,Pelvis,2,-0.5081,0.4108,-0.4629,-0.5990,-0.0643,0.0881,-0.0464,0.0883,0.2741,0.0175,9.5229,2.1689,1.1519,-0.0008,0.0011,-0.0006,1.0000,0.2381,0.0541,0.0285
13389232,Left,2,-0.1805,0.0517,0.7680,0.6123,0.0121,0.0158,0.0056,-0.0160,0.0755,-0.1302,-3.2247,-1.3736,9.0261,0.0002,0.0002,0.0001,1.0000,-0.0806,-0.0344,0.2257
13389233,Right,2,-0.0831,0.2053,0.5143,0.8285,0.0139,0.0242,-0.0007,-0.0353,0.0543,-0.0627,-4.1169,0.7725,8.8046,0.0002,0.0003,-0.0000,1.0000,-0.1029,0.0193,0.2202
13389233,Pelvis,2,-0.5077,0.4102,-0.4629,-0.5998,-0.0204,0.0687,-0.0406,0.3386,0.2940,-0.1204,9.4468,1.9046,1.1274,-0.0003,0.0009,-0.0005,1.0000,0.2362,0.0475,0.0280
13389233,Left,2,-0.1807,0.0518,0.7680,0.6122,0.0122,0.0189,0.0069,-0.0320,0.0445,-0.0925,-3.2664,-1.3554,9.0542,0.0002,0.0002,0.0001,1.0000,-0.0816,-0.0339,0.2264
13389234,Right,2,-0.0831,0.2057,0.5143,0.8284,0.0171,0.0317,0.0020,-0.0456,0.0689,-0.0530,-4.1189,0.7913,8.8129,0.0002,0.0004,0.0000,1.0000,-0.1029,0.0197,0.2204
13389234,Pelvis,2,-0.5076,0.4090,-0.4637,-0.6001,0.0565,0.1024,-0.0195,0.4415,0.3278,-0.1592,9.4345,1.8055,1.1056,0.0007,0.0013,-0.0002,1.0000,0.2359,0.0451,0.0274
13389234,Left,2,-0.1809,0.0520,0.7680,0.6122,0.0076,0.0254,0.0088,-0.0336,0.0528,-0.1023,-3.2596,-1.3543,9.0463,0.0001,0.0003,0.0001,1.0000,-0.0814,-0.0339,0.2262
13389235,Right,2,-0.0832,0.2061,0.5142,0.8284,0.0173,0.0377,0.0031,-0.0610,0.0642,-0.0197,-4.1502,0.8081,8.8337,0.0002,0.0005,0.0000,1.0000,-0.1037,0.0202,0.2209
13389235,Pelvis,2,-0.5079,0.4071,-0.4654,-0.5997,0.1530,0.1367,0.0127,0.6535,0.3182,0.0385,9.6696,1.6484,1.1645,0.0019,0.0017,0.0002,1.0000,0.2418,0.0412,0.0288
13389235,Left,2,-0.1812,0.0521,0.7680,0.6120,0.0023,0.0310,0.0100,-0.0366,0.0611,-0.1024,-3.2572,-1.3543,9.0472,0.0000,0.0004,0.0001,1.0000,-0.0813,-0.0339,0.2262
13389236,Right,2,-0.0834,0.2066,0.5141,0.8283,0.0072,0.0399,-0.0008,-0.1100,0.0631,-0.0230,-4.1768,0.8524,8.8137,0.0001,0.0005,-0.0000,1.0000,-0.1043,0.0213,0.2204
13389236,Pelvis,2,-0.5088,0.4045,-0.4683,-0.5985,0.2853,0.1695,0.0488,0.7532,0.3961,0.2168,9.8725,1.5955,1.1418,0.0036,0.0021,0.0006,1.0000,0.2468,0.0399,0.0282
13389236,Left,2,-0.1816,0.0522,0.7680,0.6119,-0.0030,0.0341,0.0093,-0.0204,0.0226,-0.0109,-3.3338,-1.3754,9.1143,-0.0000,0.0004,0.0001,1.0000,-0.0832,-0.0344,0.2279
13389237,Right,2,-0.0838,0.2069,0.5140,0.8282,-0.0025,0.0389,-0.0018,-0.0641,0.0382,-0.0009,-4.1973,0.8012,8.8327,-0.0000,0.0005,-0.0000,1.0000,-0.1048,0.0200,0.2209
13389237,Pelvis,2,-0.5100,0.4011,-0.4723,-0.5966,0.3948,0.2212,0.0824,0.5940,0.3428,0.2509,9.8569,1.7499,1.2345,0.0049,0.0028,0.0010,1.0000,0.2465,0.0439,0.0304
13389237,Left,2,-0.1819,0.0522,0.7680,0.6118,-0.0057,0.0220,0.0036,-0.0384,0.0005,-0.0327,-3.3491,-1.3528,9.0886,-0.0001,0.0003,0.0000,1.0000,-0.0837,-0.0338,0.2272
13389238,Right,2,-0.0841,0.2071,0.5139,0.8282,-0.0104,0.0336,-0.0044,-0.0699,0.0456,0.0039,-4.2034,0.8071,8.8347,-0.0001,0.0004,-0.0001,1.0000,-0.1050,0.0202,0.2209
13389238,Pelvis,2,-0.5114,0.3970,-0.4772,-0.5942,0.4757,0.2642,0.1189,0.3120,0.3057,0.1038,9.6415,1.9787,1.2859,0.0059,0.0033,0.0015,1.0000,0.2411,0.0496,0.0316
13389238,Left,2,-0.1822,0.0520,0.7680,0.6118,-0.0116,0.0095,-0.0014,-0.0408,-0.0009,-0.0327,-3.3527,-1.3546,9.0870,-0.0001,0.0001,-0.0000,1.0000,-0.0838,-0.0338,0.2272
13389239,Right,2,-0.0845,0.2072,0.5138,0.8282,-0.0170,0.0249,-0.0068,-0.0738,0.0242,-0.0062,-4.2243,0.7953,8.8146,-0.0002,0.0003,-0.0001,1.0000,-0.1055,0.0199,0.2204
13389239,Pelvis,2,-0.5129,0.3928,-0.4825,-0.5915,0.5177,0.2735,0.1368,0.0265,0.2823,-0.0993,9.3753,2.1955,1.3094,0.0065,0.0034,0.0017,1.0000,0.2344,0.0551,0.0323
13389239,Left,2,-0.1823,0.0517,0.7679,0.6118,-0.0131,-0.0036,-0.0090,-0.0327,0.0079,-0.0411,-3.3428,-1.3693,9.0794,-0.0002,-0.0000,-0.0001,1.0000,-0.0836,-0.0342,0.2270
13389240,Right,2,-0.0848,0.2072,0.5138,0.8282,-0.0150,0.0130,-0.0005,-0.0327,0.0203,0.0198,-4.2268,0.7539,8.8457,-0.0002,0.0002,-0.0000,1.0000,-0.1056,0.0189,0.2212
13389240,Pelvis,2,-0.5146,0.3884,-0.4879,-0.5885,0.5425,0.2699,0.1396,-0.0981,0.2880,-0.1584,9.2902,2.2887,1.3238,0.0068,0.0034,0.0017,1.0000,0.2323,0.0574,0.0327
13389240,Left,2,-0.1823,0.0513,0.7679,0.6119,-0.0143,-0.0135,-0.0108,-0.0238,0.0264,-0.0593,-3.3180,-1.3864,9.0663,-0.0002,-0.0002,-0.0001,1.0000,-0.0830,-0.0346,0.2267
13389241,Right,2,-0.0850,0.2072,0.5138,0.8282,-0.0116,0.0056,0.0000,-0.0406,0.0325,-0.0041,-4.2113,0.7606,8.8259,-0.0001,0.0001,0.0000,1.0000,-0.1053,0.0190,0.2207
13389241,Pelvis,2,-0.5163,0.3839,-0.4932,-0.5855,0.5471,0.2746,0.1229,-0.1035,0.3095,0.0005,9.4435,2.3176,1.3615,0.0068,0.0034,0.0015,1.0000,0.2361,0.0581,0.0336
13389241,Left,2,-0.1823,0.0509,0.7679,0.6120,-0.0133,-0.0172,-0.0124,-0.0069,0.0260,-0.0565,-3.3177,-1.4097,9.0658,-0.0002,-0.0002,-0.0002,1.0000,-0.0830,-0.0352,0.2266
13389242,Right,2,-0.0851,0.2071,0.5138,0.8281,-0.0079,0.0051,0.0019,-0.0472,0.0435,-0.0449,-4.1881,0.7654,8.7913,-0.0001,0.0001,0.0000,1.0000,-0.1047,0.0192,0.2198
13389242,Pelvis,2,-0.5179,0.3789,-0.4985,-0.5829,0.5439,0.3116,0.0992,-0.1219,0.3495,0.2789,9.7101,2.3900,1.4070,0.0068,0.0039,0.0012,1.0000,0.2428,0.0598,0.0346
13389242,Left,2,-0.1823,0.0505,0.7678,0.6121,-0.0131,-0.0166,-0.0130,0.0018,0.0738,-0.0847,-3.2605,-1.4324,9.0530,-0.0002,-0.0002,-0.0002,1.0000,-0.0816,-0.0358,0.2263
13389243,Right,2,-0.0852,0.2071,0.5138,0.8281,-0.0058,0.0056,0.0028,-0.0445,0.0641,-0.0517,-4.1682,0.7695,8.7930,-0.0001,0.0001,0.0000,1.0000,-0.1042,0.0192,0.2198
13389243,Pelvis,2,-0.5192,0.3735,-0.5039,-0.5805,0.5419,0.3509,0.0885,-0.2486,0.3152,0.2305,9.6236,2.5007,1.4694,0.0068,0.0044,0.0011,1.0000,0.2407,0.0625,0.0361
13389243,Left,2,-0.1824,0.0501,0.7678,0.6122,-0.0128,-0.0103,-0.0115,0.0201,0.0734,-0.0916,-3.2575,-1.4555,9.0430,-0.0002,-0.0001,-0.0001,1.0000,-0.0815,-0.0363,0.2261
13389244,Right,2,-0.0854,0.2072,0.5138,0.8281,-0.0053,0.0171,-0.0003,-0.0656,0.0840,-0.0602,-4.1586,0.7945,8.7862,-0.0001,0.0002,-0.0000,1.0000,-0.1039,0.0199,0.2197
13389244,Pelvis,2,-0.5206,0.3682,-0.5091,-0.5781,0.5301,0.3401,0.0780,-0.3638,0.2019,0.0240,9.3712,2.5722,1.5803,0.0066,0.0043,0.0010,1.0000,0.2344,0.0643,0.0389
13389244,Left,2,-0.1825,0.0499,0.7677,0.6122,-0.0056,0.0030,-0.0053,0.0043,0.0902,-0.1428,-3.2195,-1.4424,9.0038,-0.0001,0.0000,-0.0001,1.0000,-0.0805,-0.0360,0.2251
13389245,Right,2,-0.0857,0.2073,0.5138,0.8281,-0.0066,0.0204,-0.0004,-0.0563,0.0386,-0.0223,-4.2121,0.7657,8.8050,-0.0001,0.0003,-0.0000,1.0000,-0.1052,0.0192,0.2201
13389245,Pelvis,2,-0.5219,0.3633,-0.5138,-0.5759,0.4966,0.3020,0.0647,-0.3815,0.0603,-0.1069,9.2046,2.5732,1.7339,0.0062,0.0038,0.0008,1.0000,0.2302,0.0642,0.0429
13389245,Left,2,-0.1828,0.0498,0.7677,0.6122,-0.0072,0.0150,-0.0002,0.0059,0.0894,-0.1028,-3.2353,-1.4540,9.0393,-0.0001,0.0002,-0.0000,1.0000,-0.0808,-0.0363,0.2260
13389246,Right,2,-0.0860,0.2074,0.5137,0.8280,-0.0104,0.0232,-0.0033,-0.0633,0.0470,-0.0006,-4.2218,0.7740,8.8238,-0.0001,0.0003,-0.0000,1.0000,-0.1055,0.0194,0.2206
13389246,Left,2,-0.1830,0.0498,0.7677,0.6121,-0.0074,0.0174,0.0028,-0.0153,0.0771,-0.1055,-3.2446,-1.4345,9.0361,-0.0001,0.0002,0.0000,1.0000,-0.0811,-0.0358,0.2259
13389247,Right,2,-0.0862,0.2075,0.5137,0.8280,-0.0105,0.0160,-0.0039,-0.0403,0.0340,0.0020,-4.2287,0.7441,8.8258,-0.0001,0.0002,-0.0000,1.0000,-0.1057,0.0186,0.2207
13389247,Pelvis,2,-0.5241,0.3547,-0.5216,-0.5723,0.4164,0.2636,0.0439,-0.5051,-0.1353,-0.1279,9.1030,2.7164,1.9561,0.0104,0.0066,0.0011,0.9999,0.4556,0.1353,0.0962
13389247,Left,2,-0.1834,0.0497,0.7677,0.6120,-0.0058,0.0237,0.0023,-0.0121,0.0470,-0.0651,-3.2906,-1.4401,9.0618,-0.0001,0.0003,0.0000,1.0000,-0.0822,-0.0360,0.2266
13389248,Right,2,-0.0864,0.2074,0.5136,0.8281,-0.0097,0.0061,-0.0018,-0.0545,0.0281,0.0185,-4.2483,0.7515,8.8342,-0.0001,0.0001,-0.0000,1.0000,-0.1062,0.0188,0.2209
13389248,Pelvis,2,-0.5248,0.3518,-0.5241,-0.5710,0.2791,0.1716,0.0272,-0.6973,-0.2691,-0.2010,8.9503,2.9134,2.0846,0.0035,0.0021,0.0003,1.0000,0.2238,0.0727,0.0519
13389248,Left,2,-0.1836,0.0498,0.7677,0.6120,-0.0013,0.0200,0.0040,-0.0140,0.0358,-0.0650,-3.3047,-1.4387,9.0569,-0.0000,0.0003,0.0001,1.0000,-0.0826,-0.0360,0.2264
13389249,Right,2,-0.0865,0.2073,0.5136,0.8281,-0.0070,-0.0018,-0.0010,-0.0515,0.0349,0.0127,-4.2392,0.7484,8.8323,-0.0001,-0.0000,-0.0000,1.0000,-0.1060,0.0187,0.2208
13389249,Pelvis,2,-0.5253,0.3501,-0.5256,-0.5704,0.1650,0.1063,0.0092,-0.6800,-0.3211,-0.1519,8.9825,2.9211,2.1626,0.0021,0.0013,0.0001,1.0000,0.2246,0.0729,0.0539
13389249,Left,2,-0.1838,0.0497,0.7677,0.6119,-0.0004,0.0159,0.0019,-0.0081,0.0349,-0.0539,-3.3137,-1.4484,9.0640,-0.0000,0.0002,0.0000,1.0000,-0.0828,-0.0362,0.2266
13389250,Right,2,-0.0865,0.2071,0.5136,0.8281,-0.0036,-0.0121,0.0003,-0.0361,0.0213,0.0092,-4.2410,0.7259,8.8294,-0.0000,-0.0002,0.0000,1.0000,-0.1061,0.0182,0.2207
13389250,Pelvis,2,-0.5253,0.3494,-0.5260,-0.5703,0.0419,0.0450,-0.0068,-0.5832,-0.2471,-0.1226,9.0432,2.8320,2.1215,0.0005,0.0006,-0.0001,1.0000,0.2261,0.0708,0.0529
13389250,Left,2,-0.1839,0.0497,0.7676,0.6119,0.0039,0.0079,-0.0015,-0.0013,0.0144,-0.0427,-3.3394,-1.4539,9.0657,0.0000,0.0001,-0.0000,1.0000,-0.0835,-0.0364,0.2267
13389251,Right,2,-0.0863,0.2069,0.5137,0.8282,0.0039,-0.0231,0.0061,-0.0252,0.0148,0.0105,-4.2383,0.7127,8.8332,0.0000,-0.0003,0.0001,1.0000,-0.1060,0.0178,0.2208
13389251,Pelvis,2,-0.5248,0.3497,-0.5256,-0.5711,-0.0739,0.0111,-0.0234,-0.5352,-0.0918,-0.2013,9.0115,2.7541,1.9703,-0.0009,0.0001,-0.0003,1.0000,0.2253,0.0688,0.0492
13389251,Left,2,-0.1839,0.0496,0.7676,0.6120,0.0118,-0.0017,-0.0012,0.0068,0.0232,-0.0510,-3.3297,-1.4636,9.0588,0.0001,-0.0000,-0.0000,1.0000,-0.0832,-0.0366,0.2265
13389252,Right,2,-0.0860,0.2066,0.5138,0.8282,0.0079,-0.0327,0.0117,-0.0385,0.0215,0.0091,-4.2307,0.7285,8.8341,0.0001,-0.0004,0.0001,1.0000,-0.1059,0.0182,0.2208
13389252,Pelvis,2,-0.5242,0.3508,-0.5242,-0.5721,-0.1547,-0.0525,-0.0408,-0.4606,0.0057,-0.2227,9.0277,2.6689,1.8862,-0.0019,-0.0007,-0.0005,1.0000,0.2257,0.0667,0.0472
13389252,Left,2,-0.1837,0.0496,0.7676,0.6120,0.0166,-0.0073,-0.0020,-0.0052,0.0211,-0.0524,-3.3269,-1.4509,9.0604,0.0002,-0.0001,-0.0000,1.0000,-0.0832,-0.0363,0.2265
13389253,Right,2,-0.0856,0.2062,0.5139,0.8283,0.0104,-0.0419,0.0167,-0.0508,0.0408,-0.0100,-4.2026,0.7493,8.8246,0.0001,-0.0005,0.0002,1.0000,-0.1052,0.0187,0.2206
13389253,Pelvis,2,-0.5237,0.3525,-0.5222,-0.5734,-0.2031,-0.1061,-0.0552,-0.3084,0.1050,-0.1139,9.1857,2.5399,1.8287,-0.0025,-0.0013,-0.0007,1.0000,0.2296,0.0635,0.0459
13389253,Left,2,-0.1835,0.0495,0.7676,0.6121,0.0158,-0.0116,-0.0067,-0.0056,0.0586,-0.0818,-3.2790,-1.4549,9.0458,0.0002,-0.0001,-0.0001,1.0000,-0.0820,-0.0364,0.2261
13389254,Right,2,-0.0854,0.2059,0.5140,0.8283,0.0079,-0.0266,0.0115,-0.0595,0.1244,-0.1013,-4.0904,0.7913,8.7734,0.0001,-0.0003,0.0001,1.0000,-0.1023,0.0197,0.2193
13389254,Pelvis,2,-0.5233,0.3547,-0.5198,-0.5747,-0.2246,-0.1498,-0.0642,-0.1275,0.2707,-0.0977,9.2783,2.3577,1.6810,-0.0028,-0.0019,-0.0008,1.0000,0.2319,0.0589,0.0423
13389254,Left,2,-0.1835,0.0496,0.7676,0.6121,0.0191,0.0061,0.0018,-0.0134,0.1345,-0.1418,-3.1854,-1.4560,9.0154,0.0002,0.0001,0.0000,1.0000,-0.0796,-0.0365,0.2254
13389255,Right,2,-0.0852,0.2058,0.5141,0.8283,0.0103,-0.0097,0.0070,-0.0587,0.0657,-0.0518,-4.1548,0.7691,8.7994,0.0001,-0.0001,0.0001,1.0000,-0.1039,0.0192,0.2200
13389255,Pelvis,2,-0.5229,0.3570,-0.5172,-0.5758,-0.2299,-0.1626,-0.0580,0.0494,0.3365,0.0525,9.4758,2.2206,1.6479,-0.0029,-0.0020,-0.0007,1.0000,0.2369,0.0555,0.0415
13389255,Left,2,-0.1836,0.0498,0.7676,0.6121,0.0180,0.0175,0.0058,-0.0075,0.0556,-0.1011,-3.2750,-1.4465,9.0278,0.0002,0.0002,0.0001,1.0000,-0.0818,-0.0362,0.2257
13389256,Right,2,-0.0851,0.2058,0.5141,0.8283,0.0107,-0.0031,0.0037,-0.0497,0.0879,-0.0355,-4.1382,0.7742,8.8249,0.0001,-0.0000,0.0000,1.0000,-0.1035,0.0193,0.2206
13389256,Left,2,-0.1837,0.0500,0.7676,0.6120,0.0186,0.0200,0.0073,-0.0060,0.0546,-0.0610,-3.2934,-1.4517,9.0634,0.0002,0.0002,0.0001,1.0000,-0.0823,-0.0364,0.2266
13389257,Right,2,-0.0852,0.2059,0.5140,0.8284,0.0037,0.0069,-0.0039,-0.0662,0.1006,-0.0489,-4.1286,0.7942,8.8131,0.0000,0.0001,-0.0000,1.0000,-0.1032,0.0198,0.2203
13389257,Pelvis,2,-0.5215,0.3606,-0.5135,-0.5782,-0.2080,-0.0978,-0.0377,0.0426,0.3320,0.2995,9.7121,2.2881,1.6758,-0.0052,-0.0024,-0.0009,1.0000,0.4855,0.1144,0.0844
13389257,Left,2,-0.1838,0.0502,0.7676,0.6119,0.0171,0.0246,0.0104,-0.0149,0.0721,-0.0916,-3.2696,-1.4409,9.0410,0.0002,0.0003,0.0001,1.0000,-0.0817,-0.0361,0.2260
13389258,Right,2,-0.0853,0.2060,0.5139,0.8284,-0.0004,0.0146,-0.0051,-0.0427,0.0600,-0.0443,-4.1567,0.7539,8.8080,-0.0000,0.0002,-0.0001,1.0000,-0.1039,0.0189,0.2202
13389258,Pelvis,2,-0.5205,0.3620,-0.5121,-0.5795,-0.1925,-0.0488,-0.0257,-0.0324,0.2401,0.1528,9.5384,2.3333,1.7158,-0.0024,-0.0006,-0.0003,1.0000,0.2385,0.0584,0.0429
13389258,Left,2,-0.1840,0.0505,0.7676,0.6119,0.0149,0.0301,0.0104,-0.0199,0.0413,-0.0623,-3.3127,-1.4310,9.0581,0.0002,0.0004,0.0001,1.0000,-0.0827,-0.0358,0.2265
13389259,Right,2,-0.0854,0.2061,0.5138,0.8284,0.0006,0.0132,-0.0025,-0.0461,0.0486,-0.0097,-4.1849,0.7527,8.8331,0.0000,0.0002,-0.0000,1.0000,-0.1046,0.0188,0.2208
13389259,Pelvis,2,-0.5197,0.3634,-0.5107,-0.5806,-0.1839,-0.0553,-0.0246,0.0507,0.2385,-0.1286,9.2884,2.1856,1.6703,-0.0023,-0.0007,-0.0003,1.0000,0.2322,0.0547,0.0418
13389259,Left,2,-0.1842,0.0506,0.7676,0.6118,0.0130,0.0241,0.0069,-0.0315,0.0295,-0.0637,-3.3265,-1.4156,9.0540,0.0002,0.0003,0.0001,1.0000,-0.0831,-0.0354,0.2264
13389260,Right,2,-0.0854,0.2061,0.5138,0.8284,0.0044,0.0022,0.0018,-0.0401,0.0091,0.0163,-4.2272,0.7306,8.8435,0.0001,0.0000,0.0000,1.0000,-0.1057,0.0182,0.2211
13389260,Pelvis,2,-0.5189,0.3650,-0.5091,-0.5817,-0.1891,-0.0762,-0.0334,0.0180,0.1734,-0.2720,9.1318,2.1872,1.6973,-0.0024,-0.0010,-0.0004,1.0000,0.2283,0.0547,0.0425
13389260,Left,2,-0.1843,0.0508,0.7676,0.6118,0.0129,0.0159,0.0040,0.0018,0.0301,-0.0386,-3.3444,-1.4507,9.0688,0.0002,0.0002,0.0001,1.0000,-0.0836,-0.0363,0.2267
13389261,Right,2,-0.0853,0.2060,0.5138,0.8284,0.0070,-0.0120,0.0078,-0.0551,0.0069,-0.0130,-4.2208,0.7414,8.8132,0.0001,-0.0001,0.0001,1.0000,-0.1056,0.0185,0.2203
13389261,Pelvis,2,-0.5181,0.3668,-0.5070,-0.5831,-0.2275,-0.1057,-0.0510,-0.1252,0.0564,-0.2070,9.1394,2.3488,1.8004,-0.0028,-0.0013,-0.0006,1.0000,0.2285,0.0587,0.0451
13389261,Left,2,-0.1843,0.0508,0.7676,0.6118,0.0170,0.0054,0.0038,-0.0122,0.0378,-0.0305,-3.3391,-1.4393,9.0814,0.0002,0.0001,0.0000,1.0000,-0.0835,-0.0360,0.2270
13389262,Right,2,-0.0851,0.2058,0.5139,0.8284,0.0085,-0.0159,0.0096,-0.0499,0.0626,-0.0106,-4.1706,0.7640,8.8379,0.0001,-0.0002,0.0001,1.0000,-0.1043,0.0191,0.2209
13389262,Pelvis,2,-0.5171,0.3693,-0.5042,-0.5848,-0.2951,-0.1348,-0.0652,-0.2321,-0.0415,-0.0101,9.2852,2.5048,1.9121,-0.0037,-0.0017,-0.0008,1.0000,0.2321,0.0626,0.0480
13389262,Left,2,-0.1842,0.0509,0.7676,0.6118,0.0196,0.0028,0.0011,-0.0123,0.0460,-0.0499,-3.3249,-1.4367,9.0662,0.0002,0.0000,0.0000,1.0000,-0.0831,-0.0360,0.2266
13389263,Right,2,-0.0849,0.2057,0.5140,0.8284,0.0098,-0.0138,0.0084,-0.0488,0.0742,-0.0453,-4.1421,0.7678,8.8127,0.0001,-0.0002,0.0001,1.0000,-0.1036,0.0192,0.2203
13389263,Pelvis,2,-0.5158,0.3722,-0.5009,-0.5869,-0.3616,-0.1587,-0.0742,-0.1977,-0.0463,0.0854,9.3854,2.4946,1.9247,-0.0045,-0.0020,-0.0009,1.0000,0.2346,0.0624,0.0483
13389263,Left,2,-0.1840,0.0510,0.7676,0.6118,0.0244,-0.0019,0.0025,0.0041,0.0553,-0.0471,-3.3195,-1.4526,9.0687,0.0003,-0.0000,0.0000,1.0000,-0.0830,-0.0364,0.2267
13389264,Right,2,-0.0848,0.2056,0.5140,0.8285,0.0096,-0.0091,0.0068,-0.0401,0.0562,-0.0093,-4.1657,0.7563,8.8423,0.0001,-0.0001,0.0001,1.0000,-0.1042,0.0189,0.2210
13389264,Pelvis,2,-0.5144,0.3758,-0.4971,-0.5892,-0.4147,-0.1987,-0.0838,-0.1005,0.0269,-0.0473,9.2987,2.3674,1.8175,-0.0052,-0.0025,-0.0010,1.0000,0.2324,0.0592,0.0457
13389264,Left,2,-0.1838,0.0511,0.7676,0.6119,0.0279,-0.0034,-0.0007,-0.0093,0.0239,-0.0290,-3.3506,-1.4315,9.0800,0.0003,-0.0000,-0.0000,1.0000,-0.0838,-0.0359,0.2270
13389265,Right,2,-0.0846,0.2056,0.5140,0.8285,0.0133,-0.0069,0.0086,-0.0475,0.0545,-0.0323,-4.1578,0.7628,8.8200,0.0002,-0.0001,0.0001,1.0000,-0.1040,0.0190,0.2205
13389265,Pelvis,2,-0.5129,0.3798,-0.4927,-0.5916,-0.4594,-0.2338,-0.0890,-0.0181,0.1249,-0.1695,9.2246,2.2574,1.6791,-0.0057,-0.0029,-0.0011,1.0000,0.2306,0.0564,0.0423
13389265,Left,2,-0.1834,0.0511,0.7676,0.6120,0.0318,-0.0222,-0.0027,-0.0144,-0.0070,0.0002,-3.3842,-1.4194,9.1009,0.0004,-0.0003,-0.0000,1.0000,-0.0847,-0.0356,0.2275
13389266,Right,2,-0.0844,0.2056,0.5141,0.8284,0.0142,-0.0050,0.0096,-0.0605,0.0473,-0.0327,-4.1666,0.7739,8.8144,0.0002,-0.0001,0.0001,1.0000,-0.1042,0.0193,0.2204
13389266,Pelvis,2,-0.5113,0.3841,-0.4881,-0.5939,-0.4777,-0.2646,-0.0822,0.0323,0.2042,-0.2091,9.2187,2.1992,1.5653,-0.0060,-0.0033,-0.0010,1.0000,0.2304,0.0550,0.0396
13389266,Left,2,-0.1829,0.0510,0.7676,0.6121,0.0361,-0.0299,-0.0044,-0.0025,0.0989,-0.1358,-3.2351,-1.4322,9.0075,0.0005,-0.0004,-0.0001,1.0000,-0.0810,-0.0359,0.2251
13389267,Right,2,-0.0842,0.2056,0.5141,0.8284,0.0179,-0.0052,0.0120,-0.0426,0.0689,-0.0271,-4.1427,0.7719,8.8321,0.0002,-0.0001,0.0002,1.0000,-0.1036,0.0192,0.2208
13389267,Pelvis,2,-0.5100,0.3887,-0.4835,-0.5958,-0.4622,-0.2949,-0.0695,0.1320,0.2667,-0.1674,9.2995,2.1118,1.4763,-0.0058,-0.0037,-0.0009,1.0000,0.2324,0.0528,0.0375
13389267,Left,2,-0.1827,0.0512,0.7677,0.6121,0.0376,-0.0021,0.0058,0.0040,0.1369,-0.1442,-3.1938,-1.4408,9.0123,0.0005,-0.0000,0.0001,1.0000,-0.0798,-0.0361,0.2253
13389268,Right,2,-0.0840,0.2057,0.5142,0.8284,0.0171,-0.0063,0.0113,-0.0477,0.0486,-0.0203,-4.1623,0.7717,8.8303,0.0002,-0.0001,0.0001,1.0000,-0.1041,0.0192,0.2208
13389268,Pelvis,2,-0.5090,0.3932,-0.4790,-0.5974,-0.4228,-0.3108,-0.0577,0.2843,0.3156,-0.0573,9.4563,1.9889,1.4039,-0.0053,-0.0039,-0.0007,1.0000,0.2363,0.0497,0.0358
13389268,Left,2,-0.1826,0.0515,0.7677,0.6121,0.0343,0.0126,0.0106,-0.0264,0.0654,-0.1288,-3.2598,-1.3903,9.0124,0.0004,0.0002,0.0001,1.0000,-0.0815,-0.0349,0.2253
13389269,Right,2,-0.0838,0.2057,0.5142,0.8284,0.0153,-0.0026,0.0076,-0.0648,0.0888,-0.0356,-4.1279,0.8076,8.8267,0.0002,-0.0000,0.0001,1.0000,-0.1032,0.0201,0.2207
13389269,Pelvis,2,-0.5082,0.3972,-0.4751,-0.5986,-0.3615,-0.2794,-0.0412,0.4848,0.3697,0.1618,9.7295,1.8446,1.3402,-0.0045,-0.0035,-0.0005,1.0000,0.2431,0.0461,0.0341
13389269,Left,2,-0.1825,0.0518,0.7677,0.6121,0.0314,0.0148,0.0070,-0.0282,0.0448,-0.0596,-3.3046,-1.3880,9.0707,0.0004,0.0002,0.0001,1.0000,-0.0826,-0.0348,0.2268
13389270,Right,2,-0.0837,0.2058,0.5142,0.8284,0.0115,0.0040,0.0041,-0.0624,0.0690,-0.0227,-4.1483,0.7999,8.8320,0.0001,0.0000,0.0001,1.0000,-0.1037,0.0200,0.2208
13389270,Pelvis,2,-0.5075,0.4001,-0.4723,-0.5994,-0.2699,-0.2007,-0.0227,0.6192,0.3762,0.3221,9.9219,1.7490,1.3172,-0.0034,-0.0025,-0.0003,1.0000,0.2480,0.0438,0.0334
13389270,Left,2,-0.1824,0.0520,0.7677,0.6120,0.0262,0.0105,0.0056,-0.0181,0.0438,-0.0775,-3.3034,-1.3905,9.0516,0.0003,0.0001,0.0001,1.0000,-0.0826,-0.0348,0.2263
13389271,Right,2,-0.0837,0.2058,0.5142,0.8284,0.0052,0.0068,0.0028,-0.0723,0.0696,-0.0121,-4.1569,0.8109,8.8388,0.0001,0.0001,0.0000,1.0000,-0.1039,0.0203,0.2210
13389271,Pelvis,2,-0.5070,0.4021,-0.4706,-0.5999,-0.1621,-0.1291,-0.0031,0.6636,0.3140,0.2870,9.8935,1.6916,1.3413,-0.0020,-0.0016,-0.0000,1.0000,0.2473,0.0423,0.0338
13389271,Left,2,-0.1824,0.0522,0.7677,0.6120,0.0233,0.0085,0.0054,-0.0330,0.0416,-0.0596,-3.3101,-1.3749,9.0708,0.0003,0.0001,0.0001,1.0000,-0.0827,-0.0344,0.2268
13389272,Right,2,-0.0838,0.2059,0.5141,0.8284,0.0010,0.0082,0.0013,-0.0810,0.0690,-0.0183,-4.1592,0.8178,8.8303,0.0000,0.0001,0.0000,1.0000,-0.1040,0.0204,0.2208
13389272,Pelvis,2,-0.5069,0.4030,-0.4699,-0.5998,-0.0571,-0.0713,0.0140,0.5562,0.3009,0.1609,9.7489,1.7617,1.3143,-0.0007,-0.0009,0.0002,1.0000,0.2437,0.0441,0.0330
13389273,Right,2,-0.0839,0.2059,0.5141,0.8284,-0.0033,0.0082,-0.0002,-0.0600,0.0608,-0.0444,-4.1481,0.7922,8.8087,-0.0000,0.0001,-0.0000,1.0000,-0.1037,0.0198,0.2202
13389273,Pelvis,2,-0.5073,0.4032,-0.4702,-0.5992,0.0440,-0.0311,0.0318,0.4866,0.2685,0.0243,9.5991,1.7912,1.3127,0.0006,-0.0004,0.0004,1.0000,0.2399,0.0449,0.0329
13389273,Left,2,-0.1823,0.0522,0.7678,0.6120,0.0156,0.0032,0.0026,-0.0258,0.0406,-0.0581,-3.3137,-1.3778,9.0705,0.0004,0.0001,0.0001,1.0000,-0.1656,-0.0691,0.4535
13389274,Right,2,-0.0841,0.2059,0.5141,0.8284,-0.0054,0.0132,-0.0011,-0.0624,0.0619,-0.0275,-4.1572,0.7941,8.8229,-0.0001,0.0002,-0.0000,1.0000,-0.1039,0.0199,0.2206
13389274,Pelvis,2,-0.5081,0.4028,-0.4711,-0.5981,0.1300,-0.0087,0.0431,0.3779,0.2275,-0.0729,9.4766,1.8672,1.3295,0.0016,-0.0001,0.0005,1.0000,0.2369,0.0468,0.0333
13389274,Left,2,-0.1823,0.0522,0.7678,0.6120,0.0089,0.0014,0.0012,-0.0089,0.0483,-0.0746,-3.3030,-1.3941,9.0543,0.0001,0.0000,0.0000,1.0000,-0.0826,-0.0349,0.2264
13389275,Right,2,-0.0842,0.2060,0.5141,0.8284,-0.0045,0.0088,0.0010,-0.0525,0.0427,-0.0084,-4.1793,0.7758,8.8352,-0.0001,0.0001,0.0000,1.0000,-0.1045,0.0194,0.2209
13389275,Pelvis,2,-0.5092,0.4020,-0.4724,-0.5966,0.1912,-0.0057,0.0536,0.2268,0.2085,-0.0718,9.4422,2.0078,1.3395,0.0024,-0.0001,0.0007,1.0000,0.2360,0.0503,0.0336
13389275,Left,2,-0.1823,0.0521,0.7678,0.6121,0.0056,-0.0050,-0.0018,-0.0108,0.0369,-0.0745,-3.3117,-1.3906,9.0516,0.0001,-0.0001,-0.0000,1.0000,-0.0828,-0.0348,0.2263
13389276,Right,2,-0.0843,0.2059,0.5141,0.8284,-0.0037,0.0054,0.0026,-0.0507,0.0505,0.0026,-4.1780,0.7768,8.8480,-0.0000,0.0001,0.0000,1.0000,-0.1044,0.0194,0.2212
13389276,Pelvis,2,-0.5105,0.4012,-0.4738,-0.5949,0.2135,-0.0015,0.0582,-0.0028,0.1751,-0.0354,9.4221,2.2324,1.3663,0.0027,-0.0000,0.0007,1.0000,0.2355,0.0559,0.0343
13389276,Left,2,-0.1822,0.0519,0.7678,0.6121,0.0055,-0.0029,-0.0016,-0.0057,0.0749,-0.0733,-3.2761,-1.4065,9.0637,0.0001,-0.0000,-0.0000,1.0000,-0.0819,-0.0352,0.2266
13389277,Right,2,-0.0844,0.2059,0.5141,0.8284,-0.0058,0.0009,0.0030,-0.0515,0.0367,0.0036,-4.1903,0.7696,8.8438,-0.0001,0.0000,0.0000,1.0000,-0.1048,0.0193,0.2211
13389277,Pelvis,2,-0.5118,0.4003,-0.4752,-0.5932,0.2080,-0.0058,0.0544,-0.0839,0.1063,0.0361,9.4648,2.3200,1.4322,0.0026,-0.0001,0.0007,1.0000,0.2366,0.0581,0.0360
13389277,Left,2,-0.1822,0.0518,0.7678,0.6121,0.0068,-0.0029,-0.0025,-0.0085,0.0538,-0.0635,-3.2966,-1.4016,9.0674,0.0001,-0.0000,-0.0000,1.0000,-0.0824,-0.0351,0.2267
13389278,Right,2,-0.0845,0.2058,0.5141,0.8284,-0.0041,0.0022,0.0001,-0.0503,0.0482,-0.0310,-4.1655,0.7693,8.8172,-0.0001,0.0000,0.0000,1.0000,-0.1041,0.0192,0.2204
13389278,Pelvis,2,-0.5130,0.3995,-0.4765,-0.5918,0.1860,0.0011,0.0451,-0.1931,0.1170,0.0777,9.4846,2.4315,1.4146,0.0023,0.0000,0.0006,1.0000,0.2371,0.0608,0.0355
13389278,Left,2,-0.1822,0.0517,0.7678,0.6121,0.0059,-0.0035,-0.0014,-0.0027,0.0527,-0.0524,-3.3007,-1.4098,9.0766,0.0001,-0.0000,-0.0000,1.0000,-0.0825,-0.0353,0.2269
13389279,Right,2,-0.0845,0.2058,0.5141,0.8284,-0.0030,-0.0009,0.0036,-0.0413,0.0703,-0.0148,-4.1505,0.7710,8.8422,-0.0000,-0.0000,0.0000,1.0000,-0.1038,0.0193,0.2211
13389279,Pelvis,2,-0.5139,0.3989,-0.4774,-0.5907,0.1469,-0.0005,0.0343,-0.2633,0.0866,0.0813,9.4698,2.4968,1.4340,0.0018,-0.0000,0.0004,1.0000,0.2367,0.0625,0.0360
13389279,Left,2,-0.1821,0.0516,0.7677,0.6122,0.0083,-0.0045,-0.0043,0.0075,0.0517,-0.0702,-3.2953,-1.4181,9.0581,0.0001,-0.0001,-0.0001,1.0000,-0.0824,-0.0355,0.2264
13389280,Right,2,-0.0846,0.2057,0.5141,0.8284,-0.0030,0.0037,0.0033,-0.0408,0.0554,-0.0306,-4.1556,0.7613,8.8230,-0.0000,0.0000,0.0000,1.0000,-0.1039,0.0190,0.2206
13389280,Pelvis,2,-0.5145,0.3985,-0.4781,-0.5899,0.1014,-0.0035,0.0241,-0.2866,0.0822,0.0595,9.4448,2.5123,1.4263,0.0013,-0.0000,0.0003,1.0000,0.2361,0.0628,0.0357
13389280,Left,2,-0.1820,0.0515,0.7677,0.6122,0.0108,-0.0038,-0.0017,-0.0051,0.0593,-0.0717,-3.2834,-1.4085,9.0623,0.0001,-0.0000,-0.0000,1.0000,-0.0821,-0.0352,0.2265
13389281,Right,2,-0.0846,0.2058,0.5141,0.8284,0.0003,0.0071,0.0019,-0.0478,0.0637,-0.0090,-4.1615,0.7718,8.8434,0.0000,0.0001,0.0000,1.0000,-0.1040,0.0193,0.2211
13389281,Left,2,-0.1820,0.0515,0.7677,0.6122,0.0120,-0.0013,-0.0007,0.0046,0.0680,-0.0896,-3.2693,-1.4175,9.0469,0.0001,-0.0000,-0.0000,1.0000,-0.0817,-0.0355,0.2262
13389282,Right,2,-0.0846,0.2057,0.5141,0.8284,0.0038,-0.0011,0.0035,-0.0409,0.0367,-0.0008,-4.1845,0.7537,8.8429,0.0000,-0.0000,0.0000,1.0000,-0.1046,0.0188,0.2211
13389282,Pelvis,2,-0.5149,0.3982,-0.4784,-0.5894,0.0326,-0.0024,0.0079,-0.2300,0.1291,0.0200,9.4279,2.4474,1.3691,0.0008,-0.0001,0.0002,1.0000,0.4714,0.1224,0.0686
13389282,Left,2,-0.1819,0.0515,0.7677,0.6123,0.0137,0.0011,0.0009,-0.0108,0.0462,-0.0620,-3.2949,-1.4012,9.0697,0.0002,0.0000,0.0000,1.0000,-0.0824,-0.0351,0.2267
13389283,Right,2,-0.0845,0.2057,0.5141,0.8284,0.0046,-0.0036,0.0040,-0.0407,0.0355,-0.0177,-4.1771,0.7521,8.8279,0.0001,-0.0000,0.0000,1.0000,-0.1044,0.0188,0.2207
13389283,Pelvis,2,-0.5148,0.3984,-0.4783,-0.5896,-0.0224,-0.0026,-0.0019,-0.1551,0.1358,0.0477,9.4729,2.3804,1.3665,-0.0003,-0.0000,-0.0000,1.0000,0.2368,0.0595,0.0342
13389283,Left,2,-0.1819,0.0515,0.7677,0.6123,0.0148,0.0001,-0.0011,0.0081,0.0360,-0.0686,-3.3046,-1.4153,9.0567,0.0002,0.0000,-0.0000,1.0000,-0.0826,-0.0354,0.2264
13389284,Right,2,-0.0845,0.2056,0.5141,0.8284,0.0054,-0.0036,0.0053,-0.0531,0.0685,-0.0378,-4.1450,0.7773,8.8187,0.0001,-0.0000,0.0001,1.0000,-0.1036,0.0194,0.2205
13389284,Pelvis,2,-0.5145,0.3986,-0.4779,-0.5899,-0.0454,-0.0028,-0.0074,-0.0923,0.1488,0.0300,9.4718,2.3157,1.3538,-0.0006,-0.0000,-0.0001,1.0000,0.2368,0.0579,0.0338
13389284,Left,2,-0.1818,0.0515,0.7677,0.6123,0.0153,-0.0001,0.0007,-0.0143,0.0723,-0.0814,-3.2616,-1.4002,9.0612,0.0002,-0.0000,0.0000,1.0000,-0.0815,-0.0350,0.2265
13389285,Right,2,-0.0844,0.2056,0.5141,0.8284,0.0053,0.0013,0.0042,-0.0770,0.0805,-0.0574,-4.1353,0.8033,8.7995,0.0001,0.0000,0.0001,1.0000,-0.1034,0.0201,0.2200
13389285,Pelvis,2,-0.5141,0.3989,-0.4775,-0.5903,-0.0570,-0.0040,-0.0079,-0.0475,0.1350,0.0154,9.4653,2.2689,1.3683,-0.0007,-0.0000,-0.0001,1.0000,0.2366,0.0567,0.0342
13389285,Left,2,-0.1817,0.0515,0.7677,0.6123,0.0141,0.0018,-0.0020,-0.0185,0.0511,-0.0620,-3.2861,-1.3931,9.0741,0.0002,0.0000,-0.0000,1.0000,-0.0821,-0.0349,0.2268
13389286,Right,2,-0.0844,0.2057,0.5141,0.8284,0.0059,0.0059,0.0025,-0.0476,0.0552,-0.0306,-4.1563,0.7682,8.8221,0.0001,0.0001,0.0000,1.0000,-0.1039,0.0192,0.2206
13389286,Pelvis,2,-0.5138,0.3993,-0.4771,-0.5907,-0.0585,-0.0096,-0.0108,-0.0240,0.1407,0.0154,9.4711,2.2466,1.3648,-0.0007,-0.0001,-0.0001,1.0000,0.2368,0.0562,0.0341
13389286,Left,2,-0.1817,0.0515,0.7677,0.6124,0.0159,0.0073,0.0010,-0.0242,0.0687,-0.1118,-3.2518,-1.3842,9.0345,0.0002,0.0001,0.0000,1.0000,-0.0813,-0.0347,0.2259
13389287,Right,2,-0.0844,0.2058,0.5141,0.8284,0.0051,0.0063,0.0017,-0.0433,0.0305,0.0111,-4.1935,0.7565,8.8517,0.0001,0.0001,0.0000,1.0000,-0.1048,0.0189,0.2213
13389287,Pelvis,2,-0.5134,0.3996,-0.4766,-0.5912,-0.0669,-0.0026,-0.0136,0.0094,0.1397,0.0454,9.5069,2.2219,1.3731,-0.0008,-0.0000,-0.0002,1.0000,0.2377,0.0555,0.0343
13389287,Left,2,-0.1818,0.0516,0.7677,0.6123,0.0119,0.0116,0.0043,-0.0116,0.0387,-0.0701,-3.2972,-1.3942,9.0611,0.0001,0.0001,0.0001,1.0000,-0.0824,-0.0349,0.2265
13389288,Right,2,-0.0844,0.2058,0.5141,0.8284,0.0052,0.0008,0.0031,-0.0463,0.0354,-0.0177,-4.1787,0.7598,8.8265,0.0001,0.0000,0.0000,1.0000,-0.1045,0.0190,0.2207
13389288,Pelvis,2,-0.5129,0.3999,-0.4762,-0.5918,-0.0689,0.0033,-0.0129,-0.0018,0.1200,0.0225,9.4784,2.2284,1.3928,-0.0009,0.0000,-0.0002,1.0000,0.2370,0.0557,0.0348
13389288,Left,2,-0.1818,0.0517,0.7677,0.6123,0.0145,0.0064,0.0009,-0.0079,0.0473,-0.0494,-3.2981,-1.4023,9.0819,0.0002,0.0001,0.0000,1.0000,-0.0824,-0.0351,0.2270
13389289,Right,2,-0.0843,0.2057,0.5141,0.8284,0.0054,-0.0031,0.0050,-0.0522,0.0563,-0.0138,-4.1647,0.7755,8.8361,0.0001,-0.0000,0.0001,1.0000,-0.1041,0.0194,0.2209
13389289,Pelvis,2,-0.5124,0.4003,-0.4757,-0.5924,-0.0747,0.0006,-0.0121,-0.0371,0.0813,0.0032,9.4451,2.2583,1.4322,-0.0009,0.0000,-0.0002,1.0000,0.2361,0.0565,0.0357
13389289,Left,2,-0.1818,0.0517,0.7677,0.6123,0.0144,0.0041,0.0017,0.0090,0.0467,-0.0463,-3.3029,-1.4181,9.0809,0.0002,0.0001,0.0000,1.0000,-0.0826,-0.0355,0.2270
13389290,Right,2,-0.0843,0.2057,0.5141,0.8284,0.0053,-0.0023,0.0039,-0.0666,0.0941,-0.0628,-4.1173,0.8026,8.8021,0.0001,-0.0000,0.0000,1.0000,-0.1029,0.0200,0.2201
13389290,Pelvis,2,-0.5119,0.4008,-0.4751,-0.5930,-0.0833,-0.0047,-0.0143,-0.0309,0.0738,0.0027,9.4441,2.2524,1.4437,-0.0010,-0.0001,-0.0002,1.0000,0.2361,0.0563,0.0360
13389290,Left,2,-0.1817,0.0517,0.7677,0.6124,0.0149,0.0006,-0.0006,-0.0102,0.0538,-0.0687,-3.2847,-1.3975,9.0668,0.0002,0.0000,-0.0000,1.0000,-0.0821,-0.0350,0.2267
13389291,Right,2,-0.0843,0.2058,0.5140,0.8284,0.0058,0.0101,0.0011,-0.0446,0.0682,-0.0422,-4.1391,0.7733,8.8169,0.0001,0.0001,0.0000,1.0000,-0.1034,0.0193,0.2204
13389291,Pelvis,2,-0.5113,0.4013,-0.4744,-0.5937,-0.0935,-0.0074,-0.0156,-0.0343,0.1056,0.0397,9.4830,2.2655,1.4217,-0.0012,-0.0001,-0.0002,1.0000,0.2371,0.0566,0.0355
13389291,Left,2,-0.1816,0.0517,0.7677,0.6124,0.0161,0.0035,0.0021,-0.0117,0.0620,-0.0784,-3.2730,-1.3959,9.0609,0.0002,0.0000,0.0000,1.0000,-0.0818,-0.0349,0.2265
13389292,Right,2,-0.0842,0.2058,0.5140,0.8284,0.0089,0.0036,0.0047,-0.0508,0.0352,-0.0177,-4.1799,0.7664,8.8253,0.0001,0.0000,0.0001,1.0000,-0.1045,0.0191,0.2206
13389292,Pelvis,2,-0.5105,0.4018,-0.4738,-0.5946,-0.1109,0.0102,-0.0188,-0.0201,0.1494,0.0990,9.5489,2.2671,1.3939,-0.0014,0.0001,-0.0002,1.0000,0.2387,0.0567,0.0347
13389292,Left,2,-0.1816,0.0518,0.7677,0.6124,0.0172,0.0055,0.0025,-0.0125,0.0604,-0.0880,-3.2710,-1.3920,9.0519,0.0002,0.0001,0.0000,1.0000,-0.0818,-0.0349,0.2263
13389293,Right,2,-0.0841,0.2058,0.5141,0.8284,0.0089,-0.0014,0.0058,-0.0503,0.0440,0.0101,-4.1841,0.7736,8.8537,0.0001,-0.0000,0.0001,1.0000,-0.1046,0.0193,0.2213
13389293,Pelvis,2,-0.5095,0.4021,-0.4731,-0.5957,-0.1232,0.0277,-0.0247,-0.0104,0.1612,0.0383,9.4926,2.2457,1.3840,-0.0015,0.0003,-0.0003,1.0000,0.2373,0.0561,0.0344
13389293,Left,2,-0.1816,0.0518,0.7677,0.6124,0.0119,0.0038,0.0019,0.0025,0.0403,-0.0656,-3.3000,-1.4039,9.0635,0.0001,0.0000,0.0000,1.0000,-0.0825,-0.0351,0.2266
13389294,Right,2,-0.0841,0.2058,0.5141,0.8284,0.0043,-0.0047,0.0073,-0.0501,0.0428,-0.0067,-4.1765,0.7728,8.8387,0.0001,-0.0001,0.0001,1.0000,-0.1044,0.0193,0.2210
13389294,Pelvis,2,-0.5086,0.4025,-0.4724,-0.5968,-0.1256,0.0216,-0.0284,0.0050,0.1169,-0.0434,9.4083,2.2130,1.4278,-0.0016,0.0003,-0.0004,1.0000,0.2352,0.0553,0.0355
13389294,Left,2,-0.1816,0.0518,0.7677,0.6124,0.0141,0.0052,0.0021,-0.0096,0.0380,-0.0671,-3.2993,-1.3912,9.0640,0.0002,0.0001,0.0000,1.0000,-0.0825,-0.0348,0.2266
13389295,Right,2,-0.0839,0.2057,0.5142,0.8284,0.0078,-0.0074,0.0089,-0.0708,0.0488,-0.0143,-4.1744,0.7945,8.8294,0.0001,-0.0001,0.0001,1.0000,-0.1044,0.0198,0.2207
13389295,Pelvis,2,-0.5078,0.4030,-0.4716,-0.5977,-0.1177,0.0047,-0.0258,0.1050,0.0956,-0.0462,9.4233,2.1166,1.4581,-0.0015,0.0001,-0.0003,1.0000,0.2356,0.0529,0.0364
13389295,Left,2,-0.1815,0.0518,0.7677,0.6124,0.0160,-0.0022,0.0000,-0.0050,0.0564,-0.0560,-3.2863,-1.4008,9.0793,0.0002,-0.0000,0.0000,1.0000,-0.0822,-0.0351,0.2270
13389296,Right,2,-0.0838,0.2056,0.5142,0.8284,0.0064,-0.0136,0.0087,-0.0504,0.0378,0.0221,-4.1881,0.7756,8.8649,0.0001,-0.0002,0.0001,1.0000,-0.1047,0.0194,0.2216
13389296,Pelvis,2,-0.5073,0.4035,-0.4709,-0.5984,-0.0892,-0.0075,-0.0203,0.1951,0.1310,-0.0805,9.4154,2.0245,1.4225,-0.0011,-0.0001,-0.0003,1.0000,0.2354,0.0506,0.0355
13389296,Left,2,-0.1814,0.0518,0.7677,0.6124,0.0167,-0.0014,0.0017,-0.0149,0.0445,-0.0671,-3.2902,-1.3857,9.0682,0.0002,-0.0000,0.0000,1.0000,-0.0823,-0.0347,0.2267
13389297,Right,2,-0.0837,0.2054,0.5143,0.8284,-0.0004,-0.0143,0.0099,-0.0451,0.0696,-0.0192,-4.1386,0.7831,8.8418,-0.0000,-0.0002,0.0001,1.0000,-0.1035,0.0196,0.2210
13389297,Pelvis,2,-0.5071,0.4039,-0.4704,-0.5987,-0.0507,-0.0231,-0.0114,0.1767,0.1409,-0.0752,9.4173,2.0457,1.4138,-0.0006,-0.0003,-0.0001,1.0000,0.2354,0.0511,0.0354
13389297,Left,2,-0.1813,0.0518,0.7677,0.6125,0.0158,-0.0032,-0.0010,-0.0182,0.0330,-0.0575,-3.3019,-1.3801,9.0752,0.0002,-0.0000,-0.0000,1.0000,-0.0826,-0.0345,0.2269
13389298,Right,2,-0.0836,0.2052,0.5144,0.8284,-0.0013,-0.0145,0.0081,-0.0580,0.0624,-0.0197,-4.1455,0.7910,8.8374,-0.0000,-0.0002,0.0001,1.0000,-0.1037,0.0198,0.2209
13389298,Pelvis,2,-0.5071,0.4043,-0.4701,-0.5987,-0.0182,-0.0303,0.0015,0.1769,0.1748,-0.0294,9.4672,2.0575,1.3831,-0.0002,-0.0004,0.0000,1.0000,0.2367,0.0515,0.0347
13389298,Left,2,-0.1811,0.0517,0.7677,0.6126,0.0161,-0.0108,-0.0056,-0.0146,0.0415,-0.0367,-3.2990,-1.3879,9.0974,0.0002,-0.0001,-0.0001,1.0000,-0.0825,-0.0347,0.2274
13389299,Right,2,-0.0836,0.2050,0.5144,0.8284,-0.0021,-0.0087,0.0060,-0.0644,0.0869,-0.0615,-4.1069,0.8043,8.8082,-0.0000,-0.0001,0.0001,1.0000,-0.1027,0.0201,0.2202
13389299,Pelvis,2,-0.5073,0.4045,-0.4700,-0.5984,0.0097,-0.0350,0.0084,0.1744,0.2199,0.0039,9.5068,2.0685,1.3365,0.0001,-0.0004,0.0001,1.0000,0.2377,0.0517,0.0335
13389299,Left,2,-0.1809,0.0515,0.7677,0.6126,0.0112,-0.0153,-0.0052,-0.0251,0.0394,-0.0478,-3.2910,-1.3758,9.0902,0.0001,-0.0002,-0.0001,1.0000,-0.0823,-0.0344,0.2272
13389300,Right,2,-0.0836,0.2050,0.5145,0.8284,-0.0023,-0.0001,0.0038,-0.0621,0.0671,-0.0485,-4.1262,0.7932,8.8143,-0.0000,-0.0000,0.0000,1.0000,-0.1032,0.0198,0.2204
13389300,Pelvis,2,-0.5077,0.4046,-0.4700,-0.5980,0.0349,-0.0297,0.0160,0.1560,0.2297,0.0092,9.5107,2.0863,1.3190,0.0004,-0.0004,0.0002,1.0000,0.2377,0.0522,0.0331
13389300,Left,2,-0.1807,0.0513,0.7676,0.6127,0.0105,-0.0214,-0.0084,-0.0168,0.0481,-0.0560,-3.2762,-1.3854,9.0853,0.0001,-0.0003,-0.0001,1.0000,-0.0820,-0.0347,0.2271
13389301,Right,2,-0.0837,0.2049,0.5145,0.8285,-0.0011,-0.0002,0.0023,-0.0402,0.0412,-0.0279,-4.1471,0.7624,8.8298,-0.0000,-0.0000,0.0000,1.0000,-0.1037,0.0191,0.2207
13389301,Pelvis,2,-0.5081,0.4046,-0.4703,-0.5974,0.0568,-0.0236,0.0168,0.0945,0.2302,0.0233,9.5119,2.1471,1.3124,0.0007,-0.0003,0.0002,1.0000,0.2378,0.0537,0.0329
13389301,Left,2,-0.1805,0.0512,0.7676,0.6128,0.0115,-0.0087,-0.0021,-0.0070,0.1252,-0.1622,-3.1661,-1.3992,9.0092,0.0001,-0.0001,-0.0000,1.0000,-0.0792,-0.0350,0.2252
13389303,Right,2,-0.0837,0.2048,0.5145,0.8285,-0.0013,-0.0020,0.0036,-0.0520,0.0584,-0.0243,-4.1381,0.7802,8.8367,-0.0000,-0.0000,0.0001,1.0000,-0.2069,0.0390,0.4418
13389303,Pelvis,2,-0.5090,0.4042,-0.4711,-0.5964,0.0650,-0.0065,0.0188,0.0191,0.2128,0.0475,9.5172,2.2223,1.3243,0.0016,-0.0002,0.0005,1.0000,0.4758,0.1112,0.0665
13389303,Left,2,-0.1807,0.0512,0.7676,0.6128,0.0077,0.0089,0.0017,0.0053,0.0511,-0.0714,-3.2674,-1.4054,9.0688,0.0002,0.0002,0.0000,1.0000,-0.1633,-0.0704,0.4535
13389304,Right,2,-0.0837,0.2047,0.5145,0.8285,-0.0011,0.0003,0.0020,-0.0555,0.0475,-0.0293,-4.1447,0.7762,8.8282,-0.0000,0.0000,0.0000,1.0000,-0.1036,0.0194,0.2207
13389304,Pelvis,2,-0.5094,0.4038,-0.4715,-0.5959,0.0692,0.0055,0.0134,0.0215,0.1977,0.0181,9.4885,2.2107,1.3283,0.0009,0.0001,0.0002,1.0000,0.2372,0.0553,0.0332
13389304,Left,2,-0.1807,0.0512,0.7676,0.6127,0.0077,0.0041,0.0018,-0.0077,0.0522,-0.0529,-3.2707,-1.3984,9.0886,0.0001,0.0001,0.0000,1.0000,-0.0818,-0.0350,0.2272
13389305,Right,2,-0.0837,0.2047,0.5145,0.8285,0.0005,-0.0014,0.0041,-0.0462,0.0557,-0.0121,-4.1411,0.7722,8.8494,0.0000,-0.0000,0.0001,1.0000,-0.1035,0.0193,0.2212
13389305,Pelvis,2,-0.5098,0.4034,-0.4720,-0.5954,0.0749,0.0075,0.0111,0.0326,0.1705,-0.0012,9.4688,2.1943,1.3499,0.0009,0.0001,0.0001,1.0000,0.2367,0.0549,0.0338
13389305,Left,2,-0.1807,0.0511,0.7676,0.6128,0.0084,0.0016,-0.0006,-0.0079,0.0409,-0.0625,-3.2773,-1.3948,9.0764,0.0001,0.0000,-0.0000,1.0000,-0.0819,-0.0349,0.2269
13389306,Right,2,-0.0837,0.2046,0.5146,0.8285,-0.0008,-0.0049,0.0053,-0.0516,0.0490,-0.0063,-4.1498,0.7738,8.8516,-0.0000,-0.0001,0.0001,1.0000,-0.1038,0.0193,0.2213
13389306,Pelvis,2,-0.5103,0.4029,-0.4725,-0.5949,0.0820,0.0094,0.0092,0.0338,0.1839,-0.0048,9.4678,2.1934,1.3339,0.0010,0.0001,0.0001,1.0000,0.2367,0.0548,0.0334
13389306,Left,2,-0.1807,0.0510,0.7676,0.6128,0.0095,0.0005,-0.0014,-0.0099,0.0587,-0.0722,-3.2563,-1.3967,9.0734,0.0001,0.0000,-0.0000,1.0000,-0.0814,-0.0349,0.2268
13389307,Right,2,-0.0837,0.2045,0.5146,0.8285,-0.0016,-0.0065,0.0048,-0.0530,0.0627,-0.0073,-4.1368,0.7806,8.8561,-0.0000,-0.0001,0.0001,1.0000,-0.1034,0.0195,0.2214
13389307,Left,2,-0.1807,0.0510,0.7676,0.6128,0.0095,0.0031,-0.0007,-0.0027,0.0576,-0.0706,-3.2584,-1.4042,9.0731,0.0001,0.0000,-0.0000,1.0000,-0.0815,-0.0351,0.2268
13389308,Right,2,-0.0836,0.2043,0.5146,0.8285,-0.0023,-0.0081,0.0043,-0.0559,0.0675,-0.0361,-4.1196,0.7824,8.8321,-0.0000,-0.0001,0.0001,1.0000,-0.1030,0.0196,0.2208
13389308,Left,2,-0.1806,0.0510,0.7676,0.6128,0.0106,0.0008,0.0004,-0.0039,0.0365,-0.0706,-3.2771,-1.3983,9.0673,0.0001,0.0000,0.0000,1.0000,-0.0819,-0.0350,0.2267
13389309,Right,2,-0.0836,0.2042,0.5147,0.8285,-0.0030,-0.0053,0.0044,-0.0479,0.0531,-0.0457,-4.1222,0.7669,8.8214,-0.0000,-0.0001,0.0001,1.0000,-0.1031,0.0192,0.2205
13389309,Pelvis,2,-0.5118,0.4017,-0.4738,-0.5935,0.0724,0.0033,0.0070,-0.0724,0.1997,0.0022,9.4531,2.3005,1.3129,0.0027,0.0001,0.0003,1.0000,0.7089,0.1725,0.0988
13389309,Left,2,-0.1806,0.0509,0.7676,0.6129,0.0133,-0.0014,-0.0017,-0.0155,0.0538,-0.0818,-3.2539,-1.3898,9.0650,0.0002,-0.0000,-0.0000,1.0000,-0.0814,-0.0348,0.2266
13389310,Right,2,-0.0837,0.2042,0.5146,0.8285,0.0003,0.0019,0.0024,-0.0538,0.0739,-0.0419,-4.1081,0.7811,8.8312,0.0000,0.0000,0.0000,1.0000,-0.1027,0.0195,0.2208
13389310,Pelvis,2,-0.5120,0.4015,-0.4740,-0.5933,0.0429,0.0032,0.0016,-0.0534,0.2604,0.0449,9.5079,2.2958,1.2539,0.0005,0.0000,0.0000,1.0000,0.2377,0.0574,0.0314
13389310,Left,2,-0.1806,0.0509,0.7676,0.6129,0.0113,0.0034,0.0007,-0.0200,0.0617,-0.0722,-3.2481,-1.3887,9.0776,0.0001,0.0000,0.0000,1.0000,-0.0812,-0.0348,0.2269
13389311,Right,2,-0.0837,0.2042,0.5146,0.8285,0.0025,0.0015,0.0031,-0.0514,0.0540,-0.0289,-4.1288,0.7705,8.8367,0.0000,0.0000,0.0000,1.0000,-0.1032,0.0193,0.2209
13389311,Pelvis,2,-0.5123,0.4012,-0.4742,-0.5930,0.0430,0.0044,0.0020,-0.0635,0.2188,-0.0055,9.4507,2.2943,1.2856,0.0005,0.0001,0.0000,1.0000,0.2363,0.0573,0.0322
13389311,Left,2,-0.1806,0.0509,0.7676,0.6129,0.0108,0.0066,0.0013,0.0006,0.0516,-0.0883,-3.2558,-1.4038,9.0551,0.0001,0.0001,0.0000,1.0000,-0.0814,-0.0351,0.2264
13389312,Right,2,-0.0836,0.2041,0.5147,0.8285,0.0018,-0.0015,0.0039,-0.0450,0.0544,-0.0227,-4.1280,0.7654,8.8444,0.0000,-0.0000,0.0000,1.0000,-0.1032,0.0191,0.2211
13389312,Pelvis,2,-0.5126,0.4010,-0.4744,-0.5928,0.0400,-0.0027,0.0046,-0.0892,0.1746,-0.0165,9.4276,2.3167,1.3252,0.0005,-0.0000,0.0001,1.0000,0.2357,0.0579,0.0332
13389312,Left,2,-0.1806,0.0509,0.7676,0.6129,0.0113,0.0060,0.0015,0.0042,0.0601,-0.0675,-3.2560,-1.4123,9.0761,0.0001,0.0001,0.0000,1.0000,-0.0814,-0.0353,0.2269
13389313,Right,2,-0.0836,0.2041,0.5147,0.8285,0.0005,-0.0025,0.0046,-0.0616,0.0807,-0.0371,-4.1057,0.7909,8.8368,0.0000,-0.0000,0.0001,1.0000,-0.1027,0.0198,0.2209
13389313,Pelvis,2,-0.5128,0.4009,-0.4745,-0.5926,0.0263,-0.0031,0.0019,-0.1030,0.1487,0.0171,9.4531,2.3378,1.3531,0.0003,-0.0000,0.0000,1.0000,0.2363,0.0584,0.0339
13389313,Left,2,-0.1806,0.0510,0.7676,0.6129,0.0118,0.0055,0.0005,0.0028,0.0682,-0.0771,-3.2452,-1.4116,9.0699,0.0001,0.0001,0.0000,1.0000,-0.0811,-0.0353,0.2267
13389314,Right,2,-0.0836,0.2040,0.5147,0.8285,0.0010,-0.0025,0.0032,-0.0649,0.0554,-0.0015,-4.1417,0.7845,8.8598,0.0000,-0.0000,0.0000,1.0000,-0.1036,0.0196,0.2215
13389314,Pelvis,2,-0.5128,0.4007,-0.4746,-0.5926,0.0114,0.0136,-0.0049,-0.1016,0.1449,0.0825,9.5154,2.3526,1.3672,0.0001,0.0002,-0.0001,1.0000,0.2379,0.0588,0.0341
13389314,Left,2,-0.1806,0.0510,0.7676,0.6129,0.0099,0.0077,0.0010,-0.0194,0.0751,-0.0802,-3.2341,-1.3917,9.0736,0.0001,0.0001,0.0000,1.0000,-0.0808,-0.0348,0.2268
13389315,Right,2,-0.0836,0.2039,0.5147,0.8286,0.0011,-0.0036,0.0037,-0.0515,0.0601,-0.0347,-4.1173,0.7720,8.8355,0.0000,-0.0000,0.0000,1.0000,-0.1029,0.0193,0.2209
13389315,Pelvis,2,-0.5126,0.4004,-0.4746,-0.5930,-0.0068,0.0328,-0.0132,-0.0715,0.1914,0.1023,9.5470,2.3315,1.3301,-0.0001,0.0004,-0.0002,1.0000,0.2387,0.0583,0.0331
13389315,Left,2,-0.1807,0.0510,0.7676,0.6129,0.0111,0.0154,0.0035,-0.0016,0.0844,-0.0867,-3.2282,-1.4103,9.0660,0.0001,0.0002,0.0000,1.0000,-0.0807,-0.0353,0.2267
13389316,Right,2,-0.0835,0.2039,0.5147,0.8286,0.0040,-0.0014,0.0043,-0.0451,0.0606,-0.0285,-4.1160,0.7671,8.8435,0.0000,-0.0000,0.0001,1.0000,-0.1029,0.0192,0.2211
13389316,Pelvis,2,-0.5122,0.4001,-0.4746,-0.5935,-0.0296,0.0461,-0.0207,-0.0829,0.2229,0.0563,9.5025,2.3367,1.3023,-0.0004,0.0006,-0.0003,1.0000,0.2376,0.0584,0.0324
13389316,Left,2,-0.1808,0.0511,0.7676,0.6128,0.0095,0.0092,0.0030,-0.0144,0.0429,-0.0690,-3.2718,-1.3905,9.0721,0.0001,0.0001,0.0000,1.0000,-0.0818,-0.0348,0.2268
13389317,Right,2,-0.0835,0.2039,0.5147,0.8286,0.0074,-0.0019,0.0048,-0.0264,0.0406,-0.0198,-4.1277,0.7428,8.8494,0.0001,-0.0000,0.0001,1.0000,-0.1032,0.0185,0.2212
13389317,Pelvis,2,-0.5118,0.4000,-0.4744,-0.5941,-0.0464,0.0315,-0.0227,-0.0805,0.1467,-0.0665,9.3707,2.3086,1.3700,-0.0006,0.0004,-0.0003,1.0000,0.2343,0.0577,0.0341
13389317,Left,2,-0.1808,0.0511,0.7675,0.6128,0.0133,0.0090,0.0014,0.0019,0.0521,-0.0659,-3.2684,-1.4087,9.0739,0.0002,0.0001,0.0000,1.0000,-0.0817,-0.0353,0.2269
13389318,Right,2,-0.0833,0.2039,0.5147,0.8286,0.0109,-0.0018,0.0050,-0.0620,0.0454,-0.0400,-4.1280,0.7767,8.8242,0.0001,-0.0000,0.0001,1.0000,-0.1032,0.0194,0.2206
13389318,Pelvis,2,-0.5114,0.4002,-0.4739,-0.5947,-0.0620,0.0083,-0.0230,-0.0037,0.1196,-0.0693,9.3793,2.2364,1.4049,-0.0008,0.0001,-0.0003,1.0000,0.2345,0.0559,0.0351
13389318,Left,2,-0.1808,0.0512,0.7676,0.6128,0.0136,0.0083,0.0038,0.0005,0.0603,-0.0755,-3.2583,-1.4074,9.0675,0.0002,0.0001,0.0000,1.0000,-0.0814,-0.0352,0.2267
13389319,Right,2,-0.0832,0.2039,0.5147,0.8286,0.0087,-0.0041,0.0044,-0.0615,0.0542,-0.0121,-4.1312,0.7841,8.8530,0.0001,-0.0001,0.0001,1.0000,-0.1033,0.0196,0.2213
13389319,Pelvis,2,-0.5109,0.4006,-0.4732,-0.5954,-0.0830,-0.0037,-0.0254,-0.0024,0.1157,-0.0040,9.4404,2.2534,1.4236,-0.0010,-0.0000,-0.0003,1.0000,0.2360,0.0563,0.0355
13389319,Left,2,-0.1808,0.0513,0.7675,0.6128,0.0154,0.0104,0.0026,0.0062,0.0590,-0.0643,-3.2654,-1.4133,9.0761,0.0002,0.0001,0.0000,1.0000,-0.0816,-0.0354,0.2269
13389320,Right,2,-0.0831,0.2038,0.5147,0.8286,0.0094,-0.0056,0.0043,-0.0462,0.0541,-0.0165,-4.1219,0.7717,8.8535,0.0001,-0.0001,0.0001,1.0000,-0.1031,0.0193,0.2213
13389320,Pelvis,2,-0.5104,0.4011,-0.4724,-0.5962,-0.0997,-0.0165,-0.0292,-0.0212,0.1269,-0.0205,9.4206,2.2717,1.4127,-0.0012,-0.0002,-0.0004,1.0000,0.2355,0.0568,0.0353
13389320,Left,2,-0.1808,0.0514,0.7675,0.6128,0.0188,0.0095,0.0038,-0.0144,0.0660,-0.0770,-3.2520,-1.3920,9.0705,0.0002,0.0001,0.0000,1.0000,-0.0813,-0.0349,0.2268
13389321,Right,2,-0.0830,0.2038,0.5148,0.8286,0.0118,-0.0049,0.0071,-0.0430,0.0605,-0.0223,-4.1111,0.7734,8.8520,0.0001,-0.0001,0.0001,1.0000,-0.1028,0.0193,0.2213
13389321,Pelvis,2,-0.5099,0.4019,-0.4713,-0.5969,-0.1166,-0.0376,-0.0300,0.0266,0.1675,-0.0713,9.3883,2.2184,1.3645,-0.0015,-0.0005,-0.0004,1.0000,0.2347,0.0554,0.0341
13389321,Left,2,-0.1808,0.0515,0.7676,0.6128,0.0187,0.0094,0.0050,-0.0097,0.0549,-0.0562,-3.2713,-1.3948,9.0855,0.0002,0.0001,0.0001,1.0000,-0.0818,-0.0349,0.2271
13389322,Right,2,-0.0829,0.2038,0.5148,0.8286,0.0041,0.0017,0.0048,-0.0450,0.0917,-0.0698,-4.0652,0.7874,8.8197,0.0001,0.0000,0.0001,1.0000,-0.1016,0.0197,0.2205
13389322,Pelvis,2,-0.5094,0.4028,-0.4702,-0.5977,-0.1255,-0.0459,-0.0293,0.1009,0.1840,-0.0190,9.4581,2.1619,1.3533,-0.0016,-0.0006,-0.0004,1.0000,0.2365,0.0540,0.0339
13389322,Left,2,-0.1808,0.0516,0.7676,0.6128,0.0193,0.0093,0.0056,-0.0069,0.0731,-0.0947,-3.2431,-1.3944,9.0545,0.0002,0.0001,0.0001,1.0000,-0.0810,-0.0349,0.2264
13389323,Right,2,-0.0829,0.2039,0.5147,0.8286,0.0087,0.0088,0.0028,-0.0427,0.0717,-0.0569,-4.0867,0.7781,8.8248,0.0001,0.0001,0.0000,1.0000,-0.1021,0.0194,0.2206
13389323,Pelvis,2,-0.5088,0.4037,-0.4691,-0.5984,-0.1259,-0.0411,-0.0195,0.1225,0.2321,0.0579,9.5443,2.1625,1.3143,-0.0016,-0.0005,-0.0002,1.0000,0.2386,0.0541,0.0329
13389323,Left,2,-0.1808,0.0518,0.7676,0.6127,0.0220,0.0128,0.0056,-0.0107,0.0419,-0.0755,-3.2792,-1.3834,9.0636,0.0003,0.0002,0.0001,1.0000,-0.0819,-0.0347,0.2266
13389324,Right,2,-0.0829,0.2040,0.5147,0.8286,0.0079,0.0116,0.0015,-0.0595,0.0541,-0.0059,-4.1309,0.7898,8.8595,0.0001,0.0001,0.0000,1.0000,-0.1032,0.0197,0.2215
13389324,Pelvis,2,-0.5081,0.4046,-0.4682,-0.5991,-0.1209,-0.0307,-0.0061,0.1492,0.2253,0.0921,9.5828,2.1434,1.3242,-0.0015,-0.0004,-0.0001,1.0000,0.2396,0.0536,0.0331
13389324,Left,2,-0.1808,0.0519,0.7676,0.6127,0.0190,0.0108,0.0065,-0.0046,0.0603,-0.0738,-3.2657,-1.3915,9.0691,0.0002,0.0001,0.0001,1.0000,-0.0816,-0.0348,0.2267
13389325,Right,2,-0.0829,0.2041,0.5147,0.8286,0.0090,0.0079,0.0052,-0.0474,0.0600,-0.0223,-4.1160,0.7819,8.8490,0.0001,0.0001,0.0001,1.0000,-0.1029,0.0195,0.2212
13389325,Pelvis,2,-0.5075,0.4054,-0.4675,-0.5997,-0.1030,-0.0261,0.0000,0.1890,0.1634,0.0046,9.4995,2.0790,1.3705,-0.0013,-0.0003,0.0000,1.0000,0.2375,0.0520,0.0343
13389325,Left,2,-0.1807,0.0520,0.7676,0.6127,0.0204,0.0083,0.0037,0.0016,0.0493,-0.0626,-3.2820,-1.3942,9.0747,0.0003,0.0001,0.0000,1.0000,-0.0820,-0.0349,0.2269
13389326,Right,2,-0.0828,0.2042,0.5147,0.8286,0.0073,0.0047,0.0029,-0.0496,0.0472,-0.0045,-4.1357,0.7806,8.8596,0.0001,0.0001,0.0000,1.0000,-0.1034,0.0195,0.2215
13389326,Pelvis,2,-0.5070,0.4062,-0.4668,-0.6000,-0.0832,-0.0349,0.0027,0.1918,0.1197,-0.0506,9.4417,2.0584,1.4027,-0.0010,-0.0004,0.0000,1.0000,0.2360,0.0515,0.0351
13389326,Left,2,-0.1807,0.0521,0.7676,0.6127,0.0190,0.0056,0.0050,0.0003,0.0574,-0.0722,-3.2715,-1.3914,9.0687,0.0002,0.0001,0.0001,1.0000,-0.0818,-0.0348,0.2267
13389327,Right,2,-0.0828,0.2042,0.5147,0.8286,0.0053,0.0019,0.0039,-0.0582,0.0465,-0.0108,-4.1370,0.7883,8.8514,0.0001,0.0000,0.0000,1.0000,-0.1034,0.0197,0.2213
13389327,Pelvis,2,-0.5068,0.4069,-0.4663,-0.6001,-0.0554,-0.0408,0.0071,0.1480,0.0985,-0.0599,9.4208,2.0945,1.4174,-0.0007,-0.0005,0.0001,1.0000,0.2355,0.0524,0.0355
13389327,Left,2,-0.1806,0.0522,0.7676,0.6127,0.0201,0.0046,0.0030,-0.0127,0.0453,-0.0642,-3.2832,-1.3750,9.0755,0.0003,0.0001,0.0000,1.0000,-0.0821,-0.0344,0.2269
13389328,Right,2,-0.0828,0.2042,0.5147,0.8286,0.0041,0.0011,0.0051,-0.0549,0.0530,-0.0165,-4.1278,0.7886,8.8493,0.0001,0.0000,0.0001,1.0000,-0.1032,0.0197,0.2212
13389328,Pelvis,2,-0.5067,0.4075,-0.4660,-0.6001,-0.0373,-0.0395,0.0195,0.0439,0.1238,0.0089,9.4684,2.2084,1.3977,-0.0005,-0.0005,0.0002,1.0000,0.2367,0.0553,0.0350
13389328,Left,2,-0.1805,0.0522,0.7676,0.6127,0.0172,-0.0025,0.0013,-0.0049,0.0344,-0.0626,-3.2944,-1.3784,9.0726,0.0002,-0.0000,0.0000,1.0000,-0.0824,-0.0345,0.2268
13389329,Right,2,-0.0827,0.2042,0.5147,0.8286,0.0062,0.0007,0.0057,-0.0355,0.0732,-0.0276,-4.0986,0.7806,8.8514,0.0001,0.0000,0.0001,1.0000,-0.1025,0.0195,0.2213
13389329,Pelvis,2,-0.5063,0.4082,-0.4657,-0.6001,-0.0503,-0.0294,0.0230,-0.0069,0.1660,0.0736,9.5272,2.2686,1.3612,-0.0006,-0.0004,0.0003,1.0000,0.2382,0.0568,0.0341
13389329,Left,2,-0.1804,0.0522,0.7676,0.6128,0.0159,-0.0055,-0.0001,0.0018,0.0430,-0.0610,-3.2862,-1.3860,9.0762,0.0002,-0.0001,-0.0000,1.0000,-0.0822,-0.0347,0.2269
13389330,Right,2,-0.0827,0.2043,0.5147,0.8286,0.0045,0.0110,0.0015,-0.0596,0.0989,-0.0483,-4.0788,0.8128,8.8352,0.0001,0.0001,0.0000,1.0000,-0.1019,0.0203,0.2209
13389330,Pelvis,2,-0.5060,0.4087,-0.4654,-0.6002,-0.0463,-0.0245,0.0152,0.0960,0.1831,0.0817,9.5633,2.1654,1.3399,-0.0006,-0.0003,0.0002,1.0000,0.2391,0.0542,0.0335
13389330,Left,2,-0.1802,0.0521,0.7676,0.6128,0.0163,-0.0043,-0.0014,-0.0140,0.0501,-0.0433,-3.2804,-1.3742,9.0991,0.0002,-0.0001,-0.0000,1.0000,-0.0820,-0.0344,0.2275
13389331,Right,2,-0.0828,0.2044,0.5146,0.8286,0.0066,0.0097,0.0019,-0.0550,0.0465,-0.0045,-4.1402,0.7886,8.8568,0.0001,0.0001,0.0000,1.0000,-0.1035,0.0197,0.2214
13389331,Pelvis,2,-0.5060,0.4090,-0.4652,-0.6002,-0.0147,-0.0209,0.0088,0.1952,0.1642,0.0351,9.5402,2.0538,1.3457,-0.0002,-0.0003,0.0001,1.0000,0.2385,0.0514,0.0337
13389331,Left,2,-0.1801,0.0521,0.7676,0.6128,0.0167,-0.0045,0.0004,0.0055,0.0596,-0.0593,-3.2677,-1.3919,9.0839,0.0002,-0.0001,0.0000,1.0000,-0.0817,-0.0348,0.2271
13389332,Right,2,-0.0827,0.2045,0.5146,0.8286,0.0081,0.0069,0.0031,-0.0455,0.0409,0.0137,-4.1501,0.7799,8.8731,0.0001,0.0001,0.0000,1.0000,-0.1037,0.0195,0.2218
13389332,Left,2,-0.1800,0.0521,0.7677,0.6129,0.0166,-0.0072,0.0008,-0.0085,0.0375,-0.0417,-3.2889,-1.3744,9.0977,0.0002,-0.0001,0.0000,1.0000,-0.0822,-0.0344,0.2274
13389333,Right,2,-0.0827,0.2045,0.5146,0.8286,0.0076,0.0014,0.0059,-0.0363,0.0390,-0.0136,-4.1367,0.7701,8.8498,0.0001,0.0000,0.0001,1.0000,-0.1034,0.0192,0.2212
13389333,Pelvis,2,-0.5063,0.4091,-0.4653,-0.5998,0.0166,-0.0131,0.0076,0.0804,0.1227,-0.0267,9.4494,2.1469,1.3734,0.0004,-0.0003,0.0002,1.0000,0.4724,0.1074,0.0689
13389333,Left,2,-0.1797,0.0519,0.7677,0.6129,0.0150,-0.0151,-0.0051,-0.0023,0.0265,-0.0305,-3.3003,-1.3786,9.1049,0.0002,-0.0002,-0.0001,1.0000,-0.0826,-0.0345,0.2276
13389334,Right,2,-0.0826,0.2045,0.5147,0.8285,0.0077,0.0009,0.0061,-0.0605,0.0785,-0.0353,-4.1042,0.8095,8.8379,0.0001,0.0000,0.0001,1.0000,-0.1026,0.0202,0.2209
13389334,Pelvis,2,-0.5066,0.4092,-0.4653,-0.5995,0.0279,-0.0185,0.0097,0.0491,0.1784,-0.0272,9.4509,2.1791,1.3120,0.0003,-0.0002,0.0001,1.0000,0.2363,0.0545,0.0329
13389334,Left,2,-0.1794,0.0518,0.7677,0.6131,0.0214,-0.0215,-0.0055,0.0086,0.0452,-0.0577,-3.2702,-1.3888,9.0851,0.0003,-0.0003,-0.0001,1.0000,-0.0818,-0.0348,0.2271
13389335,Right,2,-0.0826,0.2045,0.5147,0.8285,0.0036,0.0050,0.0060,-0.0541,0.0789,-0.0290,-4.1040,0.8054,8.8452,0.0000,0.0001,0.0001,1.0000,-0.1026,0.0201,0.2211
13389335,Pelvis,2,-0.5069,0.4092,-0.4655,-0.5991,0.0443,-0.0222,0.0149,0.0977,0.2163,-0.0345,9.4619,2.1308,1.2658,0.0006,-0.0003,0.0002,1.0000,0.2365,0.0533,0.0317
13389335,Left,2,-0.1791,0.0516,0.7677,0.6132,0.0164,-0.0221,-0.0062,-0.0024,0.0527,-0.0689,-3.2511,-1.3774,9.0817,0.0002,-0.0003,-0.0001,1.0000,-0.0813,-0.0345,0.2270
13389336,Right,2,-0.0826,0.2046,0.5147,0.8285,0.0038,0.0058,0.0021,-0.0595,0.0721,-0.0233,-4.1146,0.8079,8.8464,0.0000,0.0001,0.0000,1.0000,-0.1028,0.0202,0.2212
13389336,Pelvis,2,-0.5075,0.4092,-0.4658,-0.5983,0.0693,-0.0325,0.0234,0.1120,0.2262,-0.0210,9.4814,2.1180,1.2483,0.0009,-0.0004,0.0003,1.0000,0.2370,0.0530,0.0313
13389336,Left,2,-0.1788,0.0514,0.7677,0.6133,0.0152,-0.0220,-0.0064,-0.0085,0.0607,-0.1090,-3.2227,-1.3674,9.0504,0.0002,-0.0003,-0.0001,1.0000,-0.0806,-0.0342,0.2262
13389337,Right,2,-0.0827,0.2046,0.5147,0.8285,-0.0003,0.0080,0.0022,-0.0574,0.0659,-0.0113,-4.1249,0.8039,8.8552,-0.0000,0.0001,0.0000,1.0000,-0.1031,0.0201,0.2214
13389337,Pelvis,2,-0.5082,0.4090,-0.4663,-0.5975,0.0924,-0.0171,0.0279,0.1461,0.2576,0.0766,9.5897,2.1053,1.2212,0.0012,-0.0002,0.0003,1.0000,0.2397,0.0527,0.0306
13389337,Left,2,-0.1786,0.0513,0.7676,0.6133,0.0140,-0.0141,-0.0043,-0.0044,0.0593,-0.0881,-3.2264,-1.3737,9.0705,0.0002,-0.0002,-0.0001,1.0000,-0.0807,-0.0344,0.2267
13389338,Right,2,-0.0827,0.2047,0.5146,0.8285,-0.0003,0.0091,0.0017,-0.0330,0.0513,-0.0252,-4.1228,0.7738,8.8432,-0.0000,0.0001,0.0000,1.0000,-0.1030,0.0193,0.2211
13389338,Pelvis,2,-0.5088,0.4083,-0.4673,-0.5967,0.1217,0.0163,0.0317,0.1780,0.2636,0.1595,9.6792,2.0898,1.2215,0.0015,0.0002,0.0004,1.0000,0.2420,0.0523,0.0306
13389338,Left,2,-0.1785,0.0512,0.7676,0.6134,0.0130,-0.0108,-0.0044,0.0012,0.0580,-0.0768,-3.2282,-1.3803,9.0809,0.0002,-0.0001,-0.0001,1.0000,-0.0807,-0.0345,0.2270
13389339,Right,2,-0.0828,0.2047,0.5146,0.8285,0.0005,0.0068,0.0027,-0.0389,0.0721,-0.0213,-4.1108,0.7882,8.8519,0.0000,0.0001,0.0000,1.0000,-0.1028,0.0197,0.2213
13389339,Pelvis,2,-0.5096,0.4073,-0.4687,-0.5956,0.1692,0.0424,0.0403,0.1840,0.3242,0.0668,9.6009,2.0618,1.1472,0.0021,0.0005,0.0005,1.0000,0.2400,0.0516,0.0287
13389339,Left,2,-0.1784,0.0511,0.7676,0.6134,0.0082,-0.0074,-0.0028,-0.0171,0.0553,-0.0993,-3.2164,-1.3595,9.0642,0.0001,-0.0001,-0.0000,1.0000,-0.0804,-0.0340,0.2266
13389340,Right,2,-0.0828,0.2047,0.5146,0.8285,0.0003,0.0074,0.0011,-0.0590,0.0505,-0.0272,-4.1349,0.7951,8.8336,0.0000,0.0001,0.0000,1.0000,-0.1034,0.0199,0.2209
13389340,Pelvis,2,-0.5104,0.4060,-0.4705,-0.5944,0.1961,0.0675,0.0518,0.0871,0.3020,0.0146,9.5260,2.1381,1.1655,0.0025,0.0008,0.0006,1.0000,0.2381,0.0535,0.0291
13389340,Left,2,-0.1783,0.0509,0.7676,0.6135,0.0049,-0.0056,-0.0019,0.0077,0.0552,-0.0848,-3.2232,-1.3867,9.0732,0.0001,-0.0001,-0.0000,1.0000,-0.0806,-0.0347,0.2268
13389341,Right,2,-0.0829,0.2047,0.5146,0.8285,-0.0023,0.0081,0.0024,-0.0498,0.0486,-0.0545,-4.1224,0.7831,8.8102,-0.0000,0.0001,0.0000,1.0000,-0.1030,0.0196,0.2203
13389341,Pelvis,2,-0.5111,0.4045,-0.4724,-0.5933,0.2001,0.0912,0.0524,-0.0530,0.2728,0.1115,9.5836,2.2890,1.2172,0.0025,0.0011,0.0007,1.0000,0.2396,0.0573,0.0303
13389341,Left,2,-0.1783,0.0507,0.7676,0.6135,0.0003,-0.0046,-0.0033,0.0054,0.0535,-0.0848,-3.2220,-1.3863,9.0737,0.0000,-0.0001,-0.0000,1.0000,-0.0806,-0.0347,0.2268
13389342,Right,2,-0.0830,0.2048,0.5146,0.8285,-0.0044,0.0080,0.0021,-0.0614,0.0639,-0.0281,-4.1267,0.8010,8.8360,-0.0001,0.0001,0.0000,1.0000,-0.1031,0.0200,0.2209
13389342,Pelvis,2,-0.5115,0.4028,-0.4743,-0.5925,0.1816,0.1138,0.0412,-0.1883,0.2909,0.1192,9.5626,2.4180,1.2134,0.0023,0.0014,0.0005,1.0000,0.2391,0.0605,0.0301
13389342,Left,2,-0.1784,0.0506,0.7676,0.6135,-0.0001,0.0013,-0.0030,-0.0046,0.0709,-0.1056,-3.1954,-1.3810,9.0617,-0.0000,0.0000,-0.0000,1.0000,-0.0799,-0.0345,0.2265
13389343,Right,2,-0.0831,0.2047,0.5146,0.8285,-0.0005,0.0044,0.0006,-0.0396,0.0379,-0.0074,-4.1492,0.7700,8.8509,-0.0000,0.0001,0.0000,1.0000,-0.1037,0.0193,0.2213
13389343,Pelvis,2,-0.5120,0.4012,-0.4761,-0.5918,0.1713,0.1055,0.0335,-0.1647,0.2448,-0.0196,9.4261,2.3596,1.2536,0.0021,0.0013,0.0004,1.0000,0.2357,0.0590,0.0312
13389343,Left,2,-0.1785,0.0504,0.7676,0.6135,-0.0007,0.0043,-0.0002,0.0042,0.0696,-0.0542,-3.2149,-1.3993,9.1071,-0.0000,0.0001,-0.0000,1.0000,-0.0804,-0.0350,0.2277
13389344,Right,2,-0.0831,0.2047,0.5146,0.8285,-0.0023,0.0018,0.0035,-0.0484,0.0509,-0.0146,-4.1389,0.7822,8.8467,-0.0000,0.0000,0.0000,1.0000,-0.1035,0.0196,0.2212
13389344,Pelvis,2,-0.5126,0.3998,-0.4777,-0.5910,0.1682,0.0880,0.0287,-0.1413,0.1827,-0.1112,9.3324,2.3134,1.3139,0.0021,0.0011,0.0004,1.0000,0.2333,0.0579,0.0327
13389344,Left,2,-0.1785,0.0503,0.7676,0.6135,0.0010,0.0037,-0.0010,0.0169,0.0591,-0.0815,-3.2174,-1.4078,9.0756,0.0000,0.0000,-0.0000,1.0000,-0.0804,-0.0352,0.2269
13389345,Right,2,-0.0831,0.2046,0.5146,0.8285,-0.0015,-0.0013,0.0043,-0.0574,0.0778,-0.0228,-4.1164,0.8009,8.8467,-0.0000,-0.0000,0.0001,1.0000,-0.1029,0.0200,0.2212
13389345,Pelvis,2,-0.5133,0.3985,-0.4791,-0.5901,0.1661,0.0658,0.0227,-0.1402,0.1961,-0.1148,9.3301,2.3115,1.3085,0.0021,0.0008,0.0003,1.0000,0.2333,0.0578,0.0326
13389345,Left,2,-0.1786,0.0503,0.7676,0.6135,0.0042,0.0066,0.0002,0.0145,0.0574,-0.0815,-3.2186,-1.4072,9.0753,0.0001,0.0001,0.0000,1.0000,-0.0804,-0.0352,0.2269
13389346,Right,2,-0.0832,0.2046,0.5146,0.8285,-0.0019,0.0020,0.0013,-0.0464,0.0710,-0.0214,-4.1178,0.7873,8.8488,-0.0000,0.0000,0.0000,1.0000,-0.1029,0.0197,0.2212
13389346,Pelvis,2,-0.5141,0.3974,-0.4802,-0.5892,0.1597,0.0388,0.0198,-0.1410,0.2179,-0.0872,9.3594,2.3195,1.2940,0.0020,0.0005,0.0002,1.0000,0.2340,0.0580,0.0324
13389346,Left,2,-0.1786,0.0502,0.7676,0.6135,0.0070,0.0054,-0.0009,-0.0001,0.0450,-0.0639,-3.2334,-1.3941,9.0908,0.0001,0.0001,-0.0000,1.0000,-0.0808,-0.0349,0.2273
13389347,Right,2,-0.0832,0.2045,0.5146,0.8285,-0.0033,0.0010,0.0006,-0.0591,0.0499,-0.0209,-4.1399,0.7875,8.8389,-0.0000,0.0000,0.0000,1.0000,-0.1035,0.0197,0.2210
13389347,Left,2,-0.1787,0.0502,0.7676,0.6135,0.0066,0.0038,-0.0001,0.0065,0.0536,-0.0622,-3.2271,-1.4040,9.0934,0.0001,0.0000,-0.0000,1.0000,-0.0807,-0.0351,0.2273
13389348,Right,2,-0.0833,0.2044,0.5146,0.8285,-0.0068,-0.0015,0.0009,-0.0452,0.0508,-0.0084,-4.1385,0.7747,8.8545,-0.0001,-0.0000,0.0000,1.0000,-0.1035,0.0194,0.2214
13389348,Pelvis,2,-0.5159,0.3959,-0.4820,-0.5872,0.1416,0.0051,0.0216,-0.1769,0.1816,-0.0582,9.3746,2.3608,1.3262,0.0035,0.0001,0.0005,1.0000,0.4687,0.1181,0.0667
13389348,Left,2,-0.1787,0.0501,0.7675,0.6135,0.0069,0.0027,-0.0005,0.0042,0.0518,-0.0622,-3.2278,-1.4025,9.0934,0.0001,0.0000,-0.0000,1.0000,-0.0807,-0.0351,0.2273
13389349,Right,2,-0.0833,0.2044,0.5146,0.8285,-0.0034,-0.0003,0.0006,-0.0525,0.0627,-0.0324,-4.1206,0.7829,8.8356,-0.0000,-0.0000,0.0000,1.0000,-0.1030,0.0196,0.2209
13389349,Pelvis,2,-0.5166,0.3953,-0.4825,-0.5865,0.1033,-0.0020,0.0105,-0.1252,0.1582,0.0402,9.4783,2.3332,1.3557,0.0013,-0.0000,0.0001,1.0000,0.2369,0.0583,0.0340
13389349,Left,2,-0.1788,0.0501,0.7675,0.6135,0.0073,0.0095,0.0014,0.0125,0.0903,-0.1389,-3.1682,-1.4099,9.0313,0.0001,0.0001,0.0000,1.0000,-0.0792,-0.0353,0.2258
13389350,Right,2,-0.0834,0.2043,0.5146,0.8285,-0.0033,0.0030,0.0003,-0.0461,0.0631,-0.0262,-4.1202,0.7763,8.8432,-0.0000,0.0000,0.0000,1.0000,-0.1030,0.0194,0.2211
13389350,Pelvis,2,-0.5172,0.3948,-0.4830,-0.5860,0.0880,0.0089,0.0014,-0.0838,0.2097,0.1083,9.5612,2.3103,1.3120,0.0011,0.0001,0.0000,1.0000,0.2390,0.0577,0.0328
13389350,Left,2,-0.1789,0.0502,0.7675,0.6135,0.0095,0.0213,0.0045,0.0150,0.0593,-0.0989,-3.2132,-1.4111,9.0579,0.0001,0.0003,0.0001,1.0000,-0.0803,-0.0353,0.2265
13389351,Right,2,-0.0834,0.2043,0.5146,0.8286,0.0008,0.0016,0.0005,-0.0441,0.0568,-0.0142,-4.1296,0.7714,8.8526,0.0000,0.0000,0.0000,1.0000,-0.1032,0.0193,0.2213
13389351,Pelvis,2,-0.5177,0.3942,-0.4835,-0.5855,0.0828,0.0144,0.0039,-0.0168,0.1541,0.0513,9.5122,2.2349,1.3586,0.0010,0.0002,0.0000,1.0000,0.2378,0.0558,0.0340
13389351,Left,2,-0.1791,0.0503,0.7675,0.6134,0.0032,0.0216,0.0070,-0.0007,0.0369,-0.0718,-3.2439,-1.3953,9.0783,0.0000,0.0003,0.0001,1.0000,-0.0810,-0.0349,0.2270
13389352,Right,2,-0.0835,0.2043,0.5146,0.8286,0.0002,0.0019,0.0011,-0.0555,0.0483,-0.0315,-4.1334,0.7758,8.8312,0.0000,0.0000,0.0000,1.0000,-0.1033,0.0194,0.2208
13389352,Pelvis,2,-0.5180,0.3937,-0.4840,-0.5852,0.0661,0.0243,0.0113,0.0170,0.1176,0.0573,9.5193,2.2046,1.3972,0.0008,0.0003,0.0001,1.0000,0.2380,0.0551,0.0349
13389352,Left,2,-0.1793,0.0503,0.7675,0.6134,0.0058,0.0189,0.0043,0.0054,0.0552,-0.0700,-3.2323,-1.4069,9.0827,0.0001,0.0002,0.0001,1.0000,-0.0808,-0.0352,0.2271
13389353,Right,2,-0.0835,0.2043,0.5145,0.8286,0.0008,0.0049,0.0002,-0.0568,0.0619,-0.0325,-4.1225,0.7824,8.8347,0.0000,0.0001,0.0000,1.0000,-0.1030,0.0196,0.2209
13389353,Left,2,-0.1795,0.0504,0.7675,0.6133,0.0049,0.0231,0.0064,-0.0104,0.0921,-0.1212,-3.1819,-1.3945,9.0479,0.0001,0.0003,0.0001,1.0000,-0.0795,-0.0349,0.2262
13389354,Right,2,-0.0835,0.2043,0.5145,0.8286,0.0022,0.0062,0.0001,-0.0504,0.0623,-0.0262,-4.1230,0.7768,8.8419,0.0000,0.0001,0.0000,1.0000,-0.1031,0.0194,0.2211
13389354,Pelvis,2,-0.5177,0.3920,-0.4854,-0.5854,0.0450,0.0783,0.0019,0.0427,0.1665,0.1648,9.6335,2.2047,1.3840,0.0011,0.0020,0.0000,1.0000,0.4818,0.1102,0.0684
13389354,Left,2,-0.1799,0.0506,0.7675,0.6132,0.0029,0.0379,0.0101,-0.0165,0.0704,-0.0924,-3.2165,-1.3886,9.0672,0.0000,0.0005,0.0001,1.0000,-0.0803,-0.0347,0.2267
13389355,Right,2,-0.0835,0.2043,0.5145,0.8286,0.0030,0.0059,0.0008,-0.0483,0.0561,-0.0142,-4.1332,0.7727,8.8507,0.0000,0.0001,0.0000,1.0000,-0.1033,0.0193,0.2213
13389355,Pelvis,2,-0.5175,0.3910,-0.4863,-0.5855,0.0573,0.0915,0.0010,0.0338,0.1362,-0.0294,9.4355,2.1725,1.4086,0.0007,0.0011,0.0000,1.0000,0.2359,0.0543,0.0350
13389355,Left,2,-0.1804,0.0509,0.7675,0.6130,0.0010,0.0453,0.0121,0.0181,0.0414,-0.0667,-3.2669,-1.4198,9.0718,0.0000,0.0006,0.0002,1.0000,-0.0815,-0.0355,0.2268
13389356,Right,2,-0.0836,0.2043,0.5144,0.8286,0.0009,0.0038,0.0007,-0.0612,0.0488,-0.0147,-4.1445,0.7804,8.8443,0.0000,0.0000,0.0000,1.0000,-0.1036,0.0195,0.2211
13389356,Pelvis,2,-0.5175,0.3901,-0.4871,-0.5855,0.0637,0.0801,0.0053,-0.0385,0.0967,-0.0874,9.3543,2.2319,1.4519,0.0008,0.0010,0.0001,1.0000,0.2339,0.0558,0.0361
13389356,Left,2,-0.1807,0.0510,0.7675,0.6129,0.0025,0.0337,0.0090,-0.0049,0.0281,-0.0011,-3.3054,-1.4053,9.1305,0.0000,0.0004,0.0001,1.0000,-0.0825,-0.0352,0.2283
13389357,Right,2,-0.0836,0.2044,0.5144,0.8286,0.0018,0.0040,0.0026,-0.0236,0.0502,-0.0002,-4.1351,0.7483,8.8673,0.0000,0.0001,0.0000,1.0000,-0.1034,0.0187,0.2217
13389357,Left,2,-0.1809,0.0511,0.7675,0.6128,0.0056,0.0230,0.0059,0.0176,0.0183,-0.0267,-3.3154,-1.4220,9.0968,0.0001,0.0003,0.0001,1.0000,-0.0828,-0.0356,0.2274
13389358,Right,2,-0.0836,0.2043,0.5144,0.8286,0.0001,0.0025,0.0008,-0.0458,0.0610,-0.0368,-4.1195,0.7698,8.8324,0.0000,0.0000,0.0000,1.0000,-0.1030,0.0192,0.2208
13389358,Pelvis,2,-0.5172,0.3887,-0.4884,-0.5856,0.0396,0.0688,0.0028,-0.0486,0.1069,0.0009,9.4348,2.2632,1.4771,0.0010,0.0017,0.0001,1.0000,0.4719,0.1131,0.0732
13389358,Left,2,-0.1810,0.0511,0.7675,0.6128,0.0082,0.0109,0.0025,0.0066,0.0258,-0.0379,-3.3054,-1.4125,9.0899,0.0001,0.0001,0.0000,1.0000,-0.0826,-0.0353,0.2273
13389359,Right,2,-0.0836,0.2044,0.5144,0.8286,0.0060,0.0076,0.0030,-0.0437,0.0547,-0.0247,-4.1294,0.7661,8.8414,0.0001,0.0001,0.0000,1.0000,-0.1032,0.0191,0.2210
13389359,Pelvis,2,-0.5169,0.3880,-0.4889,-0.5859,0.0236,0.0745,-0.0043,-0.0242,0.1961,0.0452,9.4940,2.2508,1.4197,0.0003,0.0009,-0.0001,1.0000,0.2374,0.0562,0.0353
13389359,Left,2,-0.1811,0.0511,0.7675,0.6128,0.0082,0.0109,0.0025,0.0187,0.0546,-0.0745,-3.2700,-1.4265,9.0613,0.0001,0.0001,0.0000,1.0000,-0.0817,-0.0357,0.2265
13389360,Right,2,-0.0836,0.2045,0.5144,0.8286,0.0066,0.0078,0.0021,-0.0566,0.0474,-0.0253,-4.1412,0.7749,8.8345,0.0001,0.0001,0.0000,1.0000,-0.1035,0.0194,0.2209
13389360,Pelvis,2,-0.5167,0.3873,-0.4894,-0.5862,0.0207,0.0701,-0.0072,-0.0613,0.1979,-0.0372,9.4040,2.2709,1.4183,0.0003,0.0009,-0.0001,1.0000,0.2351,0.0567,0.0353
13389360,Left,2,-0.1812,0.0512,0.7675,0.6128,0.0105,0.0179,0.0057,0.0103,0.1017,-0.1143,-3.2137,-1.4245,9.0395,0.0001,0.0002,0.0001,1.0000,-0.0803,-0.0356,0.2260
13389361,Right,2,-0.0836,0.2045,0.5144,0.8286,0.0074,0.0056,0.0032,-0.0428,0.0483,-0.0127,-4.1413,0.7649,8.8492,0.0001,0.0001,0.0000,1.0000,-0.1035,0.0191,0.2212
13389361,Pelvis,2,-0.5164,0.3869,-0.4896,-0.5865,0.0025,0.0470,-0.0110,-0.0607,0.1627,-0.0611,9.3723,2.2683,1.4621,0.0000,0.0006,-0.0001,1.0000,0.2343,0.0567,0.0364
13389361,Left,2,-0.1814,0.0514,0.7675,0.6127,0.0087,0.0237,0.0080,0.0113,0.0409,-0.0553,-3.2937,-1.4190,9.0745,0.0001,0.0003,0.0001,1.0000,-0.0823,-0.0355,0.2269
13389362,Right,2,-0.0835,0.2046,0.5144,0.8286,0.0059,0.0021,0.0030,-0.0557,0.0410,-0.0133,-4.1523,0.7738,8.8427,0.0001,0.0000,0.0000,1.0000,-0.1038,0.0193,0.2211
13389362,Pelvis,2,-0.5162,0.3866,-0.4896,-0.5868,-0.0126,0.0326,-0.0130,-0.0668,0.1558,-0.0352,9.3924,2.2832,1.4825,-0.0002,0.0004,-0.0002,1.0000,0.2348,0.0570,0.0370
13389362,Left,2,-0.1815,0.0515,0.7675,0.6126,0.0095,0.0189,0.0065,-0.0018,0.0286,-0.0474,-3.3092,-1.4046,9.0795,0.0001,0.0002,0.0001,1.0000,-0.0827,-0.0351,0.2270
13389363,Right,2,-0.0835,0.2045,0.5143,0.8286,0.0045,-0.0006,0.0032,-0.0391,0.0533,-0.0353,-4.1259,0.7639,8.8315,0.0001,-0.0000,0.0000,1.0000,-0.1032,0.0191,0.2208
13389363,Left,2,-0.1816,0.0515,0.7675,0.6126,0.0126,0.0110,0.0031,-0.0014,0.0370,-0.0666,-3.2974,-1.4041,9.0633,0.0002,0.0001,0.0000,1.0000,-0.0824,-0.0351,0.2266
13389364,Right,2,-0.0835,0.2045,0.5143,0.8287,0.0024,0.0023,0.0020,-0.0539,0.0747,-0.0209,-4.1198,0.7879,8.8484,0.0000,0.0000,0.0000,1.0000,-0.1030,0.0197,0.2212
13389364,Pelvis,2,-0.5159,0.3867,-0.4893,-0.5873,-0.0238,0.0058,-0.0087,-0.0149,0.1545,-0.0668,9.3716,2.2283,1.4879,-0.0006,0.0001,-0.0002,1.0000,0.4686,0.1114,0.0743
13389364,Left,2,-0.1816,0.0516,0.7675,0.6126,0.0118,0.0109,0.0047,-0.0006,0.0650,-0.0952,-3.2634,-1.4072,9.0445,0.0001,0.0001,0.0001,1.0000,-0.0816,-0.0352,0.2261
13389365,Right,2,-0.0835,0.2045,0.5143,0.8286,0.0033,0.0045,0.0035,-0.0472,0.0613,-0.0137,-4.1315,0.7765,8.8518,0.0000,0.0001,0.0000,1.0000,-0.1033,0.0194,0.2213
13389365,Pelvis,2,-0.5158,0.3869,-0.4891,-0.5874,-0.0178,-0.0095,-0.0043,0.0644,0.2287,0.0019,9.4674,2.1679,1.4324,-0.0002,-0.0001,-0.0001,1.0000,0.2367,0.0542,0.0358
13389365,Left,2,-0.1817,0.0517,0.7675,0.6125,0.0144,0.0138,0.0052,0.0039,0.0537,-0.0744,-3.2835,-1.4111,9.0590,0.0002,0.0002,0.0001,1.0000,-0.0820,-0.0353,0.2265
13389366,Right,2,-0.0835,0.2045,0.5143,0.8287,0.0023,0.0009,0.0020,-0.0601,0.0539,-0.0142,-4.1422,0.7846,8.8455,0.0000,0.0000,0.0000,1.0000,-0.1036,0.0196,0.2211
13389366,Pelvis,2,-0.5158,0.3870,-0.4889,-0.5875,-0.0070,-0.0073,-0.0032,0.0594,0.1998,0.0003,9.4597,2.1735,1.4589,-0.0001,-0.0001,-0.0000,1.0000,0.2365,0.0543,0.0365
13389366,Left,2,-0.1818,0.0518,0.7676,0.6125,0.0112,0.0135,0.0059,-0.0028,0.0416,-0.0456,-3.3054,-1.4051,9.0829,0.0001,0.0002,0.0001,1.0000,-0.0826,-0.0352,0.2271
13389367,Right,2,-0.0835,0.2045,0.5143,0.8287,-0.0003,-0.0011,0.0033,-0.0477,0.0460,-0.0296,-4.1368,0.7685,8.8324,-0.0000,-0.0000,0.0000,1.0000,-0.1034,0.0192,0.2208
13389367,Left,2,-0.1818,0.0518,0.7675,0.6125,0.0136,0.0073,0.0016,0.0174,0.0414,-0.0614,-3.3051,-1.4217,9.0633,0.0002,0.0001,0.0000,1.0000,-0.0826,-0.0356,0.2266
13389368,Right,2,-0.0835,0.2044,0.5143,0.8287,0.0018,0.0004,0.0037,-0.0446,0.0661,-0.0363,-4.1155,0.7741,8.8345,0.0000,0.0000,0.0000,1.0000,-0.1029,0.0193,0.2209
13389368,Pelvis,2,-0.5160,0.3873,-0.4887,-0.5873,-0.0007,-0.0186,0.0057,0.0257,0.1453,-0.0374,9.4075,2.1976,1.4994,-0.0000,-0.0005,0.0001,1.0000,0.4703,0.1099,0.0752
13389368,Left,2,-0.1818,0.0518,0.7676,0.6125,0.0120,0.0063,0.0026,0.0161,0.0495,-0.0709,-3.2945,-1.4207,9.0572,0.0002,0.0001,0.0000,1.0000,-0.0823,-0.0356,0.2264
13389369,Right,2,-0.0835,0.2044,0.5143,0.8287,0.0017,0.0026,0.0026,-0.0575,0.0588,-0.0368,-4.1260,0.7820,8.8283,0.0000,0.0000,0.0000,1.0000,-0.1031,0.0195,0.2207
13389369,Pelvis,2,-0.5161,0.3876,-0.4885,-0.5872,-0.0074,-0.0293,0.0054,-0.0164,0.1274,0.0061,9.4383,2.2472,1.5144,-0.0001,-0.0004,0.0001,1.0000,0.2359,0.0562,0.0379
13389369,Left,2,-0.1817,0.0518,0.7676,0.6125,0.0131,0.0031,0.0016,-0.0089,0.0462,-0.0551,-3.2984,-1.3979,9.0763,0.0002,0.0000,0.0000,1.0000,-0.0824,-0.0350,0.2269
13389370,Right,2,-0.0835,0.2045,0.5143,0.8287,0.0033,0.0045,0.0035,-0.0389,0.0387,-0.0281,-4.1390,0.7570,8.8338,0.0000,0.0001,0.0000,1.0000,-0.1035,0.0189,0.2209
13389370,Pelvis,2,-0.5160,0.3879,-0.4883,-0.5872,-0.0214,-0.0171,0.0012,-0.0369,0.1298,0.0897,9.5154,2.2851,1.5203,-0.0003,-0.0002,0.0000,1.0000,0.2379,0.0571,0.0380
13389370,Left,2,-0.1817,0.0518,0.7676,0.6125,0.0135,0.0020,0.0012,0.0107,0.0558,-0.0708,-3.2872,-1.4164,9.0607,0.0002,0.0000,0.0000,1.0000,-0.0822,-0.0354,0.2265
13389371,Right,2,-0.0834,0.2045,0.5143,0.8287,0.0059,0.0026,0.0028,-0.0443,0.0320,-0.0223,-4.1493,0.7596,8.8352,0.0001,0.0000,0.0000,1.0000,-0.1037,0.0190,0.2209
13389371,Pelvis,2,-0.5158,0.3881,-0.4880,-0.5875,-0.0356,0.0012,-0.0066,-0.0740,0.1495,0.1003,9.5208,2.3235,1.5006,-0.0004,0.0000,-0.0001,1.0000,0.2380,0.0581,0.0375
13389371,Left,2,-0.1817,0.0519,0.7675,0.6125,0.0147,0.0067,0.0012,0.0190,0.0645,-0.0786,-3.2778,-1.4248,9.0544,0.0002,0.0001,0.0000,1.0000,-0.0819,-0.0357,0.2264
13389372,Right,2,-0.0834,0.2045,0.5143,0.8287,0.0084,0.0022,0.0061,-0.0454,0.0318,-0.0223,-4.1497,0.7616,8.8348,0.0001,0.0000,0.0001,1.0000,-0.1037,0.0190,0.2209
13389372,Pelvis,2,-0.5154,0.3883,-0.4877,-0.5880,-0.0555,0.0072,-0.0146,-0.0393,0.1422,0.0555,9.4835,2.2806,1.5054,-0.0007,0.0001,-0.0002,1.0000,0.2371,0.0570,0.0376
13389372,Left,2,-0.1817,0.0519,0.7676,0.6125,0.0149,0.0080,0.0039,-0.0059,0.0611,-0.0628,-3.2823,-1.4014,9.0734,0.0002,0.0001,0.0000,1.0000,-0.0820,-0.0351,0.2268
13389373,Right,2,-0.0833,0.2045,0.5143,0.8287,0.0082,0.0017,0.0050,-0.0423,0.0519,-0.0290,-4.1289,0.7692,8.8365,0.0001,0.0000,0.0001,1.0000,-0.1032,0.0192,0.2209
13389373,Pelvis,2,-0.5148,0.3885,-0.4873,-0.5887,-0.0708,0.0186,-0.0159,-0.0463,0.1378,0.0379,9.4628,2.2849,1.5130,-0.0009,0.0002,-0.0002,1.0000,0.2366,0.0571,0.0377
13389373,Left,2,-0.1817,0.0520,0.7675,0.6125,0.0141,0.0067,0.0017,0.0009,0.0403,-0.0517,-3.3071,-1.4036,9.0759,0.0002,0.0001,0.0000,1.0000,-0.0827,-0.0351,0.2269
13389374,Right,2,-0.0832,0.2046,0.5143,0.8287,0.0103,0.0029,0.0048,-0.0478,0.0451,-0.0233,-4.1389,0.7730,8.8379,0.0001,0.0000,0.0001,1.0000,-0.1035,0.0193,0.2210
13389374,Pelvis,2,-0.5143,0.3888,-0.4869,-0.5893,-0.0740,0.0126,-0.0146,0.0267,0.1753,-0.0443,9.4053,2.1961,1.4733,-0.0009,0.0002,-0.0002,1.0000,0.2351,0.0549,0.0367
13389374,Left,2,-0.1816,0.0520,0.7675,0.6125,0.0150,0.0029,0.0013,0.0211,0.0401,-0.0675,-3.3055,-1.4200,9.0570,0.0002,0.0000,0.0000,1.0000,-0.0826,-0.0355,0.2264
13389375,Right,2,-0.0831,0.2046,0.5143,0.8287,0.0075,0.0014,0.0045,-0.0623,0.0527,-0.0080,-4.1446,0.7921,8.8506,0.0001,0.0000,0.0001,1.0000,-0.1036,0.0198,0.2213
13389375,Pelvis,2,-0.5137,0.3889,-0.4865,-0.5900,-0.0737,0.0199,-0.0183,0.0813,0.1893,-0.0050,9.4561,2.1534,1.4761,-0.0009,0.0002,-0.0002,1.0000,0.2364,0.0538,0.0368
13389375,Left,2,-0.1815,0.0519,0.7675,0.6125,0.0138,-0.0022,-0.0004,0.0147,0.0476,-0.0481,-3.3029,-1.4179,9.0791,0.0002,-0.0000,-0.0000,1.0000,-0.0826,-0.0355,0.2270
13389376,Right,2,-0.0831,0.2046,0.5143,0.8287,0.0087,0.0008,0.0033,-0.0381,0.0519,-0.0228,-4.1292,0.7705,8.8432,0.0001,0.0000,0.0000,1.0000,-0.1032,0.0192,0.2211
13389376,Pelvis,2,-0.5131,0.3891,-0.4862,-0.5907,-0.0716,0.0246,-0.0144,0.0476,0.1951,0.0616,9.5116,2.2029,1.4895,-0.0009,0.0003,-0.0002,1.0000,0.2378,0.0551,0.0371
13389376,Left,2,-0.1815,0.0519,0.7675,0.6126,0.0145,0.0009,0.0004,0.0021,0.0550,-0.0497,-3.2919,-1.4068,9.0831,0.0002,0.0000,0.0000,1.0000,-0.0823,-0.0352,0.2271
13389377,Right,2,-0.0830,0.2047,0.5143,0.8287,0.0075,0.0028,0.0045,-0.0586,0.0578,-0.0306,-4.1288,0.7921,8.8330,0.0001,0.0000,0.0001,1.0000,-0.1032,0.0198,0.2208
13389377,Pelvis,2,-0.5125,0.3893,-0.4858,-0.5914,-0.0698,0.0202,-0.0123,-0.0185,0.1976,0.0017,9.4381,2.2545,1.4833,-0.0009,0.0003,-0.0002,1.0000,0.2360,0.0564,0.0370
13389377,Left,2,-0.1814,0.0519,0.7675,0.6126,0.0142,0.0025,0.0012,0.0134,0.0445,-0.0673,-3.2968,-1.4119,9.0615,0.0002,0.0000,0.0000,1.0000,-0.0824,-0.0353,0.2265
13389378,Right,2,-0.0830,0.2047,0.5143,0.8287,0.0053,0.0018,0.0039,-0.0566,0.0516,-0.0185,-4.1381,0.7894,8.8422,0.0001,0.0000,0.0000,1.0000,-0.1034,0.0197,0.2211
13389378,Left,2,-0.1814,0.0519,0.7675,0.6126,0.0146,0.0014,0.0009,0.0087,0.0522,-0.0576,-3.2914,-1.4101,9.0743,0.0002,0.0000,0.0000,1.0000,-0.0823,-0.0353,0.2269
13389379,Right,2,-0.0829,0.2047,0.5143,0.8287,0.0052,0.0008,0.0031,-0.0383,0.0453,-0.0107,-4.1391,0.7714,8.8518,0.0001,0.0000,0.0000,1.0000,-0.1035,0.0193,0.2213
13389379,Pelvis,2,-0.5117,0.3898,-0.4851,-0.5923,-0.0573,0.0027,-0.0103,0.0560,0.2039,-0.0627,9.3928,2.1681,1.4769,-0.0014,0.0001,-0.0003,1.0000,0.4697,0.1084,0.0737
13389379,Left,2,-0.1813,0.0519,0.7675,0.6126,0.0152,-0.0017,-0.0008,0.0080,0.0507,-0.0672,-3.2882,-1.4070,9.0656,0.0002,-0.0000,-0.0000,1.0000,-0.0822,-0.0352,0.2266
13389380,Right,2,-0.0829,0.2047,0.5143,0.8287,0.0053,0.0005,0.0039,-0.0498,0.0506,-0.0291,-4.1309,0.7834,8.8344,0.0001,0.0000,0.0000,1.0000,-0.1033,0.0196,0.2209
13389380,Pelvis,2,-0.5115,0.3902,-0.4847,-0.5926,-0.0412,-0.0121,-0.0075,0.0479,0.2148,-0.0510,9.4034,2.1798,1.4713,-0.0005,-0.0002,-0.0001,1.0000,0.2351,0.0545,0.0368
13389380,Left,2,-0.1812,0.0519,0.7675,0.6127,0.0157,-0.0044,-0.0009,0.0147,0.0592,-0.0654,-3.2802,-1.4150,9.0693,0.0002,-0.0001,-0.0000,1.0000,-0.0820,-0.0354,0.2267
13389381,Right,2,-0.0829,0.2047,0.5143,0.8287,0.0046,0.0055,0.0029,-0.0434,0.0509,-0.0228,-4.1309,0.7790,8.8417,0.0001,0.0001,0.0000,1.0000,-0.1033,0.0195,0.2211
13389381,Pelvis,2,-0.5114,0.3905,-0.4844,-0.5927,-0.0360,-0.0251,-0.0034,0.0121,0.1953,0.0010,9.4421,2.2265,1.4959,-0.0005,-0.0003,-0.0000,1.0000,0.2360,0.0557,0.0374
13389381,Left,2,-0.1810,0.0519,0.7675,0.6127,0.0163,-0.0040,0.0003,0.0219,0.0581,-0.0636,-3.2811,-1.4209,9.0699,0.0002,-0.0001,0.0000,1.0000,-0.0820,-0.0356,0.2267
13389382,Right,2,-0.0829,0.2047,0.5143,0.8287,0.0026,0.0031,0.0036,-0.0412,0.0309,-0.0098,-4.1522,0.7691,8.8468,0.0000,0.0000,0.0000,1.0000,-0.1038,0.0192,0.2212
13389382,Pelvis,2,-0.5114,0.3909,-0.4840,-0.5928,-0.0341,-0.0270,-0.0016,0.0290,0.1953,0.0051,9.4505,2.2108,1.4929,-0.0004,-0.0003,-0.0000,1.0000,0.2363,0.0553,0.0374
13389382,Left,2,-0.1809,0.0519,0.7675,0.6128,0.0179,-0.0013,-0.0022,0.0003,0.0551,-0.0671,-3.2768,-1.3979,9.0713,0.0002,-0.0000,-0.0000,1.0000,-0.0819,-0.0350,0.2268
13389383,Right,2,-0.0828,0.2047,0.5143,0.8287,0.0038,0.0014,0.0029,-0.0546,0.0648,-0.0132,-4.1280,0.7965,8.8522,0.0000,0.0000,0.0000,1.0000,-0.1032,0.0199,0.2213
13389383,Pelvis,2,-0.5113,0.3913,-0.4836,-0.5930,-0.0350,-0.0233,-0.0043,0.0294,0.1953,0.0051,9.4513,2.2102,1.4888,-0.0004,-0.0003,-0.0001,1.0000,0.2363,0.0553,0.0373
13389383,Left,2,-0.1808,0.0518,0.7675,0.6128,0.0156,-0.0045,0.0002,0.0076,0.0539,-0.0653,-3.2779,-1.4038,9.0719,0.0002,-0.0001,0.0000,1.0000,-0.0820,-0.0351,0.2268
13389384,Right,2,-0.0828,0.2047,0.5143,0.8287,0.0055,0.0029,0.0047,-0.0300,0.0364,-0.0261,-4.1361,0.7613,8.8370,0.0001,0.0000,0.0001,1.0000,-0.1034,0.0190,0.2209
13389384,Pelvis,2,-0.5111,0.3916,-0.4832,-0.5932,-0.0362,-0.0170,-0.0068,0.0401,0.1870,0.0569,9.5023,2.2118,1.5033,-0.0005,-0.0002,-0.0001,1.0000,0.2376,0.0553,0.0376
13389384,Left,2,-0.1807,0.0518,0.7675,0.6128,0.0160,-0.0008,-0.0003,0.0272,0.0635,-0.0809,-3.2655,-1.4219,9.0568,0.0002,-0.0000,-0.0000,1.0000,-0.0816,-0.0356,0.2264
13389385,Right,2,-0.0827,0.2048,0.5143,0.8287,0.0098,0.0048,0.0060,-0.0328,0.0511,-0.0102,-4.1321,0.7730,8.8556,0.0001,0.0001,0.0001,1.0000,-0.1033,0.0193,0.2214
13389385,Pelvis,2,-0.5109,0.3917,-0.4829,-0.5935,-0.0377,0.0036,-0.0133,-0.0093,0.2234,0.0469,9.4875,2.2594,1.4647,-0.0005,0.0000,-0.0002,1.0000,0.2372,0.0565,0.0366
13389385,Left,2,-0.1807,0.0519,0.7675,0.6128,0.0152,0.0039,0.0023,0.0198,0.0715,-0.1114,-3.2455,-1.4115,9.0330,0.0002,0.0000,0.0000,1.0000,-0.0811,-0.0353,0.2258
13389386,Right,2,-0.0826,0.2049,0.5143,0.8287,0.0103,0.0043,0.0048,-0.0472,0.0449,0.0060,-4.1499,0.7861,8.8641,0.0001,0.0001,0.0001,1.0000,-0.1037,0.0196,0.2216
13389386,Pelvis,2,-0.5106,0.3918,-0.4827,-0.5939,-0.0378,0.0078,-0.0120,0.0062,0.2113,0.0328,9.4743,2.2429,1.4780,-0.0005,0.0001,-0.0002,1.0000,0.2369,0.0561,0.0369
13389386,Left,2,-0.1807,0.0519,0.7675,0.6128,0.0144,0.0081,0.0032,-0.0001,0.0583,-0.0652,-3.2701,-1.3948,9.0763,0.0002,0.0001,0.0000,1.0000,-0.0817,-0.0349,0.2269
13389387,Right,2,-0.0825,0.2049,0.5143,0.8287,0.0083,-0.0014,0.0058,-0.0498,0.0496,-0.0228,-4.1345,0.7902,8.8390,0.0001,-0.0000,0.0001,1.0000,-0.1034,0.0197,0.2210
13389387,Pelvis,2,-0.5104,0.3919,-0.4825,-0.5942,-0.0297,0.0075,-0.0066,0.0099,0.1796,-0.0042,9.4334,2.2318,1.5066,-0.0004,0.0001,-0.0001,1.0000,0.2358,0.0558,0.0376
13389387,Left,2,-0.1807,0.0520,0.7675,0.6128,0.0146,0.0065,0.0035,0.0095,0.0475,-0.0731,-3.2796,-1.3994,9.0635,0.0002,0.0001,0.0000,1.0000,-0.0820,-0.0350,0.2266
13389388,Right,2,-0.0825,0.2048,0.5144,0.8287,0.0062,-0.0001,0.0055,-0.0614,0.0549,-0.0411,-4.1260,0.8029,8.8217,0.0001,-0.0000,0.0001,1.0000,-0.1032,0.0200,0.2205
13389388,Left,2,-0.1806,0.0520,0.7676,0.6128,0.0146,0.0044,0.0032,0.0222,0.0562,-0.0503,-3.2818,-1.4161,9.0847,0.0002,0.0001,0.0000,1.0000,-0.0820,-0.0354,0.2271
13389389,Right,2,-0.0825,0.2048,0.5144,0.8287,0.0039,0.0008,0.0032,-0.0565,0.0564,-0.0180,-4.1321,0.8016,8.8445,0.0000,0.0000,0.0000,1.0000,-0.1033,0.0200,0.2211
13389389,Pelvis,2,-0.5101,0.3922,-0.4822,-0.5945,-0.0212,-0.0019,-0.0033,-0.0018,0.1524,-0.0143,9.4158,2.2410,1.5336,-0.0005,-0.0000,-0.0001,1.0000,0.4708,0.1120,0.0766
13389389,Left,2,-0.1806,0.0520,0.7675,0.6128,0.0163,0.0055,0.0010,0.0042,0.0537,-0.0730,-3.2730,-1.3940,9.0669,0.0002,0.0001,0.0000,1.0000,-0.0818,-0.0349,0.2267
13389390,Right,2,-0.0824,0.2048,0.5144,0.8287,0.0022,-0.0015,0.0067,-0.0366,0.0489,-0.0270,-4.1260,0.7803,8.8392,0.0000,-0.0000,0.0001,1.0000,-0.1032,0.0195,0.2210
13389390,Pelvis,2,-0.5101,0.3924,-0.4819,-0.5946,-0.0163,-0.0149,-0.0077,0.0275,0.1953,-0.0473,9.3981,2.2068,1.4859,-0.0002,-0.0002,-0.0001,1.0000,0.2350,0.0552,0.0372
13389390,Left,2,-0.1806,0.0521,0.7675,0.6128,0.0140,0.0040,0.0021,0.0109,0.0328,-0.0619,-3.2973,-1.3961,9.0696,0.0002,0.0000,0.0000,1.0000,-0.0824,-0.0349,0.2267
13389391,Right,2,-0.0824,0.2048,0.5144,0.8287,0.0030,0.0001,0.0017,-0.0602,0.0609,-0.0469,-4.1160,0.8053,8.8198,0.0000,0.0000,0.0000,1.0000,-0.1029,0.0201,0.2205
13389391,Pelvis,2,-0.5102,0.3925,-0.4816,-0.5947,-0.0112,-0.0216,-0.0105,0.0143,0.1839,-0.0390,9.4012,2.2235,1.4944,-0.0001,-0.0003,-0.0001,1.0000,0.2350,0.0556,0.0374
13389391,Left,2,-0.1805,0.0520,0.7675,0.6129,0.0126,-0.0021,-0.0006,0.0033,0.0303,-0.0331,-3.3070,-1.3919,9.0977,0.0002,-0.0000,-0.0000,1.0000,-0.0827,-0.0348,0.2274
13389392,Right,2,-0.0824,0.2047,0.5144,0.8287,0.0033,0.0001,0.0044,-0.0434,0.0557,-0.0222,-4.1236,0.7899,8.8448,0.0000,0.0000,0.0001,1.0000,-0.1031,0.0197,0.2211
13389392,Pelvis,2,-0.5104,0.3927,-0.4813,-0.5947,-0.0105,-0.0283,-0.0083,0.0012,0.2066,0.0152,9.4543,2.2511,1.4757,-0.0001,-0.0004,-0.0001,1.0000,0.2364,0.0563,0.0370
13389392,Left,2,-0.1803,0.0519,0.7675,0.6129,0.0143,-0.0084,-0.0033,0.0140,0.0295,-0.0505,-3.3012,-1.3993,9.0799,0.0002,-0.0001,-0.0000,1.0000,-0.0826,-0.0350,0.2270
13389393,Right,2,-0.0823,0.2047,0.5144,0.8287,0.0038,0.0000,0.0029,-0.0517,0.0412,-0.0276,-4.1358,0.7906,8.8330,0.0000,0.0000,0.0000,1.0000,-0.1034,0.0198,0.2208
13389393,Left,2,-0.1801,0.0518,0.7675,0.6130,0.0174,-0.0160,-0.0051,0.0143,0.0675,-0.0788,-3.2525,-1.4043,9.0665,0.0002,-0.0002,-0.0001,1.0000,-0.0814,-0.0352,0.2266
13389394,Right,2,-0.0823,0.2047,0.5144,0.8287,0.0054,0.0007,0.0045,-0.0364,0.0409,-0.0318,-4.1277,0.7771,8.8333,0.0001,0.0000,0.0001,1.0000,-0.1032,0.0194,0.2208
13389394,Pelvis,2,-0.5105,0.3933,-0.4806,-0.5948,-0.0198,-0.0289,-0.0067,-0.0273,0.1905,0.0147,9.4455,2.2806,1.4821,-0.0005,-0.0007,-0.0002,1.0000,0.4722,0.1140,0.0744
13389394,Left,2,-0.1799,0.0518,0.7675,0.6131,0.0183,-0.0089,-0.0009,0.0120,0.0657,-0.0788,-3.2496,-1.4005,9.0682,0.0002,-0.0001,-0.0000,1.0000,-0.0813,-0.0351,0.2267
13389395,Right,2,-0.0822,0.2047,0.5144,0.8287,0.0068,0.0015,0.0046,-0.0495,0.0473,-0.0333,-4.1264,0.7925,8.8309,0.0001,0.0000,0.0001,1.0000,-0.1032,0.0198,0.2208
13389395,Pelvis,2,-0.5103,0.3936,-0.4802,-0.5950,-0.0355,-0.0164,-0.0047,-0.0191,0.2115,0.0553,9.4905,2.2838,1.4616,-0.0004,-0.0002,-0.0001,1.0000,0.2373,0.0571,0.0366
13389395,Left,2,-0.1798,0.0518,0.7675,0.6131,0.0183,0.0006,-0.0002,0.0022,0.0832,-0.0995,-3.2224,-1.3911,9.0573,0.0002,0.0000,-0.0000,1.0000,-0.0806,-0.0348,0.2264
13389396,Right,2,-0.0822,0.2048,0.5144,0.8287,0.0075,0.0014,0.0045,-0.0476,0.0549,-0.0223,-4.1239,0.7964,8.8440,0.0001,0.0000,0.0001,1.0000,-0.1031,0.0199,0.2211
13389396,Pelvis,2,-0.5101,0.3940,-0.4799,-0.5952,-0.0434,-0.0137,-0.0041,0.0019,0.1930,0.0188,9.4574,2.2546,1.4727,-0.0005,-0.0002,-0.0001,1.0000,0.2364,0.0564,0.0368
13389396,Left,2,-0.1798,0.0518,0.7675,0.6131,0.0161,0.0044,0.0011,0.0072,0.0621,-0.0788,-3.2492,-1.3925,9.0696,0.0002,0.0001,0.0000,1.0000,-0.0812,-0.0349,0.2267
13389397,Right,2,-0.0821,0.2048,0.5144,0.8287,0.0063,0.0043,0.0060,-0.0516,0.0470,-0.0334,-4.1272,0.7966,8.8302,0.0001,0.0001,0.0001,1.0000,-0.1032,0.0199,0.2208
13389397,Pelvis,2,-0.5098,0.3942,-0.4796,-0.5955,-0.0401,-0.0011,-0.0031,0.0862,0.1682,0.0551,9.5074,2.1801,1.5053,-0.0005,-0.0000,-0.0000,1.0000,0.2377,0.0545,0.0376
13389397,Left,2,-0.1797,0.0519,0.7675,0.6131,0.0139,0.0065,0.0039,0.0229,0.0515,-0.0657,-3.2664,-1.4059,9.0753,0.0002,0.0001,0.0000,1.0000,-0.0816,-0.0352,0.2269
13389398,Right,2,-0.0821,0.2048,0.5144,0.8287,0.0068,0.0045,0.0038,-0.0439,0.0599,-0.0448,-4.1090,0.7960,8.8261,0.0001,0.0001,0.0000,1.0000,-0.1027,0.0199,0.2207
13389398,Pelvis,2,-0.5095,0.3943,-0.4796,-0.5957,-0.0271,0.0169,0.0027,0.1120,0.1829,0.1168,9.5746,2.1686,1.5053,-0.0003,0.0002,0.0000,1.0000,0.2394,0.0542,0.0376
13389398,Left,2,-0.1798,0.0519,0.7675,0.6131,0.0124,0.0073,0.0024,-0.0010,0.0580,-0.0595,-3.2586,-1.3848,9.0880,0.0002,0.0001,0.0000,1.0000,-0.0814,-0.0347,0.2272
13389399,Right,2,-0.0820,0.2049,0.5144,0.8287,0.0087,0.0057,0.0022,-0.0583,0.0537,-0.0286,-4.1270,0.8083,8.8346,0.0001,0.0001,0.0000,1.0000,-0.1032,0.0202,0.2209
13389399,Pelvis,2,-0.5092,0.3941,-0.4798,-0.5960,-0.0093,0.0370,0.0054,0.0510,0.1645,0.0600,9.5021,2.2134,1.5200,-0.0001,0.0005,0.0001,1.0000,0.2376,0.0554,0.0379
13389399,Left,2,-0.1798,0.0519,0.7675,0.6131,0.0119,0.0105,0.0030,0.0182,0.0479,-0.0657,-3.2702,-1.3997,9.0749,0.0001,0.0001,0.0000,1.0000,-0.0817,-0.0350,0.2269
13389400,Right,2,-0.0820,0.2050,0.5144,0.8287,0.0046,0.0066,0.0023,-0.0429,0.0534,-0.0328,-4.1203,0.7951,8.8342,0.0001,0.0001,0.0000,1.0000,-0.1030,0.0199,0.2209
13389400,Pelvis,2,-0.5089,0.3939,-0.4800,-0.5962,-0.0045,0.0356,0.0077,-0.0214,0.1761,-0.0211,9.4087,2.2641,1.5021,-0.0001,0.0004,0.0001,1.0000,0.2352,0.0566,0.0374
13389400,Left,2,-0.1799,0.0520,0.7675,0.6131,0.0111,0.0125,0.0048,0.0287,0.0767,-0.0923,-3.2380,-1.4129,9.0560,0.0001,0.0002,0.0001,1.0000,-0.0809,-0.0354,0.2264
13389401,Right,2,-0.0820,0.2050,0.5144,0.8287,0.0061,0.0040,0.0041,-0.0394,0.0422,0.0081,-4.1459,0.7906,8.8678,0.0001,0.0000,0.0001,1.0000,-0.1036,0.0197,0.2217
13389401,Pelvis,2,-0.5087,0.3937,-0.4802,-0.5963,-0.0049,0.0321,0.0046,-0.0087,0.2103,-0.0236,9.4141,2.2507,1.4763,-0.0001,0.0004,0.0001,1.0000,0.2354,0.0563,0.0368
13389401,Left,2,-0.1800,0.0521,0.7675,0.6130,0.0104,0.0146,0.0055,0.0164,0.0546,-0.0848,-3.2607,-1.3965,9.0583,0.0001,0.0002,0.0001,1.0000,-0.0815,-0.0349,0.2265
13389402,Right,2,-0.0820,0.2050,0.5144,0.8287,0.0069,0.0050,0.0049,-0.0404,0.0457,-0.0376,-4.1244,0.7908,8.8273,0.0001,0.0001,0.0001,1.0000,-0.1031,0.0197,0.2207
13389402,Pelvis,2,-0.5085,0.3935,-0.4804,-0.5965,0.0003,0.0330,0.0024,0.0059,0.1848,-0.0342,9.4018,2.2330,1.5075,0.0000,0.0004,0.0000,1.0000,0.2351,0.0558,0.0376
13389402,Left,2,-0.1800,0.0521,0.7675,0.6130,0.0098,0.0121,0.0041,0.0183,0.0526,-0.0542,-3.2753,-1.4022,9.0851,0.0001,0.0002,0.0001,1.0000,-0.0818,-0.0351,0.2271
13389403,Right,2,-0.0819,0.2051,0.5144,0.8286,0.0069,0.0042,0.0046,-0.0432,0.0604,-0.0217,-4.1205,0.8023,8.8457,0.0001,0.0001,0.0001,1.0000,-0.1030,0.0200,0.2212
13389403,Pelvis,2,-0.5083,0.3933,-0.4806,-0.5967,-0.0008,0.0319,0.0011,0.0104,0.1855,-0.0036,9.4311,2.2357,1.5197,-0.0000,0.0004,0.0000,1.0000,0.2358,0.0559,0.0379
13389403,Left,2,-0.1801,0.0522,0.7675,0.6130,0.0113,0.0105,0.0034,0.0190,0.0316,-0.0640,-3.2929,-1.3964,9.0689,0.0001,0.0001,0.0000,1.0000,-0.0823,-0.0349,0.2267
13389404,Right,2,-0.0819,0.2051,0.5144,0.8286,0.0040,0.0063,0.0032,-0.0561,0.0531,-0.0223,-4.1317,0.8111,8.8390,0.0000,0.0001,0.0000,1.0000,-0.1033,0.0203,0.2210
13389404,Left,2,-0.1801,0.0522,0.7675,0.6129,0.0101,0.0084,0.0041,0.0075,0.0489,-0.0751,-3.2721,-1.3880,9.0659,0.0001,0.0001,0.0001,1.0000,-0.0818,-0.0347,0.2267
13389405,Right,2,-0.0819,0.2052,0.5143,0.8286,0.0059,0.0076,0.0016,-0.0496,0.0397,-0.0150,-4.1442,0.8002,8.8421,0.0001,0.0001,0.0000,1.0000,-0.1036,0.0200,0.2211
13389405,Pelvis,2,-0.5077,0.3927,-0.4811,-0.5971,-0.0025,0.0417,0.0013,-0.0081,0.1794,0.0489,9.4739,2.2653,1.5483,-0.0001,0.0010,0.0000,1.0000,0.4738,0.1133,0.0769
13389405,Left,2,-0.1802,0.0523,0.7675,0.6129,0.0134,0.0140,0.0037,0.0081,0.0574,-0.0942,-3.2593,-1.3876,9.0501,0.0002,0.0002,0.0000,1.0000,-0.0814,-0.0347,0.2263
13389406,Right,2,-0.0819,0.2053,0.5143,0.8286,0.0061,0.0054,0.0041,-0.0552,0.0467,-0.0103,-4.1435,0.8095,8.8470,0.0001,0.0001,0.0001,1.0000,-0.1036,0.0202,0.2212
13389406,Pelvis,2,-0.5075,0.3924,-0.4813,-0.5974,0.0004,0.0450,-0.0009,0.0119,0.1840,0.0182,9.4473,2.2394,1.5539,0.0000,0.0006,-0.0000,1.0000,0.2362,0.0560,0.0387
13389406,Left,2,-0.1803,0.0523,0.7675,0.6129,0.0103,0.0137,0.0033,0.0189,0.0657,-0.0616,-3.2667,-1.4043,9.0799,0.0001,0.0002,0.0000,1.0000,-0.0816,-0.0351,0.2270
13389407,Right,2,-0.0819,0.2053,0.5143,0.8286,0.0067,0.0029,0.0032,-0.0473,0.0458,-0.0208,-4.1369,0.8023,8.8390,0.0001,0.0000,0.0000,1.0000,-0.1034,0.0200,0.2210
13389407,Pelvis,2,-0.5073,0.3920,-0.4816,-0.5976,0.0080,0.0449,-0.0033,0.0077,0.1684,0.0130,9.4366,2.2430,1.5784,0.0001,0.0006,-0.0000,1.0000,0.2359,0.0561,0.0393
13389407,Left,2,-0.1804,0.0524,0.7675,0.6128,0.0104,0.0146,0.0054,0.0076,0.0536,-0.0635,-3.2773,-1.3903,9.0761,0.0001,0.0002,0.0001,1.0000,-0.0819,-0.0348,0.2269
13389408,Right,2,-0.0819,0.2053,0.5143,0.8286,0.0033,0.0050,0.0033,-0.0307,0.0582,-0.0427,-4.1112,0.7921,8.8277,0.0000,0.0001,0.0000,1.0000,-0.1028,0.0198,0.2207
13389408,Left,2,-0.1805,0.0525,0.7676,0.6128,0.0110,0.0120,0.0043,0.0113,0.0518,-0.0425,-3.2887,-1.3962,9.0936,0.0001,0.0002,0.0001,1.0000,-0.0822,-0.0349,0.2273
13389409,Right,2,-0.0819,0.2054,0.5143,0.8286,0.0046,0.0074,0.0026,-0.0480,0.0442,-0.0376,-4.1322,0.8018,8.8226,0.0001,0.0001,0.0000,1.0000,-0.1033,0.0200,0.2206
13389409,Pelvis,2,-0.5070,0.3911,-0.4821,-0.5979,0.0129,0.0431,-0.0044,0.0232,0.1817,-0.0127,9.4150,2.2247,1.5754,0.0003,0.0011,-0.0001,1.0000,0.4708,0.1112,0.0783
13389409,Left,2,-0.1805,0.0525,0.7676,0.6128,0.0110,0.0094,0.0035,0.0136,0.0605,-0.0712,-3.2727,-1.3964,9.0687,0.0001,0.0001,0.0000,1.0000,-0.0818,-0.0349,0.2267
13389410,Right,2,-0.0819,0.2054,0.5143,0.8286,0.0053,0.0087,0.0025,-0.0370,0.0374,-0.0360,-4.1354,0.7896,8.8239,0.0001,0.0001,0.0000,1.0000,-0.1034,0.0197,0.2206
13389410,Left,2,-0.1806,0.0526,0.7676,0.6127,0.0103,0.0141,0.0049,0.0123,0.0688,-0.0806,-3.2632,-1.3958,9.0621,0.0001,0.0002,0.0001,1.0000,-0.0815,-0.0349,0.2266
13389411,Right,2,-0.0819,0.2055,0.5143,0.8286,0.0036,0.0088,0.0054,-0.0486,0.0389,-0.0088,-4.1515,0.8031,8.8454,0.0000,0.0001,0.0001,1.0000,-0.1038,0.0201,0.2211
13389411,Left,2,-0.1807,0.0526,0.7676,0.6127,0.0081,0.0123,0.0032,0.0197,0.0381,-0.0697,-3.2985,-1.3973,9.0607,0.0001,0.0002,0.0000,1.0000,-0.0824,-0.0350,0.2265
13389412,Right,2,-0.0819,0.2056,0.5143,0.8286,0.0049,0.0060,0.0053,-0.0407,0.0380,-0.0192,-4.1456,0.7956,8.8372,0.0001,0.0001,0.0001,1.0000,-0.1036,0.0199,0.2209
13389412,Left,2,-0.1807,0.0526,0.7676,0.6127,0.0090,0.0108,0.0019,0.0125,0.0552,-0.0501,-3.2895,-1.3978,9.0849,0.0001,0.0001,0.0000,1.0000,-0.0822,-0.0350,0.2271
13389413,Right,2,-0.0819,0.2056,0.5143,0.8286,0.0034,0.0050,0.0046,-0.0537,0.0445,-0.0208,-4.1452,0.8106,8.8344,0.0000,0.0001,0.0001,1.0000,-0.1036,0.0202,0.2209
13389413,Left,2,-0.1808,0.0526,0.7676,0.6127,0.0118,0.0077,0.0034,0.0215,0.0543,-0.0579,-3.2903,-1.4053,9.0751,0.0001,0.0001,0.0000,1.0000,-0.0822,-0.0352,0.2269
13389414,Right,2,-0.0819,0.2057,0.5143,0.8285,0.0041,0.0074,0.0040,-0.0399,0.0453,-0.0082,-4.1453,0.8002,8.8492,0.0001,0.0001,0.0001,1.0000,-0.1036,0.0200,0.2212
13389414,Left,2,-0.1808,0.0526,0.7676,0.6127,0.0110,0.0064,0.0012,0.0203,0.0625,-0.0673,-3.2798,-1.4047,9.0690,0.0001,0.0001,0.0000,1.0000,-0.0820,-0.0351,0.2267
13389415,Right,2,-0.0819,0.2057,0.5143,0.8285,0.0008,0.0043,0.0005,-0.0484,0.0445,-0.0145,-4.1471,0.8068,8.8408,0.0000,0.0001,0.0000,1.0000,-0.1037,0.0202,0.2210
13389415,Left,2,-0.1808,0.0527,0.7676,0.6127,0.0119,0.0103,0.0041,0.0054,0.0497,-0.0501,-3.2954,-1.3896,9.0840,0.0001,0.0001,0.0001,1.0000,-0.0824,-0.0348,0.2271
13389416,Right,2,-0.0820,0.2057,0.5143,0.8285,0.0003,0.0063,0.0016,-0.0437,0.0635,-0.0379,-4.1203,0.8089,8.8272,0.0000,0.0001,0.0000,1.0000,-0.1030,0.0202,0.2207
13389416,Left,2,-0.1809,0.0527,0.7676,0.6127,0.0109,0.0106,0.0016,0.0319,0.0408,-0.0946,-3.2945,-1.4065,9.0339,0.0001,0.0001,0.0000,1.0000,-0.0823,-0.0352,0.2259
13389417,Right,2,-0.0820,0.2057,0.5142,0.8286,0.0008,0.0098,-0.0009,-0.0417,0.0572,-0.0259,-4.1310,0.8046,8.8359,0.0000,0.0001,-0.0000,1.0000,-0.1032,0.0201,0.2209
13389417,Left,2,-0.1809,0.0528,0.7676,0.6126,0.0111,0.0099,0.0040,0.0162,0.0673,-0.0863,-3.2712,-1.3990,9.0526,0.0001,0.0001,0.0001,1.0000,-0.0817,-0.0350,0.2263
13389418,Right,2,-0.0821,0.2058,0.5142,0.8286,0.0010,0.0093,0.0007,-0.0545,0.0361,-0.0256,-4.1549,0.8056,8.8249,0.0000,0.0001,0.0000,1.0000,-0.1038,0.0201,0.2206
13389418,Left,2,-0.1810,0.0528,0.7676,0.6126,0.0119,0.0103,0.0041,0.0229,0.0463,-0.0752,-3.2967,-1.4017,9.0547,0.0001,0.0001,0.0001,1.0000,-0.0824,-0.0351,0.2264
13389419,Right,2,-0.0821,0.2058,0.5142,0.8285,0.0011,0.0079,0.0021,-0.0496,0.0375,-0.0025,-4.1630,0.8032,8.8470,0.0000,0.0001,0.0000,1.0000,-0.1041,0.0201,0.2212
13389419,Left,2,-0.1810,0.0528,0.7676,0.6126,0.0116,0.0089,0.0026,0.0170,0.0440,-0.0560,-3.3054,-1.3978,9.0727,0.0001,0.0001,0.0000,1.0000,-0.0826,-0.0350,0.2268
13389420,Right,2,-0.0821,0.2058,0.5142,0.8286,0.0010,0.0024,0.0021,-0.0432,0.0378,0.0039,-4.1635,0.7978,8.8542,0.0000,0.0000,0.0000,1.0000,-0.1041,0.0199,0.2214
13389420,Left,2,-0.1810,0.0529,0.7676,0.6126,0.0108,0.0058,0.0018,0.0207,0.0333,-0.0850,-3.3065,-1.3947,9.0417,0.0001,0.0001,0.0000,1.0000,-0.0826,-0.0349,0.2260
13389421,Right,2,-0.0822,0.2058,0.5142,0.8286,0.0003,0.0036,0.0016,-0.0489,0.0624,-0.0380,-4.1278,0.8105,8.8236,0.0000,0.0000,0.0000,1.0000,-0.1032,0.0203,0.2206
