PacketId,Role,StatusWord,Qx,Qy,Qz,Qw,Gx,Gy,Gz,FreeAx,FreeAy,FreeAz,Ax,Ay,Az,DQx,DQy,DQz,DQw,DVx,DVy,DVz
433,Left,0,0.1998,0.0169,-0.9704,-0.1346,0.0067,0.0012,-0.0037,-0.0000,0.0000,-0.0311,-3.7488,-0.8473,8.9949,0.0001,0.0000,-0.0000,1.0000,-0.0937,-0.0212,0.2249
433,Right,0,0.1588,-0.1581,-0.8931,-0.3900,0.0092,0.0037,0.0067,0.0000,-0.0000,-0.0744,-3.9636,1.5447,8.7600,0.0001,0.0000,0.0001,1.0000,-0.0991,0.0386,0.2190
434,Left,0,0.1998,0.0168,-0.9704,-0.1347,0.0085,0.0012,-0.0006,0.0162,-0.0042,-0.0453,-3.7588,-0.8458,8.9754,0.0001,0.0000,-0.0000,1.0000,-0.0940,-0.0212,0.2244
434,Right,0,0.1588,-0.1583,-0.8931,-0.3899,0.0134,0.0061,0.0073,-0.0010,-0.0190,-0.0777,-3.9741,1.5576,8.7493,0.0002,0.0001,0.0001,1.0000,-0.0993,0.0389,0.2187
435,Left,0,0.1998,0.0168,-0.9704,-0.1347,0.0098,-0.0024,0.0000,0.0270,-0.0193,-0.0297,-3.7782,-0.8340,8.9854,0.0001,-0.0000,0.0000,1.0000,-0.0945,-0.0209,0.2246
435,Right,0,0.1587,-0.1584,-0.8932,-0.3899,0.0079,-0.0031,0.0073,-0.0155,-0.0315,-0.0746,-3.9742,1.5802,8.7488,0.0001,-0.0000,0.0001,1.0000,-0.0994,0.0395,0.2187
436,Left,0,0.1997,0.0166,-0.9704,-0.1347,0.0098,-0.0037,-0.0018,0.0236,-0.0260,-0.0523,-3.7677,-0.8222,8.9663,0.0001,-0.0000,-0.0000,1.0000,-0.0942,-0.0206,0.2242
436,Right,0,0.1586,-0.1584,-0.8932,-0.3898,0.0067,-0.0092,0.0098,0.0121,-0.0023,-0.0720,-3.9725,1.5436,8.7589,0.0001,-0.0001,0.0001,1.0000,-0.0993,0.0386,0.2190
437,Left,0,0.1996,0.0165,-0.9704,-0.1349,0.0085,-0.0055,-0.0043,0.0222,-0.0152,-0.0424,-3.7666,-0.8302,8.9767,0.0001,-0.0001,-0.0001,1.0000,-0.0942,-0.0208,0.2244
437,Right,0,0.1584,-0.1585,-0.8933,-0.3897,0.0061,-0.0079,0.0128,0.0146,0.0064,-0.0863,-3.9605,1.5363,8.7497,0.0001,-0.0001,0.0002,1.0000,-0.0990,0.0384,0.2187
438,Left,0,0.1996,0.0165,-0.9704,-0.1349,0.0073,-0.0049,-0.0079,0.0145,0.0055,-0.0355,-3.7556,-0.8485,8.9872,0.0001,-0.0001,-0.0001,1.0000,-0.0939,-0.0212,0.2247
438,Right,0,0.1583,-0.1586,-0.8933,-0.3895,0.0098,-0.0085,0.0140,0.0016,-0.0102,-0.0920,-3.9581,1.5589,8.7404,0.0001,-0.0001,0.0002,1.0000,-0.0990,0.0389,0.2185
439,Left,0,0.1995,0.0165,-0.9704,-0.1350,0.0067,-0.0043,-0.0073,0.0044,0.0170,-0.0294,-3.7446,-0.8574,8.9975,0.0001,-0.0001,-0.0001,1.0000,-0.0936,-0.0214,0.2249
439,Right,0,0.1581,-0.1587,-0.8934,-0.3895,0.0104,-0.0067,0.0098,-0.0063,0.0001,-0.0872,-3.9462,1.5623,8.7506,0.0001,-0.0001,0.0001,1.0000,-0.0987,0.0390,0.2188
440,Left,0,0.1994,0.0164,-0.9704,-0.1351,0.0079,-0.0061,-0.0061,0.0108,-0.0026,-0.0581,-3.7433,-0.8369,8.9688,0.0001,-0.0001,-0.0001,1.0000,-0.0936,-0.0209,0.2242
440,Right,0,0.1580,-0.1587,-0.8934,-0.3894,0.0073,-0.0092,0.0092,-0.0016,-0.0022,-0.0744,-3.9539,1.5652,8.7608,0.0001,-0.0001,0.0001,1.0000,-0.0989,0.0391,0.2190
441,Left,0,0.1994,0.0163,-0.9704,-0.1352,0.0085,-0.0055,-0.0067,-0.0032,0.0098,-0.0430,-3.7321,-0.8453,8.9891,0.0001,-0.0001,-0.0001,1.0000,-0.0933,-0.0211,0.2247
441,Right,0,0.1578,-0.1588,-0.8935,-0.3893,0.0067,-0.0110,0.0104,-0.0054,0.0128,-0.0927,-3.9318,1.5579,8.7517,0.0001,-0.0001,0.0001,1.0000,-0.0983,0.0389,0.2188
442,Left,0,0.1993,0.0163,-0.9704,-0.1352,0.0085,-0.0049,-0.0049,-0.0121,0.0114,-0.0467,-3.7210,-0.8439,8.9897,0.0001,-0.0001,-0.0001,1.0000,-0.0930,-0.0211,0.2247
442,Right,0,0.1576,-0.1588,-0.8935,-0.3893,0.0079,-0.0073,0.0092,-0.0111,0.0026,-0.0999,-3.9294,1.5702,8.7426,0.0001,-0.0001,0.0001,1.0000,-0.0983,0.0392,0.2186
443,Left,0,0.1993,0.0161,-0.9704,-0.1353,0.0073,-0.0006,-0.0024,0.0013,0.0076,-0.0303,-3.7399,-0.8425,9.0000,0.0001,-0.0000,-0.0000,1.0000,-0.0935,-0.0211,0.2250
443,Right,0,0.1576,-0.1590,-0.8935,-0.3892,0.0134,0.0043,0.0061,-0.0153,0.0437,-0.0758,-3.9092,1.5538,8.7814,0.0002,0.0001,0.0001,1.0000,-0.0977,0.0388,0.2195
444,Left,0,0.1993,0.0161,-0.9704,-0.1354,0.0043,0.0055,-0.0025,0.0127,-0.0065,-0.0147,-3.7599,-0.8317,9.0096,0.0001,0.0001,-0.0000,1.0000,-0.0940,-0.0208,0.2252
444,Right,0,0.1576,-0.1592,-0.8935,-0.3891,0.0159,0.0104,0.0061,0.0132,0.0102,-0.0775,-3.9497,1.5576,8.7606,0.0002,0.0001,0.0001,1.0000,-0.0987,0.0389,0.2190
445,Left,0,0.1994,0.0159,-0.9704,-0.1355,0.0018,0.0061,-0.0025,0.0207,-0.0054,-0.0326,-3.7612,-0.8312,8.9896,0.0000,0.0001,-0.0000,1.0000,-0.0940,-0.0208,0.2247
445,Right,0,0.1576,-0.1594,-0.8935,-0.3891,0.0147,0.0067,0.0079,0.0138,-0.0066,-0.0808,-3.9610,1.5714,8.7494,0.0002,0.0001,0.0001,1.0000,-0.0990,0.0392,0.2187
446,Left,0,0.1994,0.0159,-0.9704,-0.1356,0.0037,0.0024,-0.0055,0.0188,-0.0029,-0.0543,-3.7523,-0.8310,8.9697,0.0000,0.0000,-0.0001,1.0000,-0.0938,-0.0208,0.2242
446,Right,0,0.1575,-0.1596,-0.8935,-0.3890,0.0104,-0.0006,0.0085,0.0146,0.0058,-0.0863,-3.9516,1.5652,8.7486,0.0001,-0.0000,0.0001,1.0000,-0.0988,0.0391,0.2187
447,Left,0,0.1994,0.0158,-0.9704,-0.1356,0.0098,-0.0061,-0.0018,0.0145,0.0184,-0.0564,-3.7420,-0.8494,8.9701,0.0001,-0.0001,-0.0000,1.0000,-0.0936,-0.0213,0.2242
447,Right,0,0.1574,-0.1596,-0.8936,-0.3889,0.0037,-0.0085,0.0104,0.0152,0.0182,-0.0918,-3.9405,1.5579,8.7488,0.0000,-0.0001,0.0001,1.0000,-0.0985,0.0389,0.2187
448,Left,0,0.1993,0.0157,-0.9704,-0.1357,0.0092,-0.0073,-0.0024,-0.0054,0.0120,-0.0430,-3.7307,-0.8376,8.9904,0.0001,-0.0001,-0.0000,1.0000,-0.0933,-0.0210,0.2247
448,Right,0,0.1573,-0.1596,-0.8937,-0.3888,0.0049,-0.0098,0.0104,0.0070,0.0282,-0.0870,-3.9284,1.5598,8.7593,0.0001,-0.0001,0.0001,1.0000,-0.0982,0.0390,0.2190
448,Pelvis,0,0.4094,-0.5684,0.4985,0.5107,-0.7643,-0.6811,0.1404,-0.0000,0.0000,0.1920,9.8907,-1.5050,0.0883,-0.0096,-0.0085,0.0018,0.9999,0.2473,-0.0372,0.0047
449,Left,0,0.1993,0.0157,-0.9704,-0.1357,0.0079,-0.0024,-0.0031,-0.0251,0.0355,-0.0308,-3.7100,-0.8554,9.0106,0.0001,-0.0000,-0.0000,1.0000,-0.0928,-0.0214,0.2253
449,Right,0,0.1572,-0.1596,-0.8937,-0.3887,0.0085,-0.0037,0.0092,0.0195,0.0608,-0.0780,-3.9168,1.5330,8.7793,0.0001,-0.0000,0.0001,1.0000,-0.0979,0.0383,0.2195
449,Pelvis,0,0.4082,-0.5753,0.4927,0.5096,-0.5558,-0.4751,0.0889,-0.1752,-1.6101,0.2705,9.9329,-1.6205,1.7341,-0.0069,-0.0059,0.0011,1.0000,0.2481,-0.0399,0.0451
450,Left,0,0.1993,0.0157,-0.9704,-0.1356,0.0067,0.0079,-0.0006,-0.0263,0.0175,-0.0632,-3.7008,-0.8345,8.9811,0.0001,0.0001,-0.0000,1.0000,-0.0925,-0.0209,0.2245
450,Right,0,0.1571,-0.1598,-0.8937,-0.3886,0.0159,0.0055,0.0079,0.0253,0.0411,-0.0685,-3.9362,1.5463,8.7787,0.0002,0.0001,0.0001,1.0000,-0.0984,0.0386,0.2195
450,Pelvis,0,0.4067,-0.5832,0.4856,0.5086,-0.6872,-0.5850,0.0508,-0.0820,-1.4327,0.0964,9.7677,-1.7003,1.3968,-0.0086,-0.0073,0.0006,0.9999,0.2440,-0.0420,0.0371
451,Left,0,0.1996,0.0157,-0.9703,-0.1357,0.0018,0.0171,-0.0000,-0.0227,0.0146,-0.0505,-3.7134,-0.8335,8.9898,0.0000,0.0002,-0.0000,1.0000,-0.0928,-0.0208,0.2248
451,Right,0,0.1571,-0.1601,-0.8937,-0.3886,0.0208,0.0110,0.0085,0.0324,0.0301,-0.0733,-3.9475,1.5512,8.7675,0.0003,0.0001,0.0001,1.0000,-0.0987,0.0387,0.2192
451,Pelvis,0,0.4113,-0.5879,0.4820,0.5029,-0.1282,-0.7074,0.0121,0.4522,-0.2586,0.0472,9.6697,-1.9969,-0.0359,-0.0016,-0.0088,0.0002,1.0000,0.2417,-0.0499,0.0013
452,Left,0,0.1998,0.0156,-0.9703,-0.1357,-0.0000,0.0183,0.0006,-0.0015,0.0087,-0.0520,-3.7369,-0.8334,8.9784,-0.0000,0.0002,0.0000,1.0000,-0.0934,-0.0208,0.2245
452,Right,0,0.1571,-0.1603,-0.8937,-0.3885,0.0202,0.0055,0.0079,0.0215,0.0212,-0.0933,-3.9391,1.5661,8.7463,0.0003,0.0001,0.0001,1.0000,-0.0985,0.0391,0.2187
452,Pelvis,0,0.4147,-0.5889,0.4823,0.4986,0.0823,-0.4264,0.0012,0.0468,-0.8717,0.0386,9.7225,-1.7340,0.5274,0.0010,-0.0053,0.0000,1.0000,0.2430,-0.0434,0.0144
453,Left,0,0.2000,0.0156,-0.9702,-0.1357,-0.0037,0.0165,-0.0006,0.0134,-0.0058,-0.0453,-3.7604,-0.8241,8.9767,-0.0000,0.0002,-0.0000,1.0000,-0.0940,-0.0206,0.2244
453,Right,0,0.1570,-0.1604,-0.8937,-0.3885,0.0147,-0.0006,0.0079,0.0247,0.0346,-0.0773,-3.9394,1.5610,8.7649,0.0002,-0.0000,0.0001,1.0000,-0.0985,0.0390,0.2191
453,Pelvis,0,0.4167,-0.5864,0.4856,0.4966,0.0711,-0.0830,-0.0136,-0.1816,-0.6423,0.1946,9.9116,-1.4990,0.3221,0.0009,-0.0010,-0.0002,1.0000,0.2478,-0.0375,0.0083
454,Left,0,0.2002,0.0156,-0.9702,-0.1358,-0.0043,0.0152,-0.0037,0.0140,0.0137,-0.0347,-3.7639,-0.8447,8.9850,-0.0001,0.0002,-0.0000,1.0000,-0.0941,-0.0211,0.2246
454,Right,0,0.1570,-0.1605,-0.8937,-0.3885,0.0140,0.0006,0.0073,0.0355,0.0282,-0.1052,-3.9392,1.5550,8.7351,0.0002,0.0000,0.0001,1.0000,-0.0985,0.0388,0.2184
454,Pelvis,0,0.4186,-0.5832,0.4893,0.4952,-0.0410,-0.0103,-0.0139,-0.2478,-0.5716,-0.0320,9.6973,-1.3848,0.3068,-0.0005,-0.0001,-0.0002,1.0000,0.2424,-0.0347,0.0077
455,Left,0,0.2003,0.0157,-0.9702,-0.1358,-0.0031,0.0091,-0.0037,0.0162,0.0033,-0.0445,-3.7665,-0.8361,8.9740,-0.0000,0.0001,-0.0000,1.0000,-0.0941,-0.0209,0.2244
455,Right,0,0.1569,-0.1606,-0.8937,-0.3884,0.0159,-0.0012,0.0104,0.0299,0.0389,-0.0788,-3.9387,1.5593,8.7639,0.0002,-0.0000,0.0001,1.0000,-0.0985,0.0389,0.2191
455,Pelvis,0,0.4205,-0.5793,0.4934,0.4941,-0.1208,0.0481,-0.0142,-0.2525,-0.8089,0.1102,9.8380,-1.4322,0.5882,-0.0015,0.0006,-0.0002,1.0000,0.2460,-0.0358,0.0146
456,Left,0,0.2004,0.0158,-0.9701,-0.1359,-0.0055,0.0104,-0.0061,-0.0080,0.0066,-0.0123,-3.7589,-0.8374,9.0120,-0.0001,0.0001,-0.0001,1.0000,-0.0939,-0.0209,0.2253
456,Right,0,0.1568,-0.1609,-0.8937,-0.3883,0.0220,0.0024,0.0122,0.0426,0.0380,-0.0764,-3.9482,1.5548,8.7632,0.0003,0.0000,0.0002,1.0000,-0.0987,0.0388,0.2191
456,Pelvis,0,0.4224,-0.5739,0.4987,0.4934,-0.1415,0.1120,-0.0209,-0.1227,-0.6517,0.1724,9.8771,-1.5302,0.4946,-0.0018,0.0014,-0.0003,1.0000,0.2469,-0.0383,0.0121
457,Left,0,0.2007,0.0160,-0.9701,-0.1359,-0.0092,0.0177,-0.0092,-0.0166,0.0218,-0.0586,-3.7325,-0.8496,8.9716,-0.0001,0.0002,-0.0001,1.0000,-0.0933,-0.0212,0.2243
457,Right,0,0.1567,-0.1611,-0.8937,-0.3882,0.0238,0.0042,0.0110,0.0403,0.0408,-0.0676,-3.9485,1.5611,8.7717,0.0003,0.0001,0.0001,1.0000,-0.0987,0.0389,0.2193
457,Pelvis,0,0.4241,-0.5682,0.5041,0.4930,-0.1742,0.1534,-0.0309,-0.0071,-0.6500,0.0476,9.7332,-1.6067,0.5752,-0.0022,0.0019,-0.0004,1.0000,0.2433,-0.0402,0.0140
458,Left,0,0.2009,0.0160,-0.9700,-0.1360,-0.0061,0.0165,-0.0067,0.0089,0.0351,-0.0584,-3.7556,-0.8716,8.9601,-0.0001,0.0002,-0.0001,1.0000,-0.0938,-0.0218,0.2240
458,Pelvis,0,0.4260,-0.5626,0.5096,0.4923,-0.2081,0.1440,-0.0379,0.0357,-0.6820,-0.0738,9.6023,-1.6174,0.7004,-0.0026,0.0018,-0.0005,1.0000,0.2401,-0.0405,0.0172
459,Left,0,0.2009,0.0161,-0.9700,-0.1361,-0.0000,0.0104,-0.0067,0.0040,0.0245,-0.0503,-3.7585,-0.8632,8.9685,-0.0000,0.0001,-0.0001,1.0000,-0.0939,-0.0216,0.2242
459,Pelvis,0,0.4277,-0.5572,0.5145,0.4918,-0.2315,0.1448,-0.0420,0.0817,-0.6179,-0.0272,9.6401,-1.6411,0.7209,-0.0029,0.0018,-0.0005,1.0000,0.2410,-0.0411,0.0177
460,Left,0,0.2010,0.0161,-0.9700,-0.1361,0.0037,0.0079,-0.0049,0.0159,0.0068,-0.0130,-3.7899,-0.8535,8.9969,0.0000,0.0001,-0.0001,1.0000,-0.0947,-0.0213,0.2249
460,Right,0,0.1566,-0.1619,-0.8937,-0.3880,0.0236,0.0034,0.0114,0.0310,0.0428,-0.0846,-3.9362,1.5735,8.7561,0.0009,0.0001,0.0004,1.0000,-0.2952,0.1173,0.6569
460,Pelvis,0,0.4290,-0.5520,0.5195,0.4914,-0.2513,0.1750,-0.0473,0.0938,-0.4507,0.0546,9.7203,-1.6356,0.6459,-0.0031,0.0022,-0.0006,1.0000,0.2430,-0.0410,0.0157
461,Left,0,0.2011,0.0161,-0.9699,-0.1361,0.0061,0.0031,-0.0030,0.0245,-0.0067,-0.0190,-3.8008,-0.8431,8.9866,0.0001,0.0000,-0.0000,1.0000,-0.0950,-0.0211,0.2247
461,Right,0,0.1566,-0.1619,-0.8938,-0.3879,0.0257,0.0043,0.0152,0.0268,0.0545,-0.0770,-3.9304,1.5768,8.7666,0.0003,0.0001,0.0002,1.0000,-0.0983,0.0393,0.2192
461,Pelvis,0,0.4299,-0.5472,0.5244,0.4907,-0.2493,0.1944,-0.0434,0.2296,-0.3258,0.0790,9.7239,-1.7580,0.5987,-0.0031,0.0024,-0.0005,1.0000,0.2431,-0.0440,0.0145
462,Left,0,0.2010,0.0161,-0.9699,-0.1362,0.0079,-0.0006,-0.0061,-0.0008,0.0005,-0.0303,-3.7717,-0.8419,8.9867,0.0001,-0.0000,-0.0001,1.0000,-0.0943,-0.0211,0.2247
462,Right,0,0.1565,-0.1622,-0.8938,-0.3878,0.0263,0.0067,0.0158,0.0198,0.0306,-0.0788,-3.9406,1.6035,8.7551,0.0003,0.0001,0.0002,1.0000,-0.0985,0.0400,0.2189
462,Pelvis,0,0.4315,-0.5425,0.5291,0.4894,-0.2205,0.1714,-0.0374,0.3924,-0.2856,0.0052,9.6248,-1.8977,0.6232,-0.0028,0.0021,-0.0005,1.0000,0.2406,-0.0475,0.0152
463,Right,0,0.1564,-0.1625,-0.8939,-0.3875,0.0244,0.0037,0.0177,0.0291,0.0441,-0.0946,-3.9314,1.5910,8.7440,0.0003,0.0000,0.0002,1.0000,-0.0983,0.0397,0.2186
463,Pelvis,0,0.4348,-0.5369,0.5351,0.4862,-0.1909,0.1634,-0.0258,0.3734,-0.1969,-0.0718,9.5524,-1.8581,0.6023,-0.0024,0.0020,-0.0003,1.0000,0.2388,-0.0465,0.0147
464,Right,0,0.1564,-0.1627,-0.8939,-0.3873,0.0232,0.0024,0.0171,0.0049,0.0403,-0.0867,-3.9215,1.6175,8.7523,0.0003,0.0000,0.0002,1.0000,-0.0980,0.0404,0.2188
464,Pelvis,0,0.4362,-0.5327,0.5403,0.4838,-0.1742,0.1495,-0.0178,0.3341,-0.0521,-0.0953,9.5361,-1.8242,0.5273,-0.0022,0.0019,-0.0002,1.0000,0.2384,-0.0456,0.0128
465,Left,0,0.2007,0.0159,-0.9700,-0.1363,0.0106,-0.0059,-0.0040,-0.0028,0.0180,-0.0428,-3.7563,-0.8545,8.9783,0.0004,-0.0002,-0.0002,1.0000,-0.2819,-0.0643,0.6733
465,Right,0,0.1565,-0.1629,-0.8940,-0.3871,0.0275,0.0110,0.0140,0.0196,0.0433,-0.1073,-3.9225,1.6048,8.7313,0.0003,0.0001,0.0002,1.0000,-0.0980,0.0400,0.2183
465,Pelvis,0,0.4365,-0.5300,0.5435,0.4828,-0.1538,0.1317,-0.0065,0.2118,0.0172,-0.0971,9.5521,-1.7110,0.5166,-0.0019,0.0016,-0.0001,1.0000,0.2388,-0.0428,0.0126
466,Left,0,0.2006,0.0159,-0.9700,-0.1362,0.0092,-0.0024,-0.0024,0.0096,0.0150,-0.0375,-3.7669,-0.8539,8.9797,0.0001,-0.0000,-0.0000,1.0000,-0.0942,-0.0214,0.2245
466,Right,0,0.1565,-0.1632,-0.8940,-0.3869,0.0275,0.0134,0.0146,0.0305,0.0460,-0.0960,-3.9344,1.6026,8.7389,0.0003,0.0002,0.0002,1.0000,-0.0983,0.0400,0.2185
467,Left,0,0.2005,0.0158,-0.9700,-0.1363,0.0098,-0.0006,-0.0024,-0.0074,0.0293,-0.0352,-3.7470,-0.8617,8.9899,0.0001,-0.0000,-0.0000,1.0000,-0.0937,-0.0216,0.2247
467,Right,0,0.1563,-0.1635,-0.8939,-0.3869,0.0220,0.0079,0.0116,0.0249,0.0392,-0.0945,-3.9361,1.6191,8.7367,0.0003,0.0001,0.0001,1.0000,-0.0984,0.0404,0.2184
467,Pelvis,0,0.4378,-0.5267,0.5469,0.4814,-0.1151,0.0756,-0.0132,0.2220,-0.0242,-0.1333,9.5095,-1.7170,0.6021,-0.0029,0.0019,-0.0003,1.0000,0.4755,-0.0859,0.0295
468,Left,0,0.2005,0.0159,-0.9701,-0.1362,0.0116,-0.0018,-0.0012,-0.0109,0.0174,-0.0360,-3.7467,-0.8497,8.9902,0.0001,-0.0000,-0.0000,1.0000,-0.0937,-0.0213,0.2247
468,Right,0,0.1563,-0.1637,-0.8940,-0.3868,0.0177,0.0043,0.0122,0.0420,0.0480,-0.0848,-3.9469,1.6053,8.7453,0.0002,0.0001,0.0002,1.0000,-0.0987,0.0401,0.2186
468,Pelvis,0,0.4397,-0.5235,0.5508,0.4787,-0.0869,0.0348,-0.0303,0.2268,-0.0181,-0.1913,9.4466,-1.7252,0.6380,-0.0011,0.0004,-0.0004,1.0000,0.2362,-0.0432,0.0159
469,Left,0,0.2006,0.0158,-0.9700,-0.1362,0.0098,0.0018,-0.0018,-0.0161,0.0166,-0.0271,-3.7467,-0.8474,9.0002,0.0001,0.0000,-0.0000,1.0000,-0.0937,-0.0212,0.2250
469,Right,0,0.1564,-0.1638,-0.8940,-0.3867,0.0189,0.0025,0.0146,0.0508,0.0799,-0.0757,-3.9377,1.5815,8.7642,0.0002,0.0000,0.0002,1.0000,-0.0984,0.0395,0.2191
469,Pelvis,0,0.4394,-0.5230,0.5513,0.4790,-0.0552,0.0431,-0.0341,0.1370,-0.0000,-0.0465,9.6034,-1.6596,0.6457,-0.0007,0.0005,-0.0004,1.0000,0.2401,-0.0416,0.0160
470,Left,0,0.2007,0.0159,-0.9700,-0.1362,0.0067,0.0067,-0.0037,-0.0074,0.0239,-0.0441,-3.7475,-0.8556,8.9805,0.0001,0.0001,-0.0000,1.0000,-0.0937,-0.0214,0.2245
470,Right,0,0.1564,-0.1639,-0.8941,-0.3864,0.0226,0.0043,0.0183,0.0445,0.0403,-0.0592,-3.9668,1.6173,8.7626,0.0003,0.0001,0.0002,1.0000,-0.0992,0.0403,0.2191
470,Pelvis,0,0.4393,-0.5225,0.5519,0.4790,-0.0318,0.0280,-0.0282,0.1301,0.1455,0.0284,9.6873,-1.6649,0.5196,-0.0004,0.0004,-0.0004,1.0000,0.2422,-0.0417,0.0129
471,Left,0,0.2007,0.0159,-0.9700,-0.1361,0.0049,0.0086,0.0006,-0.0189,0.0254,-0.0389,-3.7395,-0.8544,8.9897,0.0001,0.0001,0.0000,1.0000,-0.0935,-0.0214,0.2248
471,Right,0,0.1563,-0.1642,-0.8940,-0.3864,0.0183,0.0012,0.0153,0.0260,0.0293,-0.0690,-3.9567,1.6427,8.7514,0.0002,0.0000,0.0002,1.0000,-0.0989,0.0410,0.2188
471,Pelvis,0,0.4394,-0.5223,0.5521,0.4789,0.0020,-0.0110,-0.0283,0.2023,0.1161,-0.0741,9.5725,-1.7211,0.5468,0.0000,-0.0001,-0.0004,1.0000,0.2393,-0.0431,0.0137
472,Left,0,0.2007,0.0158,-0.9700,-0.1360,0.0073,0.0104,0.0006,-0.0032,0.0115,-0.0540,-3.7514,-0.8433,8.9693,0.0001,0.0001,0.0000,1.0000,-0.0938,-0.0211,0.2242
472,Right,0,0.1562,-0.1642,-0.8941,-0.3863,0.0134,-0.0018,0.0116,0.0505,0.0392,-0.0911,-3.9564,1.6179,8.7318,0.0002,-0.0000,0.0001,1.0000,-0.0989,0.0404,0.2183
472,Pelvis,0,0.4399,-0.5222,0.5523,0.4783,0.0382,-0.0406,-0.0235,0.1445,0.1161,-0.1319,9.5246,-1.6557,0.5412,0.0005,-0.0005,-0.0003,1.0000,0.2381,-0.0415,0.0136
473,Left,0,0.2008,0.0159,-0.9700,-0.1358,0.0067,0.0110,0.0006,-0.0107,0.0193,-0.0262,-3.7538,-0.8513,8.9978,0.0001,0.0001,0.0000,1.0000,-0.0938,-0.0213,0.2250
473,Right,0,0.1561,-0.1643,-0.8942,-0.3861,0.0122,-0.0024,0.0116,0.0285,0.0479,-0.0887,-3.9358,1.6315,8.7411,0.0002,-0.0000,0.0001,1.0000,-0.0984,0.0407,0.2185
473,Pelvis,0,0.4409,-0.5219,0.5527,0.4773,0.0726,-0.0620,-0.0219,0.1733,0.0989,-0.1537,9.4979,-1.6813,0.5480,0.0009,-0.0008,-0.0003,1.0000,0.2374,-0.0421,0.0138
474,Left,0,0.2008,0.0158,-0.9701,-0.1357,0.0110,0.0098,0.0024,-0.0142,0.0200,-0.0389,-3.7464,-0.8492,8.9873,0.0001,0.0001,0.0000,1.0000,-0.0936,-0.0213,0.2247
474,Right,0,0.1560,-0.1643,-0.8943,-0.3859,0.0122,0.0006,0.0092,0.0282,0.0590,-0.0942,-3.9256,1.6253,8.7408,0.0002,0.0000,0.0001,1.0000,-0.0981,0.0406,0.2185
474,Pelvis,0,0.4420,-0.5217,0.5531,0.4760,0.1175,-0.0851,-0.0120,0.1948,0.1288,-0.1022,9.5477,-1.7119,0.5083,0.0015,-0.0011,-0.0002,1.0000,0.2387,-0.0429,0.0129
475,Left,0,0.2007,0.0159,-0.9701,-0.1354,0.0110,0.0055,0.0031,0.0069,0.0021,-0.0413,-3.7677,-0.8369,8.9769,0.0001,0.0001,0.0000,1.0000,-0.0942,-0.0210,0.2244
475,Right,0,0.1560,-0.1644,-0.8944,-0.3855,0.0110,0.0043,0.0103,0.0406,0.0610,-0.0829,-3.9356,1.6194,8.7500,0.0001,0.0001,0.0001,1.0000,-0.0984,0.0404,0.2188
475,Pelvis,0,0.4437,-0.5213,0.5538,0.4740,0.1699,-0.1128,0.0041,0.1994,0.1362,-0.0512,9.5980,-1.7280,0.4864,0.0021,-0.0014,0.0001,1.0000,0.2399,-0.0432,0.0124
476,Left,0,0.2007,0.0158,-0.9701,-0.1354,0.0091,0.0055,0.0037,-0.0025,0.0141,-0.0351,-3.7592,-0.8440,8.9865,0.0001,0.0001,0.0000,1.0000,-0.0940,-0.0211,0.2247
476,Right,0,0.1561,-0.1644,-0.8945,-0.3854,0.0104,0.0019,0.0110,0.0482,0.0511,-0.0661,-3.9554,1.6231,8.7590,0.0001,0.0000,0.0001,1.0000,-0.0989,0.0405,0.2190
476,Pelvis,0,0.4455,-0.5210,0.5546,0.4717,0.2279,-0.1388,0.0220,0.1535,0.1472,0.0006,9.6569,-1.6980,0.4558,0.0028,-0.0017,0.0003,1.0000,0.2414,-0.0424,0.0117
477,Left,0,0.2007,0.0156,-0.9701,-0.1355,0.0085,0.0019,0.0031,0.0122,0.0206,-0.0395,-3.7698,-0.8515,8.9766,0.0001,0.0000,0.0000,1.0000,-0.0942,-0.0213,0.2244
477,Right,0,0.1561,-0.1644,-0.8944,-0.3855,0.0085,-0.0018,0.0080,0.0224,0.0552,-0.0941,-3.9256,1.6352,8.7390,0.0001,-0.0000,0.0001,1.0000,-0.0981,0.0408,0.2185
477,Pelvis,0,0.4479,-0.5204,0.5557,0.4688,0.2801,-0.1599,0.0312,0.1000,0.0870,-0.0308,9.6305,-1.6490,0.4869,0.0035,-0.0020,0.0004,1.0000,0.2408,-0.0412,0.0125
478,Left,0,0.2007,0.0157,-0.9701,-0.1354,0.0098,0.0000,0.0006,-0.0104,0.0046,-0.0487,-3.7506,-0.8297,8.9766,0.0001,0.0000,0.0000,1.0000,-0.0938,-0.0208,0.2244
478,Right,0,0.1561,-0.1643,-0.8944,-0.3855,0.0036,-0.0024,0.0055,0.0146,0.0436,-0.1014,-3.9247,1.6468,8.7290,0.0000,-0.0000,0.0001,1.0000,-0.0981,0.0412,0.2182
478,Pelvis,0,0.4504,-0.5197,0.5571,0.4655,0.3212,-0.1719,0.0386,0.0072,0.0838,-0.0455,9.6303,-1.5654,0.4587,0.0040,-0.0021,0.0005,1.0000,0.2408,-0.0391,0.0118
479,Left,0,0.2006,0.0156,-0.9702,-0.1353,0.0079,-0.0006,0.0012,0.0006,0.0206,-0.0343,-3.7603,-0.8471,8.9867,0.0001,-0.0000,0.0000,1.0000,-0.0940,-0.0212,0.2247
479,Right,0,0.1561,-0.1643,-0.8944,-0.3855,0.0012,-0.0024,0.0019,0.0403,0.0427,-0.0964,-3.9438,1.6284,8.7295,0.0000,-0.0000,0.0000,1.0000,-0.0986,0.0407,0.2182
479,Pelvis,0,0.4533,-0.5187,0.5586,0.4620,0.3474,-0.1750,0.0402,-0.1674,0.0837,-0.0449,9.6588,-1.4039,0.4247,0.0043,-0.0022,0.0005,1.0000,0.2415,-0.0350,0.0110
480,Left,0,0.2006,0.0158,-0.9702,-0.1351,0.0079,-0.0018,-0.0006,-0.0003,-0.0049,-0.0233,-3.7699,-0.8257,8.9966,0.0001,-0.0000,-0.0000,1.0000,-0.0943,-0.0207,0.2249
480,Right,0,0.1562,-0.1641,-0.8946,-0.3852,-0.0013,-0.0049,0.0025,0.0441,0.0508,-0.0891,-3.9430,1.6190,8.7398,-0.0000,-0.0001,0.0000,1.0000,-0.0986,0.0405,0.2185
480,Pelvis,0,0.4562,-0.5176,0.5601,0.4586,0.3501,-0.1711,0.0323,-0.3347,0.0525,-0.0600,9.6699,-1.2445,0.4185,0.0044,-0.0021,0.0004,1.0000,0.2417,-0.0311,0.0108
481,Left,0,0.2006,0.0157,-0.9702,-0.1352,0.0067,0.0006,-0.0018,-0.0073,0.0285,-0.0371,-3.7501,-0.8535,8.9873,0.0001,0.0000,-0.0000,1.0000,-0.0938,-0.0214,0.2247
481,Right,0,0.1563,-0.1639,-0.8945,-0.3854,-0.0019,-0.0061,0.0013,0.0525,0.0541,-0.0778,-3.9517,1.6094,8.7503,-0.0000,-0.0001,0.0000,1.0000,-0.0988,0.0402,0.2187
481,Pelvis,0,0.4589,-0.5166,0.5613,0.4556,0.3363,-0.1633,0.0209,-0.3802,0.0043,-0.0026,9.7326,-1.2121,0.4364,0.0042,-0.0020,0.0003,1.0000,0.2433,-0.0303,0.0113
482,Left,0,0.2006,0.0157,-0.9702,-0.1352,0.0055,0.0024,-0.0024,-0.0083,0.0080,-0.0478,-3.7504,-0.8329,8.9774,0.0001,0.0000,-0.0000,1.0000,-0.0938,-0.0208,0.2244
482,Right,0,0.1562,-0.1638,-0.8945,-0.3854,-0.0056,-0.0103,0.0019,0.0371,0.0532,-0.0803,-3.9399,1.6184,8.7511,-0.0001,-0.0001,0.0000,1.0000,-0.0985,0.0405,0.2188
482,Pelvis,0,0.4617,-0.5152,0.5626,0.4526,0.3100,-0.1439,0.0066,-0.3239,-0.0619,0.0641,9.7879,-1.2758,0.4790,0.0039,-0.0018,0.0001,1.0000,0.2447,-0.0319,0.0123
483,Left,0,0.2008,0.0155,-0.9701,-0.1356,0.0031,0.0030,-0.0049,-0.0053,0.0293,-0.0461,-3.7509,-0.8518,8.9773,0.0000,0.0000,-0.0001,1.0000,-0.0938,-0.0213,0.2244
483,Right,0,0.1564,-0.1635,-0.8945,-0.3856,-0.0074,-0.0128,0.0001,0.0348,0.0743,-0.1000,-3.9181,1.5971,8.7431,-0.0001,-0.0002,0.0000,1.0000,-0.0980,0.0399,0.2186
483,Pelvis,0,0.4644,-0.5139,0.5636,0.4501,0.2784,-0.1301,-0.0053,-0.2951,-0.0935,0.0325,9.7526,-1.2939,0.4858,0.0035,-0.0016,-0.0001,1.0000,0.2438,-0.0324,0.0124
484,Left,0,0.2008,0.0155,-0.9701,-0.1356,0.0067,0.0043,-0.0037,-0.0018,0.0280,-0.0551,-3.7516,-0.8512,8.9673,0.0001,0.0001,-0.0000,1.0000,-0.0938,-0.0213,0.2242
484,Right,0,0.1563,-0.1634,-0.8944,-0.3859,-0.0074,-0.0128,0.0001,0.0432,0.0691,-0.0744,-3.9348,1.5961,8.7642,-0.0001,-0.0002,0.0000,1.0000,-0.0984,0.0399,0.2191
484,Pelvis,0,0.4667,-0.5129,0.5643,0.4481,0.2271,-0.1242,-0.0184,-0.3836,-0.1898,-0.0223,9.7122,-1.1852,0.5504,0.0028,-0.0016,-0.0002,1.0000,0.2428,-0.0297,0.0141
485,Left,0,0.2009,0.0155,-0.9700,-0.1357,0.0031,0.0037,-0.0024,-0.0104,0.0208,-0.0687,-3.7426,-0.8406,8.9573,0.0000,0.0000,-0.0000,1.0000,-0.0936,-0.0210,0.2239
485,Right,0,0.1564,-0.1631,-0.8945,-0.3858,-0.0043,-0.0097,0.0001,0.0322,0.0816,-0.1142,-3.9032,1.5842,8.7364,-0.0001,-0.0001,0.0000,1.0000,-0.0976,0.0396,0.2184
485,Pelvis,0,0.4686,-0.5123,0.5644,0.4465,0.1627,-0.1241,-0.0250,-0.4061,-0.3475,0.0007,9.7370,-1.1462,0.6828,0.0020,-0.0016,-0.0003,1.0000,0.2434,-0.0288,0.0174
486,Right,0,0.1564,-0.1630,-0.8945,-0.3859,-0.0013,-0.0061,0.0007,0.0460,0.0823,-0.0901,-3.9211,1.5744,8.7569,-0.0000,-0.0001,0.0000,1.0000,-0.0980,0.0394,0.2189
486,Pelvis,0,0.4702,-0.5119,0.5644,0.4454,0.0850,-0.1051,-0.0268,-0.3293,-0.4689,0.0668,9.7898,-1.2125,0.7880,0.0011,-0.0013,-0.0003,1.0000,0.2447,-0.0304,0.0200
487,Left,0,0.2010,0.0154,-0.9700,-0.1358,0.0046,0.0046,-0.0034,-0.0077,0.0269,-0.0307,-3.7587,-0.8492,8.9910,0.0001,0.0001,-0.0001,1.0000,-0.1879,-0.0425,0.4496
487,Right,0,0.1562,-0.1629,-0.8946,-0.3857,-0.0000,-0.0061,0.0031,0.0528,0.0784,-0.0773,-3.9294,1.5748,8.7673,-0.0000,-0.0001,0.0000,1.0000,-0.0983,0.0394,0.2192
487,Pelvis,0,0.4714,-0.5114,0.5643,0.4448,0.0250,-0.0604,-0.0306,-0.0586,-0.3268,0.0878,9.7729,-1.4824,0.6502,0.0003,-0.0008,-0.0004,1.0000,0.2443,-0.0372,0.0164
488,Left,0,0.2010,0.0154,-0.9700,-0.1359,0.0030,0.0061,-0.0043,0.0011,0.0146,-0.0432,-3.7652,-0.8388,8.9757,0.0000,0.0001,-0.0001,1.0000,-0.0941,-0.0210,0.2244
488,Right,0,0.1562,-0.1629,-0.8946,-0.3857,0.0043,-0.0031,0.0019,0.0361,0.0813,-0.0710,-3.9184,1.5853,8.7773,0.0001,-0.0000,0.0000,1.0000,-0.0980,0.0396,0.2194
488,Pelvis,0,0.4720,-0.5109,0.5643,0.4447,0.0022,-0.0194,-0.0329,0.0324,-0.1433,0.2630,9.9371,-1.6037,0.4737,0.0000,-0.0002,-0.0004,1.0000,0.2484,-0.0402,0.0119
489,Left,0,0.2013,0.0154,-0.9699,-0.1360,0.0018,0.0085,-0.0043,-0.0115,0.0142,-0.0253,-3.7668,-0.8385,8.9946,0.0000,0.0001,-0.0001,1.0000,-0.0941,-0.0210,0.2249
489,Right,0,0.1565,-0.1628,-0.8945,-0.3857,0.0122,-0.0000,0.0049,0.0444,0.1058,-0.0794,-3.9085,1.5580,8.7776,0.0002,-0.0000,0.0001,1.0000,-0.0977,0.0389,0.2194
489,Pelvis,0,0.4723,-0.5102,0.5644,0.4451,-0.0012,0.0248,-0.0415,0.0856,-0.0666,0.2540,9.9229,-1.6499,0.4045,-0.0000,0.0003,-0.0005,1.0000,0.2481,-0.0414,0.0100
490,Left,0,0.2013,0.0154,-0.9699,-0.1361,0.0006,0.0079,-0.0049,-0.0080,0.0047,-0.0351,-3.7686,-0.8289,8.9840,0.0000,0.0001,-0.0001,1.0000,-0.0942,-0.0207,0.2246
490,Right,0,0.1565,-0.1629,-0.8946,-0.3856,0.0159,0.0018,0.0085,0.0483,0.0692,-0.0733,-3.9375,1.5815,8.7669,0.0002,0.0000,0.0001,1.0000,-0.0984,0.0395,0.2192
490,Pelvis,0,0.4736,-0.5084,0.5656,0.4442,0.0105,0.0357,-0.0387,0.0962,-0.0729,0.0173,9.6890,-1.6109,0.4142,0.0001,0.0004,-0.0005,1.0000,0.2422,-0.0404,0.0102
491,Left,0,0.2014,0.0154,-0.9699,-0.1361,0.0012,0.0061,-0.0049,-0.0211,0.0273,-0.0408,-3.7504,-0.8486,8.9836,0.0000,0.0001,-0.0001,1.0000,-0.0937,-0.0212,0.2246
491,Right,0,0.1566,-0.1629,-0.8946,-0.3855,0.0146,-0.0012,0.0085,0.0414,0.0664,-0.0948,-3.9275,1.5852,8.7467,0.0002,-0.0000,0.0001,1.0000,-0.0982,0.0396,0.2187
491,Pelvis,0,0.4740,-0.5074,0.5662,0.4441,0.0249,0.0355,-0.0296,0.0950,-0.1622,-0.0826,9.5895,-1.5773,0.5118,0.0003,0.0004,-0.0004,1.0000,0.2397,-0.0395,0.0127
492,Left,0,0.2015,0.0154,-0.9699,-0.1362,0.0018,0.0061,-0.0055,-0.0168,0.0269,-0.0498,-3.7516,-0.8489,8.9733,0.0000,0.0001,-0.0001,1.0000,-0.0938,-0.0212,0.2243
492,Right,0,0.1565,-0.1631,-0.8946,-0.3856,0.0122,-0.0012,0.0092,0.0167,0.0799,-0.0837,-3.9072,1.5988,8.7657,0.0002,-0.0000,0.0001,1.0000,-0.0977,0.0399,0.2191
492,Pelvis,0,0.4751,-0.5059,0.5673,0.4433,0.0343,0.0281,-0.0247,0.0383,-0.2115,-0.0472,9.6331,-1.5138,0.5685,0.0004,0.0004,-0.0003,1.0000,0.2408,-0.0379,0.0141
493,Left,0,0.2015,0.0155,-0.9699,-0.1361,0.0024,0.0043,-0.0031,-0.0148,0.0133,-0.0380,-3.7626,-0.8390,8.9825,0.0000,0.0001,-0.0000,1.0000,-0.0941,-0.0210,0.2246
493,Right,0,0.1566,-0.1630,-0.8946,-0.3855,0.0085,-0.0006,0.0067,0.0266,0.0660,-0.0757,-3.9262,1.6021,8.7653,0.0001,-0.0000,0.0001,1.0000,-0.0982,0.0400,0.2191
493,Pelvis,0,0.4757,-0.5050,0.5680,0.4429,0.0297,0.0115,-0.0199,-0.0569,-0.1881,-0.0261,9.6698,-1.4186,0.5459,0.0004,0.0001,-0.0002,1.0000,0.2417,-0.0355,0.0136
494,Left,0,0.2015,0.0157,-0.9699,-0.1360,0.0037,0.0049,-0.0043,0.0001,0.0170,-0.0423,-3.7732,-0.8485,8.9724,0.0000,0.0001,-0.0001,1.0000,-0.0943,-0.0212,0.2243
494,Right,0,0.1567,-0.1630,-0.8947,-0.3853,0.0085,-0.0012,0.0055,0.0193,0.0794,-0.0939,-3.9064,1.5944,8.7555,0.0001,-0.0000,0.0001,1.0000,-0.0977,0.0398,0.2189
494,Pelvis,0,0.4762,-0.5042,0.5684,0.4426,0.0128,0.0101,-0.0156,-0.1645,-0.1021,-0.0439,9.6715,-1.3123,0.4555,0.0002,0.0001,-0.0002,1.0000,0.2418,-0.0329,0.0114
495,Left,0,0.2015,0.0157,-0.9699,-0.1359,0.0061,0.0000,-0.0030,0.0003,0.0367,-0.0533,-3.7637,-0.8674,8.9627,0.0001,0.0000,-0.0000,1.0000,-0.0941,-0.0217,0.2241
495,Right,0,0.1567,-0.1629,-0.8947,-0.3852,0.0061,-0.0037,0.0055,0.0359,0.0884,-0.0840,-3.9157,1.5773,8.7656,0.0001,-0.0000,0.0001,1.0000,-0.0979,0.0394,0.2191
495,Pelvis,0,0.4773,-0.5030,0.5695,0.4414,-0.0170,0.0100,-0.0107,-0.1854,-0.0407,-0.0938,9.6271,-1.2870,0.3939,-0.0002,0.0001,-0.0001,1.0000,0.2407,-0.0322,0.0098
496,Left,0,0.2015,0.0157,-0.9699,-0.1359,0.0079,0.0000,-0.0018,-0.0114,0.0383,-0.0480,-3.7540,-0.8659,8.9727,0.0001,0.0000,-0.0000,1.0000,-0.0939,-0.0217,0.2243
496,Right,0,0.1566,-0.1629,-0.8947,-0.3853,0.0079,-0.0043,0.0061,0.0367,0.0836,-0.0928,-3.9146,1.5793,8.7559,0.0001,-0.0001,0.0001,1.0000,-0.0979,0.0395,0.2189
496,Pelvis,0,0.4774,-0.5029,0.5694,0.4415,-0.0359,-0.0078,-0.0121,-0.0877,-0.0421,-0.0667,9.6392,-1.3828,0.4076,-0.0004,-0.0001,-0.0002,1.0000,0.2410,-0.0346,0.0102
497,Left,0,0.2014,0.0157,-0.9699,-0.1359,0.0079,0.0018,-0.0043,-0.0238,0.0179,-0.0318,-3.7543,-0.8447,8.9921,0.0001,0.0000,-0.0001,1.0000,-0.0939,-0.0211,0.2248
497,Right,0,0.1566,-0.1629,-0.8948,-0.3852,0.0067,-0.0067,0.0068,0.0481,0.0823,-0.0903,-3.9230,1.5719,8.7564,0.0001,-0.0001,0.0001,1.0000,-0.0981,0.0393,0.2189
497,Pelvis,0,0.4779,-0.5025,0.5696,0.4412,-0.0441,-0.0034,-0.0166,-0.0307,-0.0840,-0.0024,9.6936,-1.4405,0.4565,-0.0006,-0.0000,-0.0002,1.0000,0.2423,-0.0361,0.0114
498,Left,0,0.2016,0.0158,-0.9699,-0.1359,0.0037,0.0091,-0.0037,-0.0249,-0.0054,-0.0209,-3.7654,-0.8242,9.0012,0.0000,0.0001,-0.0000,1.0000,-0.0941,-0.0206,0.2250
498,Right,0,0.1566,-0.1628,-0.8948,-0.3850,0.0085,-0.0055,0.0074,0.0219,0.0949,-0.0792,-3.9017,1.5841,8.7760,0.0001,-0.0001,0.0001,1.0000,-0.0976,0.0396,0.2194
498,Pelvis,0,0.4770,-0.5032,0.5686,0.4427,-0.0543,0.0138,-0.0255,0.0021,-0.0900,0.1237,9.8138,-1.4850,0.4732,-0.0007,0.0002,-0.0003,1.0000,0.2453,-0.0372,0.0118
499,Left,0,0.2017,0.0157,-0.9698,-0.1360,0.0006,0.0122,-0.0043,-0.0064,0.0323,-0.0353,-3.7674,-0.8633,8.9811,0.0000,0.0002,-0.0001,1.0000,-0.0942,-0.0216,0.2245
499,Right,0,0.1566,-0.1629,-0.8948,-0.3850,0.0134,-0.0000,0.0067,0.0114,0.1043,-0.0744,-3.8910,1.5872,8.7856,0.0002,-0.0000,0.0001,1.0000,-0.0973,0.0396,0.2196
499,Pelvis,0,0.4770,-0.5027,0.5687,0.4431,-0.0571,0.0299,-0.0336,0.0110,-0.1122,0.1577,9.8463,-1.4892,0.5028,-0.0007,0.0004,-0.0004,1.0000,0.2461,-0.0373,0.0125
500,Left,0,0.2018,0.0159,-0.9698,-0.1359,0.0018,0.0067,-0.0049,-0.0057,0.0206,-0.0451,-3.7694,-0.8538,8.9704,0.0000,0.0001,-0.0001,1.0000,-0.0942,-0.0213,0.2243
500,Right,0,0.1567,-0.1630,-0.8949,-0.3849,0.0159,0.0036,0.0091,0.0229,0.0938,-0.1110,-3.8913,1.5807,8.7460,0.0002,0.0000,0.0001,1.0000,-0.0973,0.0395,0.2187
500,Pelvis,0,0.4769,-0.5025,0.5686,0.4437,-0.0491,0.0317,-0.0308,0.0646,-0.1542,-0.0078,9.6745,-1.5048,0.5510,-0.0006,0.0004,-0.0004,1.0000,0.2419,-0.0377,0.0137
501,Left,0,0.2019,0.0158,-0.9698,-0.1360,0.0043,0.0000,-0.0012,-0.0104,0.0108,-0.0460,-3.7701,-0.8437,8.9700,0.0001,0.0000,-0.0000,1.0000,-0.0943,-0.0211,0.2243
501,Right,0,0.1569,-0.1630,-0.8948,-0.3848,0.0147,0.0030,0.0055,0.0224,0.0738,-0.1015,-3.9112,1.5948,8.7448,0.0002,0.0000,0.0001,1.0000,-0.0978,0.0398,0.2186
501,Pelvis,0,0.4771,-0.5021,0.5687,0.4437,-0.0241,0.0150,-0.0188,0.1721,-0.1072,-0.1537,9.5161,-1.5865,0.5149,-0.0003,0.0002,-0.0002,1.0000,0.2379,-0.0397,0.0128
502,Left,0,0.2019,0.0158,-0.9698,-0.1361,0.0055,-0.0018,-0.0024,-0.0283,0.0136,-0.0318,-3.7602,-0.8425,8.9898,0.0001,-0.0000,-0.0000,1.0000,-0.0940,-0.0211,0.2247
502,Right,0,0.1569,-0.1631,-0.8947,-0.3850,0.0110,-0.0000,0.0067,0.0323,0.0899,-0.0956,-3.9115,1.5788,8.7544,0.0001,-0.0000,0.0001,1.0000,-0.0978,0.0394,0.2189
502,Pelvis,0,0.4770,-0.5019,0.5688,0.4439,0.0008,0.0088,-0.0090,0.1991,-0.0583,-0.0543,9.6118,-1.6295,0.4778,0.0000,0.0001,-0.0001,1.0000,0.2403,-0.0408,0.0119
503,Left,0,0.2018,0.0157,-0.9698,-0.1362,0.0025,0.0012,-0.0043,-0.0037,0.0085,-0.0333,-3.7796,-0.8421,8.9801,0.0000,0.0000,-0.0001,1.0000,-0.0945,-0.0211,0.2245
503,Right,0,0.1569,-0.1631,-0.8948,-0.3849,0.0128,-0.0006,0.0085,0.0245,0.0881,-0.0637,-3.9207,1.5927,8.7830,0.0002,-0.0000,0.0001,1.0000,-0.0980,0.0398,0.2196
503,Pelvis,0,0.4774,-0.5012,0.5694,0.4435,0.0096,0.0184,-0.0012,0.1090,-0.0181,0.1052,9.7842,-1.5661,0.4409,0.0001,0.0002,-0.0000,1.0000,0.2446,-0.0392,0.0110
504,Left,0,0.2017,0.0157,-0.9698,-0.1363,0.0012,0.0030,-0.0055,-0.0158,0.0227,-0.0399,-3.7604,-0.8518,8.9801,0.0000,0.0000,-0.0001,1.0000,-0.0940,-0.0213,0.2245
504,Right,0,0.1568,-0.1634,-0.8947,-0.3851,0.0128,0.0012,0.0085,0.0308,0.0887,-0.0956,-3.9109,1.5858,8.7534,0.0002,0.0000,0.0001,1.0000,-0.0978,0.0396,0.2188
504,Pelvis,0,0.4772,-0.5009,0.5696,0.4437,-0.0007,0.0275,0.0007,-0.0515,0.0003,0.0954,9.7990,-1.4078,0.4140,-0.0000,0.0003,0.0000,1.0000,0.2450,-0.0352,0.0103
505,Left,0,0.2016,0.0157,-0.9698,-0.1364,0.0049,0.0024,-0.0043,0.0052,0.0288,-0.0532,-3.7705,-0.8616,8.9604,0.0001,0.0000,-0.0001,1.0000,-0.0943,-0.0215,0.2240
505,Right,0,0.1567,-0.1634,-0.8947,-0.3850,0.0134,-0.0006,0.0098,0.0403,0.0954,-0.0754,-3.9205,1.5804,8.7726,0.0002,-0.0000,0.0001,1.0000,-0.0980,0.0395,0.2193
505,Pelvis,0,0.4766,-0.5011,0.5695,0.4443,-0.0244,0.0261,0.0035,-0.1443,-0.0020,-0.0698,9.6493,-1.2918,0.4084,-0.0003,0.0003,0.0000,1.0000,0.2412,-0.0323,0.0101
506,Left,0,0.2014,0.0158,-0.9699,-0.1362,0.0104,-0.0043,-0.0030,-0.0033,0.0376,-0.0471,-3.7604,-0.8698,8.9706,0.0001,-0.0001,-0.0000,1.0000,-0.0940,-0.0218,0.2243
506,Right,0,0.1567,-0.1635,-0.8948,-0.3848,0.0122,0.0000,0.0098,0.0336,0.0833,-0.0827,-3.9199,1.5937,8.7621,0.0002,0.0000,0.0001,1.0000,-0.0980,0.0398,0.2191
506,Pelvis,0,0.4778,-0.5000,0.5706,0.4428,-0.0560,0.0093,0.0073,-0.1252,0.0002,-0.1365,9.5801,-1.3036,0.4066,-0.0007,0.0001,0.0001,1.0000,0.2395,-0.0326,0.0102
507,Left,0,0.2009,0.0156,-0.9700,-0.1362,0.0153,-0.0073,-0.0017,0.0006,0.0268,-0.0480,-3.7591,-0.8574,8.9713,0.0002,-0.0001,-0.0000,1.0000,-0.0940,-0.0215,0.2243
507,Right,0,0.1566,-0.1635,-0.8950,-0.3843,0.0153,0.0012,0.0091,0.0330,0.1146,-0.0760,-3.9004,1.5783,8.7815,0.0002,0.0000,0.0001,1.0000,-0.0975,0.0394,0.2195
507,Pelvis,0,0.4777,-0.5003,0.5706,0.4427,-0.0844,-0.0050,0.0118,-0.0691,-0.0331,-0.0734,9.6328,-1.3670,0.4465,-0.0011,-0.0001,0.0001,1.0000,0.2408,-0.0341,0.0112
508,Left,0,0.2007,0.0156,-0.9700,-0.1361,0.0153,-0.0109,-0.0011,-0.0013,0.0039,-0.0281,-3.7670,-0.8344,8.9918,0.0002,-0.0001,-0.0000,1.0000,-0.0942,-0.0209,0.2248
508,Right,0,0.1566,-0.1636,-0.8951,-0.3841,0.0159,0.0024,0.0097,0.0240,0.1068,-0.0745,-3.9003,1.5924,8.7804,0.0002,0.0000,0.0001,1.0000,-0.0975,0.0398,0.2195
508,Pelvis,0,0.4776,-0.5007,0.5704,0.4426,-0.0939,-0.0095,0.0194,0.0047,-0.0021,0.0057,9.7004,-1.4582,0.4217,-0.0012,-0.0001,0.0002,1.0000,0.2425,-0.0364,0.0106
509,Left,0,0.2006,0.0155,-0.9700,-0.1362,0.0165,-0.0110,-0.0023,0.0144,-0.0023,-0.0206,-3.7841,-0.8311,8.9930,0.0002,-0.0001,-0.0000,1.0000,-0.0946,-0.0208,0.2248
509,Right,0,0.1566,-0.1637,-0.8950,-0.3842,0.0141,0.0012,0.0085,0.0229,0.0855,-0.0867,-3.9099,1.6060,8.7599,0.0002,0.0000,0.0001,1.0000,-0.0977,0.0401,0.2190
509,Pelvis,0,0.4767,-0.5019,0.5695,0.4434,-0.0876,-0.0164,0.0238,0.0614,0.0357,-0.0082,9.6783,-1.5214,0.3843,-0.0011,-0.0002,0.0003,1.0000,0.2420,-0.0380,0.0097
510,Left,0,0.2002,0.0154,-0.9701,-0.1362,0.0153,-0.0116,-0.0036,0.0061,0.0104,-0.0361,-3.7619,-0.8376,8.9849,0.0002,-0.0001,-0.0000,1.0000,-0.0941,-0.0210,0.2246
510,Right,0,0.1565,-0.1638,-0.8951,-0.3840,0.0122,0.0012,0.0091,0.0430,0.1071,-0.0821,-3.9103,1.5807,8.7697,0.0002,0.0000,0.0001,1.0000,-0.0978,0.0395,0.2193
510,Pelvis,0,0.4764,-0.5026,0.5690,0.4435,-0.0729,-0.0309,0.0228,0.0476,0.0160,-0.0689,9.6198,-1.4998,0.3916,-0.0009,-0.0004,0.0003,1.0000,0.2405,-0.0374,0.0099
511,Left,0,0.2000,0.0153,-0.9702,-0.1362,0.0178,-0.0164,-0.0035,0.0180,0.0064,-0.0414,-3.7683,-0.8344,8.9767,0.0002,-0.0002,-0.0000,1.0000,-0.0943,-0.0209,0.2244
511,Right,0,0.1565,-0.1638,-0.8951,-0.3839,0.0128,-0.0030,0.0098,0.0365,0.0916,-0.0983,-3.9096,1.5937,8.7496,0.0002,-0.0000,0.0001,1.0000,-0.0978,0.0398,0.2187
511,Pelvis,0,0.4770,-0.5028,0.5689,0.4427,-0.0654,-0.0475,0.0250,0.0196,-0.0486,-0.0673,9.6239,-1.4708,0.4403,-0.0008,-0.0006,0.0003,1.0000,0.2406,-0.0367,0.0112
512,Left,0,0.1997,0.0151,-0.9702,-0.1363,0.0184,-0.0158,-0.0029,-0.0137,0.0353,-0.0455,-3.7255,-0.8498,8.9888,0.0002,-0.0002,-0.0000,1.0000,-0.0932,-0.0213,0.2247
512,Right,0,0.1565,-0.1639,-0.8952,-0.3838,0.0122,-0.0012,0.0104,0.0444,0.1023,-0.0693,-3.9186,1.5885,8.7788,0.0002,-0.0000,0.0001,1.0000,-0.0980,0.0397,0.2195
512,Pelvis,0,0.4769,-0.5035,0.5684,0.4426,-0.0520,-0.0456,0.0252,0.0305,-0.0474,0.0039,9.6925,-1.4969,0.4298,-0.0006,-0.0006,0.0003,1.0000,0.2423,-0.0373,0.0109
513,Left,0,0.1996,0.0150,-0.9702,-0.1363,0.0165,-0.0158,-0.0011,-0.0160,0.0155,-0.0563,-3.7220,-0.8267,8.9806,0.0002,-0.0002,-0.0000,1.0000,-0.0931,-0.0207,0.2245
513,Right,0,0.1565,-0.1640,-0.8951,-0.3838,0.0122,0.0006,0.0110,0.0333,0.1024,-0.1037,-3.8986,1.5912,8.7490,0.0002,0.0000,0.0001,1.0000,-0.0975,0.0397,0.2187
513,Pelvis,0,0.4767,-0.5043,0.5680,0.4426,-0.0360,-0.0389,0.0272,0.0584,-0.0245,0.0660,9.7497,-1.5415,0.4009,-0.0005,-0.0005,0.0003,1.0000,0.2438,-0.0384,0.0102
514,Left,2,0.1996,0.0149,-0.9702,-0.1364,0.0147,-0.0134,-0.0017,-0.0038,0.0122,-0.0705,-3.7284,-0.8236,8.9627,0.0002,-0.0002,-0.0000,1.0000,-0.0932,-0.0206,0.2240
514,Right,2,0.1566,-0.1641,-0.8950,-0.3841,0.0147,0.0030,0.0091,0.0306,0.1200,-0.0787,-3.8988,1.5861,8.7779,0.0002,0.0000,0.0001,1.0000,-0.0975,0.0396,0.2195
514,Pelvis,0,0.4765,-0.5049,0.5675,0.4428,-0.0260,-0.0329,0.0324,0.0279,0.0028,0.0769,9.7658,-1.5178,0.3620,-0.0003,-0.0004,0.0004,1.0000,0.2442,-0.0378,0.0092
515,Left,2,0.1995,0.0148,-0.9702,-0.1365,0.0110,-0.0104,-0.0024,-0.0292,0.0154,-0.0383,-3.7160,-0.8204,9.0032,0.0001,-0.0001,-0.0000,1.0000,-0.0929,-0.0205,0.2251
515,Right,2,0.1567,-0.1643,-0.8949,-0.3842,0.0153,0.0067,0.0078,0.0236,0.1056,-0.0948,-3.8994,1.5994,8.7570,0.0002,0.0001,0.0001,1.0000,-0.0975,0.0399,0.2189
515,Pelvis,0,0.4751,-0.5062,0.5665,0.4439,-0.0240,-0.0135,0.0379,-0.0665,-0.0169,0.0826,9.7847,-1.4296,0.3698,-0.0003,-0.0002,0.0005,1.0000,0.2446,-0.0356,0.0093
516,Left,2,0.1995,0.0148,-0.9702,-0.1366,0.0073,-0.0067,-0.0024,-0.0283,0.0165,-0.0690,-3.7042,-0.8188,8.9749,0.0001,-0.0001,-0.0000,1.0000,-0.0926,-0.0205,0.2244
516,Right,2,0.1568,-0.1644,-0.8948,-0.3844,0.0166,0.0097,0.0072,0.0180,0.1255,-0.0826,-3.8912,1.5942,8.7753,0.0002,0.0001,0.0001,1.0000,-0.0973,0.0398,0.2194
516,Pelvis,0,0.4754,-0.5060,0.5672,0.4431,-0.0263,0.0053,0.0422,-0.0912,-0.0414,0.0807,9.7849,-1.4117,0.3893,-0.0003,0.0001,0.0005,1.0000,0.2446,-0.0352,0.0097
517,Left,2,0.1993,0.0148,-0.9703,-0.1366,0.0043,-0.0037,-0.0036,-0.0445,0.0304,-0.0665,-3.6834,-0.8273,8.9855,0.0001,-0.0000,-0.0000,1.0000,-0.0921,-0.0207,0.2246
517,Right,2,0.1569,-0.1646,-0.8947,-0.3844,0.0166,0.0097,0.0072,0.0266,0.1104,-0.0962,-3.9029,1.5982,8.7542,0.0002,0.0001,0.0001,1.0000,-0.0975,0.0399,0.2189
517,Pelvis,0,0.4746,-0.5064,0.5671,0.4434,-0.0271,0.0189,0.0384,-0.0670,-0.0303,0.0537,9.7534,-1.4408,0.3827,-0.0003,0.0002,0.0005,1.0000,0.2439,-0.0359,0.0095
518,Left,2,0.1992,0.0147,-0.9703,-0.1367,0.0024,0.0061,-0.0006,-0.0397,0.0492,-0.0557,-3.6836,-0.8462,8.9955,0.0000,0.0001,-0.0000,1.0000,-0.0921,-0.0212,0.2249
518,Right,2,0.1569,-0.1649,-0.8947,-0.3844,0.0172,0.0121,0.0041,0.0191,0.1198,-0.0914,-3.8953,1.6026,8.7622,0.0002,0.0002,0.0001,1.0000,-0.0974,0.0400,0.2191
518,Pelvis,0,0.4742,-0.5066,0.5672,0.4437,-0.0239,0.0192,0.0285,-0.0591,-0.0408,0.0358,9.7333,-1.4500,0.3978,-0.0003,0.0002,0.0004,1.0000,0.2433,-0.0362,0.0099
519,Left,2,0.1994,0.0148,-0.9702,-0.1366,0.0006,0.0140,-0.0013,-0.0077,0.0279,-0.0417,-3.7249,-0.8364,8.9943,0.0000,0.0002,-0.0000,1.0000,-0.0931,-0.0209,0.2249
519,Right,2,0.1571,-0.1650,-0.8946,-0.3844,0.0160,0.0157,0.0004,0.0405,0.1097,-0.0719,-3.9277,1.5975,8.7702,0.0002,0.0002,0.0000,1.0000,-0.0981,0.0399,0.2193
519,Pelvis,0,0.4736,-0.5068,0.5670,0.4442,-0.0244,0.0233,0.0165,-0.0391,-0.0766,0.0328,9.7258,-1.4681,0.4411,-0.0003,0.0003,0.0002,1.0000,0.2432,-0.0367,0.0110
520,Left,2,0.1995,0.0147,-0.9702,-0.1367,0.0049,0.0098,-0.0007,0.0060,0.0139,-0.0352,-3.7472,-0.8262,8.9930,0.0001,0.0001,-0.0000,1.0000,-0.0937,-0.0207,0.2248
520,Right,2,0.1573,-0.1651,-0.8945,-0.3844,0.0147,0.0103,0.0029,0.0379,0.1219,-0.0773,-3.9209,1.5911,8.7686,0.0002,0.0001,0.0000,1.0000,-0.0980,0.0397,0.2192
520,Pelvis,0,0.4732,-0.5069,0.5670,0.4446,-0.0233,0.0252,0.0134,-0.0460,-0.0340,-0.0228,9.6723,-1.4592,0.4022,-0.0003,0.0003,0.0002,1.0000,0.2418,-0.0364,0.0100
521,Left,2,0.1997,0.0146,-0.9702,-0.1367,0.0055,0.0055,0.0006,-0.0027,0.0253,-0.0380,-3.7391,-0.8348,8.9926,0.0001,0.0001,0.0000,1.0000,-0.0935,-0.0209,0.2248
521,Right,2,0.1575,-0.1652,-0.8945,-0.3845,0.0129,0.0091,0.0042,0.0221,0.1173,-0.0887,-3.9129,1.6037,8.7571,0.0002,0.0001,0.0001,1.0000,-0.0978,0.0401,0.2189
521,Pelvis,0,0.4728,-0.5069,0.5671,0.4449,-0.0319,0.0319,0.0134,-0.1153,0.0536,-0.0443,9.6636,-1.3975,0.3151,-0.0004,0.0004,0.0002,1.0000,0.2416,-0.0349,0.0078
522,Left,2,0.1999,0.0147,-0.9701,-0.1367,0.0049,0.0043,-0.0019,-0.0176,0.0052,-0.0219,-3.7404,-0.8139,9.0115,0.0001,0.0001,-0.0000,1.0000,-0.0935,-0.0204,0.2253
522,Right,2,0.1576,-0.1653,-0.8944,-0.3846,0.0116,0.0054,0.0030,0.0397,0.1230,-0.0875,-3.9245,1.5874,8.7564,0.0001,0.0001,0.0000,1.0000,-0.0981,0.0397,0.2189
522,Pelvis,0,0.4721,-0.5071,0.5670,0.4455,-0.0424,0.0314,0.0095,-0.1040,0.0569,-0.0428,9.6629,-1.4104,0.3207,-0.0005,0.0004,0.0001,1.0000,0.2416,-0.0352,0.0079
523,Left,2,0.1998,0.0148,-0.9702,-0.1366,0.0031,0.0018,-0.0037,0.0039,0.0283,-0.0244,-3.7505,-0.8427,9.0019,0.0000,0.0000,-0.0000,1.0000,-0.0938,-0.0211,0.2250
523,Right,2,0.1576,-0.1653,-0.8944,-0.3845,0.0092,0.0018,0.0030,0.0311,0.1151,-0.0861,-3.9250,1.5998,8.7554,0.0001,0.0000,0.0000,1.0000,-0.0981,0.0400,0.2189
523,Pelvis,0,0.4718,-0.5073,0.5669,0.4458,-0.0446,0.0201,0.0007,0.0041,0.0127,-0.0493,9.6379,-1.5136,0.3791,-0.0006,0.0003,0.0000,1.0000,0.2409,-0.0378,0.0094
524,Right,2,0.1577,-0.1653,-0.8944,-0.3845,0.0067,-0.0006,0.0043,0.0188,0.1117,-0.0759,-3.9248,1.6119,8.7645,0.0001,-0.0000,0.0001,1.0000,-0.0981,0.0403,0.2191
524,Pelvis,0,0.4714,-0.5076,0.5665,0.4463,-0.0342,0.0031,-0.0003,0.1329,-0.0449,-0.0312,9.6341,-1.6366,0.4505,-0.0004,0.0000,-0.0000,1.0000,0.2409,-0.0409,0.0113
525,Left,2,0.1998,0.0147,-0.9702,-0.1366,0.0058,-0.0006,-0.0030,-0.0156,0.0175,-0.0269,-3.7360,-0.8267,9.0068,0.0001,-0.0000,-0.0001,1.0000,-0.1868,-0.0414,0.4503
525,Right,2,0.1578,-0.1653,-0.8944,-0.3845,0.0073,0.0006,0.0030,0.0233,0.1171,-0.0772,-3.9248,1.6040,8.7645,0.0001,0.0000,0.0000,1.0000,-0.0981,0.0401,0.2191
526,Left,2,0.1997,0.0147,-0.9702,-0.1366,0.0067,-0.0006,-0.0024,-0.0181,0.0332,-0.0445,-3.7209,-0.8398,8.9927,0.0001,-0.0000,-0.0000,1.0000,-0.0930,-0.0210,0.2248
526,Right,2,0.1577,-0.1652,-0.8944,-0.3845,0.0055,-0.0031,0.0037,0.0142,0.1260,-0.0724,-3.9147,1.6059,8.7741,0.0001,-0.0000,0.0000,1.0000,-0.0979,0.0401,0.2194
527,Left,2,0.1997,0.0147,-0.9702,-0.1367,0.0049,-0.0000,-0.0043,-0.0189,0.0135,-0.0554,-3.7208,-0.8194,8.9828,0.0001,-0.0000,-0.0001,1.0000,-0.0930,-0.0205,0.2246
527,Right,2,0.1578,-0.1652,-0.8945,-0.3844,0.0030,-0.0030,0.0025,0.0270,0.1209,-0.0786,-3.9238,1.5973,8.7648,0.0000,-0.0000,0.0000,1.0000,-0.0981,0.0399,0.2191
528,Left,2,0.1995,0.0147,-0.9702,-0.1367,0.0049,0.0018,-0.0031,-0.0067,0.0293,-0.0408,-3.7306,-0.8381,8.9928,0.0001,0.0000,-0.0000,1.0000,-0.0933,-0.0210,0.2248
528,Right,2,0.1578,-0.1650,-0.8946,-0.3842,0.0042,-0.0049,0.0037,0.0331,0.1386,-0.0853,-3.9134,1.5786,8.7656,0.0001,-0.0001,0.0000,1.0000,-0.0979,0.0394,0.2191
529,Right,2,0.1578,-0.1650,-0.8945,-0.3844,0.0048,-0.0061,0.0038,0.0230,0.1319,-0.0839,-3.9119,1.5898,8.7656,0.0001,-0.0001,0.0000,1.0000,-0.0978,0.0397,0.2191
530,Right,2,0.1578,-0.1649,-0.8945,-0.3843,0.0036,-0.0073,0.0044,0.0340,0.1138,-0.0846,-3.9298,1.5912,8.7564,0.0000,-0.0001,0.0001,1.0000,-0.0983,0.0398,0.2189
531,Right,2,0.1579,-0.1648,-0.8946,-0.3841,0.0073,-0.0031,0.0049,0.0337,0.1376,-0.0954,-3.9093,1.5729,8.7572,0.0001,-0.0000,0.0001,1.0000,-0.0977,0.0393,0.2189
532,Left,2,0.1996,0.0145,-0.9702,-0.1369,0.0050,0.0026,-0.0029,-0.0128,0.0288,-0.0406,-3.7270,-0.8335,8.9949,0.0003,0.0001,-0.0001,1.0000,-0.3726,-0.0835,0.8995
532,Right,2,0.1578,-0.1649,-0.8946,-0.3842,0.0073,-0.0018,0.0055,0.0270,0.1354,-0.0636,-3.9182,1.5858,8.7862,0.0001,-0.0000,0.0001,1.0000,-0.0980,0.0396,0.2197
532,Pelvis,2,0.4697,-0.5112,0.5636,0.4476,-0.0333,-0.0191,0.0097,0.0561,-0.0076,-0.0024,9.6752,-1.5762,0.3877,-0.0033,-0.0019,0.0010,1.0000,1.9352,-0.3131,0.0823
533,Left,2,0.1995,0.0146,-0.9702,-0.1370,0.0018,0.0073,-0.0037,-0.0216,0.0198,-0.0275,-3.7240,-0.8241,9.0113,0.0000,0.0001,-0.0000,1.0000,-0.0931,-0.0206,0.2253
533,Right,2,0.1578,-0.1648,-0.8947,-0.3840,0.0091,-0.0024,0.0061,0.0148,0.1262,-0.0838,-3.9075,1.5972,8.7663,0.0001,-0.0000,0.0001,1.0000,-0.0977,0.0399,0.2192
533,Pelvis,2,0.4700,-0.5110,0.5637,0.4475,-0.0156,-0.0089,0.0083,0.0574,-0.1289,0.0438,9.7180,-1.5785,0.4887,-0.0002,-0.0001,0.0001,1.0000,0.2430,-0.0394,0.0123
534,Left,2,0.1994,0.0146,-0.9702,-0.1369,0.0030,0.0043,-0.0037,0.0054,0.0432,-0.0389,-3.7347,-0.8536,8.9917,0.0000,0.0001,-0.0000,1.0000,-0.0934,-0.0213,0.2248
534,Right,2,0.1578,-0.1648,-0.8948,-0.3838,0.0104,-0.0007,0.0037,0.0359,0.1271,-0.0913,-3.9171,1.5802,8.7568,0.0001,-0.0000,0.0000,1.0000,-0.0979,0.0395,0.2189
534,Pelvis,2,0.4700,-0.5108,0.5636,0.4478,-0.0354,-0.0050,0.0019,-0.0008,-0.1869,0.0100,9.6931,-1.5062,0.5432,-0.0004,-0.0001,0.0000,1.0000,0.2423,-0.0376,0.0136
535,Left,2,0.1993,0.0146,-0.9702,-0.1369,0.0049,0.0025,-0.0006,-0.0062,0.0263,-0.0445,-3.7258,-0.8333,8.9912,0.0001,0.0000,-0.0000,1.0000,-0.0931,-0.0208,0.2248
535,Right,2,0.1578,-0.1648,-0.8948,-0.3837,0.0092,0.0030,0.0048,0.0264,0.1362,-0.0865,-3.9075,1.5829,8.7661,0.0001,0.0000,0.0001,1.0000,-0.0977,0.0395,0.2192
535,Pelvis,2,0.4697,-0.5112,0.5632,0.4482,-0.0681,0.0094,0.0100,-0.0767,-0.1698,-0.0053,9.6907,-1.4281,0.5190,-0.0009,0.0001,0.0001,1.0000,0.2423,-0.0357,0.0130
536,Left,2,0.1991,0.0146,-0.9703,-0.1369,0.0073,-0.0012,-0.0018,-0.0014,0.0369,-0.0652,-3.7160,-0.8420,8.9720,0.0001,-0.0000,-0.0000,1.0000,-0.0929,-0.0211,0.2243
536,Right,2,0.1579,-0.1648,-0.8949,-0.3834,0.0141,0.0018,0.0061,0.0446,0.1575,-0.0817,-3.9084,1.5570,8.7760,0.0002,0.0000,0.0001,1.0000,-0.0977,0.0389,0.2194
536,Pelvis,2,0.4690,-0.5117,0.5626,0.4490,-0.1055,0.0274,0.0196,-0.0701,-0.0775,0.0243,9.7215,-1.4448,0.4282,-0.0013,0.0003,0.0002,1.0000,0.2430,-0.0360,0.0107
537,Left,2,0.1992,0.0145,-0.9702,-0.1370,0.0031,0.0006,-0.0024,-0.0058,0.0252,-0.0445,-3.7258,-0.8311,8.9914,0.0000,0.0000,-0.0000,1.0000,-0.0931,-0.0208,0.2248
537,Right,2,0.1581,-0.1649,-0.8949,-0.3834,0.0159,0.0042,0.0054,0.0398,0.1401,-0.0851,-3.9184,1.5705,8.7651,0.0002,0.0001,0.0001,1.0000,-0.0980,0.0392,0.2191
537,Pelvis,2,0.4680,-0.5120,0.5623,0.4502,-0.1370,0.0582,0.0131,-0.0360,0.0017,0.1004,9.7932,-1.4935,0.3654,-0.0017,0.0007,0.0002,1.0000,0.2448,-0.0373,0.0090
538,Left,2,0.1993,0.0146,-0.9702,-0.1370,-0.0006,0.0073,-0.0049,-0.0108,0.0338,-0.0256,-3.7267,-0.8406,9.0108,-0.0000,0.0001,-0.0001,1.0000,-0.0931,-0.0210,0.2253
538,Right,2,0.1581,-0.1651,-0.8948,-0.3835,0.0208,0.0054,0.0085,0.0346,0.1377,-0.1067,-3.9094,1.5744,8.7444,0.0003,0.0001,0.0001,1.0000,-0.0977,0.0393,0.2186
538,Pelvis,2,0.4666,-0.5123,0.5619,0.4519,-0.1615,0.0815,-0.0020,-0.0026,-0.0471,0.1014,9.7872,-1.5210,0.4341,-0.0020,0.0010,-0.0000,1.0000,0.2447,-0.0380,0.0107
539,Left,2,0.1992,0.0147,-0.9702,-0.1371,-0.0012,0.0073,-0.0043,0.0048,0.0513,-0.0417,-3.7280,-0.8611,8.9909,-0.0000,0.0001,-0.0001,1.0000,-0.0932,-0.0215,0.2248
539,Right,2,0.1581,-0.1653,-0.8948,-0.3833,0.0202,0.0054,0.0091,0.0206,0.1291,-0.0736,-3.9196,1.6004,8.7717,0.0003,0.0001,0.0001,1.0000,-0.0980,0.0399,0.2193
539,Pelvis,2,0.4652,-0.5129,0.5609,0.4537,-0.1789,0.0856,-0.0109,0.0525,-0.0917,0.0246,9.7019,-1.5544,0.4910,-0.0022,0.0011,-0.0001,1.0000,0.2426,-0.0389,0.0121
540,Left,2,0.1993,0.0147,-0.9702,-0.1370,0.0018,0.0055,-0.0025,0.0018,0.0408,-0.0426,-3.7294,-0.8516,8.9901,0.0000,0.0001,-0.0000,1.0000,-0.0932,-0.0213,0.2248
540,Right,2,0.1581,-0.1655,-0.8948,-0.3833,0.0208,0.0066,0.0078,0.0431,0.1558,-0.0918,-3.9116,1.5661,8.7618,0.0003,0.0001,0.0001,1.0000,-0.0978,0.0391,0.2191
540,Pelvis,2,0.4637,-0.5134,0.5602,0.4556,-0.1923,0.0867,-0.0085,0.0331,-0.0775,-0.0205,9.6608,-1.5234,0.4912,-0.0024,0.0011,-0.0001,1.0000,0.2415,-0.0381,0.0121
541,Left,2,0.1993,0.0147,-0.9702,-0.1370,0.0055,0.0061,-0.0025,0.0187,0.0243,-0.0362,-3.7502,-0.8414,8.9894,0.0001,0.0001,-0.0000,1.0000,-0.0937,-0.0210,0.2247
541,Right,2,0.1581,-0.1657,-0.8949,-0.3831,0.0208,0.0078,0.0066,0.0011,0.1468,-0.0640,-3.9023,1.6112,8.7883,0.0003,0.0001,0.0001,1.0000,-0.0975,0.0402,0.2197
541,Pelvis,2,0.4621,-0.5140,0.5594,0.4576,-0.2119,0.0835,-0.0067,0.0702,-0.0621,-0.0463,9.6300,-1.5523,0.4935,-0.0026,0.0010,-0.0001,1.0000,0.2408,-0.0388,0.0122
542,Left,2,0.1994,0.0148,-0.9702,-0.1370,0.0061,0.0049,-0.0043,0.0067,0.0344,-0.0299,-3.7416,-0.8499,8.9990,0.0001,0.0001,-0.0001,1.0000,-0.0935,-0.0213,0.2250
542,Right,2,0.1581,-0.1658,-0.8947,-0.3834,0.0190,0.0029,0.0061,0.0185,0.1304,-0.0965,-3.9132,1.6053,8.7482,0.0002,0.0000,0.0001,1.0000,-0.0978,0.0401,0.2187
542,Pelvis,2,0.4606,-0.5148,0.5582,0.4596,-0.2188,0.0697,-0.0115,0.1129,-0.0428,-0.0325,9.6383,-1.5906,0.4889,-0.0027,0.0009,-0.0001,1.0000,0.2410,-0.0398,0.0121
543,Left,2,0.1994,0.0148,-0.9702,-0.1370,0.0061,0.0073,-0.0031,-0.0070,0.0260,-0.0256,-3.7333,-0.8389,9.0082,0.0001,0.0001,-0.0000,1.0000,-0.0933,-0.0210,0.2252
543,Right,2,0.1581,-0.1660,-0.8946,-0.3835,0.0166,0.0079,0.0072,0.0332,0.1472,-0.0687,-3.9243,1.5915,8.7769,0.0002,0.0001,0.0001,1.0000,-0.0981,0.0397,0.2194
543,Pelvis,2,0.4592,-0.5158,0.5568,0.4617,-0.2217,0.0618,-0.0234,0.1518,-0.0147,-0.0105,9.6562,-1.6255,0.4708,-0.0028,0.0008,-0.0003,1.0000,0.2414,-0.0407,0.0117
544,Left,2,0.1994,0.0148,-0.9702,-0.1369,0.0073,0.0073,-0.0043,0.0125,0.0091,-0.0281,-3.7544,-0.8283,8.9976,0.0001,0.0001,-0.0001,1.0000,-0.0938,-0.0207,0.2249
544,Right,2,0.1582,-0.1660,-0.8947,-0.3832,0.0159,0.0048,0.0066,0.0262,0.1314,-0.0849,-3.9252,1.6049,8.7558,0.0002,0.0001,0.0001,1.0000,-0.0981,0.0401,0.2189
544,Pelvis,2,0.4577,-0.5167,0.5553,0.4638,-0.2330,0.0530,-0.0315,0.1601,-0.0238,-0.0189,9.6476,-1.6228,0.4858,-0.0029,0.0007,-0.0004,1.0000,0.2412,-0.0406,0.0121
545,Left,2,0.1994,0.0148,-0.9702,-0.1369,0.0085,0.0043,-0.0049,0.0097,0.0291,-0.0299,-3.7457,-0.8464,8.9976,0.0001,0.0001,-0.0001,1.0000,-0.0936,-0.0212,0.2249
545,Right,2,0.1583,-0.1661,-0.8948,-0.3829,0.0171,0.0043,0.0103,0.0215,0.1336,-0.0761,-3.9259,1.6097,8.7644,0.0002,0.0001,0.0001,1.0000,-0.0981,0.0402,0.2191
545,Pelvis,2,0.4564,-0.5179,0.5534,0.4661,-0.2507,0.0339,-0.0290,0.1034,-0.0753,-0.0535,9.6218,-1.5461,0.5370,-0.0031,0.0004,-0.0004,1.0000,0.2405,-0.0387,0.0134
546,Left,2,0.1993,0.0148,-0.9702,-0.1370,0.0110,-0.0061,-0.0042,0.0166,0.0282,-0.0479,-3.7453,-0.8449,8.9784,0.0001,-0.0001,-0.0001,1.0000,-0.0937,-0.0211,0.2244
546,Right,2,0.1583,-0.1663,-0.8948,-0.3829,0.0196,0.0024,0.0122,0.0193,0.1618,-0.0780,-3.9071,1.5952,8.7739,0.0002,0.0000,0.0002,1.0000,-0.0977,0.0398,0.2194
546,Pelvis,2,0.4549,-0.5196,0.5513,0.4682,-0.2886,0.0007,-0.0097,0.0290,-0.1487,-0.1579,9.5283,-1.4459,0.5999,-0.0036,0.0000,-0.0001,1.0000,0.2382,-0.0361,0.0151
547,Left,2,0.1990,0.0148,-0.9703,-0.1369,0.0178,-0.0189,-0.0028,0.0312,0.0416,-0.0423,-3.7520,-0.8616,8.9801,0.0002,-0.0002,-0.0000,1.0000,-0.0939,-0.0216,0.2245
547,Right,2,0.1583,-0.1664,-0.8949,-0.3827,0.0208,0.0025,0.0146,0.0311,0.1601,-0.0753,-3.9171,1.5914,8.7731,0.0003,0.0000,0.0002,1.0000,-0.0979,0.0397,0.2193
547,Pelvis,2,0.4532,-0.5219,0.5488,0.4702,-0.3390,-0.0335,0.0044,0.0463,-0.1419,-0.1469,9.5383,-1.4595,0.5826,-0.0042,-0.0004,0.0001,1.0000,0.2385,-0.0364,0.0148
548,Left,2,0.1986,0.0146,-0.9704,-0.1370,0.0221,-0.0256,-0.0040,0.0252,0.0093,-0.0235,-3.7570,-0.8279,9.0016,0.0003,-0.0003,-0.0000,1.0000,-0.0940,-0.0208,0.2250
548,Right,2,0.1583,-0.1666,-0.8949,-0.3825,0.0232,0.0049,0.0164,0.0211,0.1522,-0.0739,-3.9170,1.6075,8.7715,0.0003,0.0001,0.0002,1.0000,-0.0979,0.0401,0.2193
548,Pelvis,2,0.4511,-0.5246,0.5458,0.4727,-0.3740,-0.0268,0.0036,0.1463,-0.0984,0.0020,9.6742,-1.5787,0.5258,-0.0047,-0.0003,0.0000,1.0000,0.2419,-0.0394,0.0134
549,Left,2,0.1982,0.0145,-0.9704,-0.1370,0.0245,-0.0262,-0.0052,-0.0024,0.0243,-0.0246,-3.7218,-0.8324,9.0146,0.0003,-0.0003,-0.0001,1.0000,-0.0931,-0.0209,0.2253
549,Right,2,0.1583,-0.1668,-0.8949,-0.3823,0.0269,0.0079,0.0151,0.0208,0.1468,-0.0827,-3.9178,1.6142,8.7601,0.0003,0.0001,0.0002,1.0000,-0.0979,0.0403,0.2190
549,Pelvis,2,0.4490,-0.5271,0.5432,0.4749,-0.3652,-0.0081,-0.0020,0.3063,-0.0841,0.0848,9.7341,-1.7501,0.4958,-0.0046,-0.0001,-0.0000,1.0000,0.2434,-0.0437,0.0126
550,Left,2,0.1978,0.0143,-0.9705,-0.1371,0.0301,-0.0359,-0.0033,0.0134,0.0141,-0.0705,-3.7146,-0.8178,8.9690,0.0004,-0.0004,-0.0000,1.0000,-0.0930,-0.0205,0.2242
550,Right,2,0.1583,-0.1672,-0.8948,-0.3824,0.0300,0.0091,0.0157,0.0135,0.1484,-0.0955,-3.9092,1.6213,8.7484,0.0004,0.0001,0.0002,1.0000,-0.0977,0.0404,0.2187
550,Pelvis,2,0.4469,-0.5290,0.5412,0.4770,-0.3195,0.0356,-0.0030,0.3361,0.0761,0.1307,9.7823,-1.7863,0.3263,-0.0040,0.0004,-0.0000,1.0000,0.2446,-0.0446,0.0082
551,Left,2,0.1973,0.0142,-0.9706,-0.1370,0.0196,-0.0219,-0.0028,-0.0658,-0.0010,-0.0415,-3.6499,-0.7816,9.0304,0.0002,-0.0003,-0.0000,1.0000,-0.0913,-0.0196,0.2257
551,Right,2,0.1583,-0.1674,-0.8950,-0.3820,0.0263,0.0067,0.0158,0.0441,0.1439,-0.0772,-3.9401,1.6106,8.7569,0.0003,0.0001,0.0002,1.0000,-0.0985,0.0402,0.2189
551,Pelvis,2,0.4449,-0.5301,0.5401,0.4790,-0.2397,0.0852,0.0071,0.4795,0.3410,0.2424,9.8832,-1.9411,0.0660,-0.0030,0.0011,0.0001,1.0000,0.2471,-0.0485,0.0015
552,Left,2,0.1975,0.0143,-0.9706,-0.1371,0.0000,0.0011,-0.0092,-0.0389,-0.0521,-0.0179,-3.6966,-0.7411,9.0404,0.0000,0.0000,-0.0001,1.0000,-0.0924,-0.0185,0.2260
552,Right,2,0.1583,-0.1676,-0.8949,-0.3820,0.0263,0.0049,0.0176,0.0018,0.1223,-0.0976,-3.9202,1.6558,8.7343,0.0003,0.0001,0.0002,1.0000,-0.0980,0.0413,0.2184
552,Pelvis,2,0.4431,-0.5301,0.5399,0.4807,-0.1464,0.1396,-0.0029,0.6612,0.5349,0.1592,9.7837,-2.1037,-0.1175,-0.0018,0.0017,-0.0000,1.0000,0.2446,-0.0526,-0.0033
553,Left,2,0.1976,0.0144,-0.9705,-0.1373,-0.0104,0.0139,-0.0117,-0.0225,0.0164,-0.0329,-3.6877,-0.8119,9.0215,-0.0001,0.0002,-0.0001,1.0000,-0.0922,-0.0203,0.2256
553,Right,2,0.1583,-0.1678,-0.8949,-0.3819,0.0189,0.0006,0.0128,0.0008,0.1341,-0.1029,-3.9106,1.6522,8.7335,0.0002,0.0000,0.0002,1.0000,-0.0978,0.0412,0.2183
553,Pelvis,2,0.4422,-0.5294,0.5403,0.4819,-0.0243,0.1275,-0.0201,0.7903,0.4244,-0.0569,9.5471,-2.1981,0.0073,-0.0003,0.0016,-0.0003,1.0000,0.2387,-0.0550,-0.0002
554,Left,2,0.1978,0.0146,-0.9705,-0.1374,-0.0098,0.0151,-0.0099,-0.0038,0.0223,-0.0463,-3.7003,-0.8254,9.0005,-0.0001,0.0002,-0.0001,1.0000,-0.0925,-0.0206,0.2250
554,Right,2,0.1583,-0.1679,-0.8949,-0.3820,0.0159,0.0018,0.0104,0.0049,0.1724,-0.0973,-3.8917,1.6281,8.7534,0.0002,0.0000,0.0001,1.0000,-0.0973,0.0406,0.2188
554,Pelvis,2,0.4423,-0.5281,0.5413,0.4822,0.0997,0.0926,-0.0160,0.7521,0.2050,-0.1675,9.4328,-2.1440,0.2506,0.0012,0.0012,-0.0002,1.0000,0.2358,-0.0537,0.0059
555,Left,2,0.1980,0.0147,-0.9704,-0.1373,-0.0025,0.0085,-0.0062,-0.0065,0.0443,-0.0787,-3.6830,-0.8475,8.9705,-0.0000,0.0001,-0.0001,1.0000,-0.0921,-0.0212,0.2243
555,Right,2,0.1583,-0.1681,-0.8949,-0.3820,0.0172,0.0092,0.0133,-0.0307,0.1608,-0.1102,-3.8721,1.6613,8.7414,0.0002,0.0001,0.0002,1.0000,-0.0968,0.0415,0.2186
555,Pelvis,2,0.4431,-0.5266,0.5428,0.4813,0.2025,0.0378,0.0104,0.6238,-0.0685,-0.2164,9.3878,-2.0129,0.5483,0.0025,0.0005,0.0001,1.0000,0.2347,-0.0503,0.0135
556,Left,2,0.1980,0.0146,-0.9704,-0.1374,0.0116,0.0007,0.0031,-0.0006,0.0606,-0.0551,-3.6937,-0.8658,8.9900,0.0001,0.0000,0.0000,1.0000,-0.0923,-0.0217,0.2247
556,Right,2,0.1585,-0.1681,-0.8949,-0.3819,0.0117,0.0092,0.0078,-0.0119,0.1421,-0.0765,-3.9128,1.6673,8.7592,0.0001,0.0001,0.0001,1.0000,-0.0978,0.0416,0.2190
556,Pelvis,2,0.4447,-0.5251,0.5446,0.4795,0.2664,-0.0290,0.0340,0.3925,-0.1542,-0.2431,9.3890,-1.7826,0.6508,0.0033,-0.0004,0.0004,1.0000,0.2347,-0.0445,0.0162
557,Left,2,0.1979,0.0144,-0.9705,-0.1373,0.0159,-0.0066,0.0080,-0.0064,0.0289,-0.0363,-3.7032,-0.8326,9.0095,0.0002,-0.0001,0.0001,1.0000,-0.0926,-0.0209,0.2252
557,Right,2,0.1586,-0.1681,-0.8949,-0.3818,0.0024,0.0007,0.0043,0.0038,0.1458,-0.0967,-3.9141,1.6491,8.7397,0.0000,0.0000,0.0001,1.0000,-0.0979,0.0412,0.2185
557,Pelvis,2,0.4466,-0.5237,0.5464,0.4772,0.2931,-0.0628,0.0432,0.2206,0.0079,-0.1196,9.5440,-1.6331,0.5002,0.0037,-0.0008,0.0005,1.0000,0.2386,-0.0407,0.0125
558,Left,2,0.1979,0.0143,-0.9705,-0.1372,0.0134,-0.0023,0.0031,-0.0162,0.0091,-0.0292,-3.7026,-0.8091,9.0196,0.0002,-0.0000,0.0000,1.0000,-0.0926,-0.0203,0.2255
558,Right,2,0.1588,-0.1679,-0.8949,-0.3818,-0.0006,0.0043,-0.0001,0.0161,0.1624,-0.0688,-3.9249,1.6314,8.7695,-0.0000,0.0001,-0.0000,1.0000,-0.0981,0.0408,0.2192
558,Pelvis,2,0.4486,-0.5222,0.5482,0.4748,0.3088,-0.0699,0.0397,0.1922,0.3041,0.1106,9.7905,-1.6441,0.2134,0.0039,-0.0009,0.0005,1.0000,0.2448,-0.0410,0.0054
559,Left,2,0.1978,0.0144,-0.9705,-0.1371,0.0030,0.0079,-0.0001,-0.0054,0.0045,-0.0255,-3.7130,-0.8072,9.0195,0.0000,0.0001,-0.0000,1.0000,-0.0928,-0.0202,0.2255
559,Right,2,0.1588,-0.1679,-0.8950,-0.3816,0.0043,0.0030,0.0012,0.0475,0.1491,-0.0897,-3.9456,1.6117,8.7405,0.0001,0.0000,0.0000,1.0000,-0.0986,0.0403,0.2185
559,Pelvis,2,0.4507,-0.5204,0.5502,0.4726,0.3235,-0.0472,0.0226,0.1514,0.3864,0.2439,9.9315,-1.6292,0.1372,0.0040,-0.0006,0.0003,1.0000,0.2483,-0.0407,0.0034
560,Left,2,0.1980,0.0145,-0.9705,-0.1371,-0.0031,0.0116,-0.0026,-0.0192,0.0084,-0.0419,-3.6956,-0.8073,9.0089,-0.0000,0.0001,-0.0000,1.0000,-0.0924,-0.0202,0.2252
560,Right,2,0.1589,-0.1678,-0.8950,-0.3816,0.0043,0.0006,0.0043,0.0430,0.1517,-0.0808,-3.9459,1.6133,8.7499,0.0001,0.0000,0.0001,1.0000,-0.0986,0.0403,0.2188
560,Pelvis,2,0.4528,-0.5184,0.5522,0.4705,0.3333,-0.0322,0.0094,0.0716,0.1891,0.0450,9.7364,-1.5199,0.3270,0.0042,-0.0004,0.0001,1.0000,0.2434,-0.0380,0.0081
561,Left,2,0.1981,0.0147,-0.9704,-0.1370,-0.0056,0.0152,-0.0038,-0.0285,0.0397,-0.0464,-3.6787,-0.8377,9.0082,-0.0001,0.0002,-0.0000,1.0000,-0.0919,-0.0209,0.2252
561,Right,2,0.1590,-0.1677,-0.8951,-0.3813,0.0061,-0.0018,0.0031,0.0199,0.1725,-0.0841,-3.9164,1.6145,8.7596,0.0001,-0.0000,0.0000,1.0000,-0.0979,0.0403,0.2190
561,Pelvis,2,0.4549,-0.5162,0.5542,0.4685,0.3305,-0.0237,0.0014,0.0041,0.0422,-0.0882,9.6076,-1.4282,0.4715,0.0041,-0.0003,0.0000,1.0000,0.2402,-0.0357,0.0117
562,Left,2,0.1983,0.0148,-0.9704,-0.1370,-0.0080,0.0207,-0.0033,-0.0032,0.0335,-0.0570,-3.7021,-0.8402,8.9868,-0.0001,0.0003,-0.0000,1.0000,-0.0925,-0.0210,0.2247
562,Right,2,0.1590,-0.1676,-0.8952,-0.3812,0.0074,0.0024,0.0018,0.0044,0.1709,-0.0868,-3.9063,1.6257,8.7590,0.0001,0.0000,0.0000,1.0000,-0.0977,0.0406,0.2190
562,Pelvis,2,0.4569,-0.5140,0.5561,0.4666,0.3130,-0.0128,-0.0071,-0.0484,-0.0216,0.0102,9.7099,-1.3832,0.5462,0.0039,-0.0002,-0.0001,1.0000,0.2427,-0.0347,0.0136
563,Left,2,0.1986,0.0149,-0.9704,-0.1370,-0.0050,0.0177,-0.0026,-0.0091,0.0233,-0.0490,-3.7065,-0.8319,8.9945,-0.0001,0.0002,-0.0000,1.0000,-0.0926,-0.0208,0.2249
563,Right,2,0.1591,-0.1676,-0.8952,-0.3810,0.0037,0.0012,-0.0000,0.0085,0.1631,-0.0828,-3.9164,1.6272,8.7585,0.0000,0.0000,-0.0000,1.0000,-0.0979,0.0407,0.2190
563,Pelvis,2,0.4587,-0.5120,0.5578,0.4650,0.2792,-0.0108,-0.0108,-0.0904,0.0443,0.0259,9.7353,-1.3398,0.4873,0.0035,-0.0001,-0.0001,1.0000,0.2434,-0.0336,0.0121
564,Left,2,0.1987,0.0150,-0.9703,-0.1369,-0.0013,0.0177,0.0004,0.0088,0.0167,-0.0416,-3.7300,-0.8329,8.9927,-0.0000,0.0002,0.0000,1.0000,-0.0932,-0.0208,0.2248
564,Right,2,0.1592,-0.1674,-0.8953,-0.3809,0.0031,0.0017,-0.0037,0.0054,0.1487,-0.0774,-3.9263,1.6378,8.7578,0.0000,0.0000,-0.0000,1.0000,-0.0982,0.0409,0.2189
564,Pelvis,2,0.4604,-0.5103,0.5591,0.4637,0.2386,-0.0161,-0.0159,-0.0669,0.0447,-0.0699,9.6378,-1.3425,0.4882,0.0030,-0.0002,-0.0002,1.0000,0.2409,-0.0336,0.0122
565,Left,2,0.1990,0.0149,-0.9703,-0.1369,-0.0013,0.0214,0.0028,-0.0172,0.0314,-0.0210,-3.7150,-0.8421,9.0204,-0.0000,0.0003,0.0000,1.0000,-0.0928,-0.0211,0.2255
565,Right,2,0.1594,-0.1673,-0.8954,-0.3806,-0.0006,0.0024,-0.0013,0.0309,0.1602,-0.0772,-3.9374,1.6088,8.7587,-0.0000,0.0000,-0.0000,1.0000,-0.0984,0.0402,0.2190
565,Pelvis,2,0.4619,-0.5089,0.5601,0.4624,0.2011,-0.0316,-0.0235,0.0103,0.0225,-0.0951,9.6015,-1.4063,0.5142,0.0025,-0.0004,-0.0003,1.0000,0.2400,-0.0353,0.0129
566,Left,2,0.1992,0.0150,-0.9702,-0.1369,-0.0001,0.0195,-0.0020,0.0267,0.0314,-0.0450,-3.7486,-0.8530,8.9795,-0.0000,0.0002,-0.0000,1.0000,-0.0937,-0.0213,0.2245
566,Right,2,0.1595,-0.1671,-0.8954,-0.3805,-0.0012,-0.0012,-0.0006,0.0248,0.1444,-0.0935,-3.9373,1.6175,8.7388,-0.0000,-0.0000,-0.0000,1.0000,-0.0984,0.0404,0.2185
566,Pelvis,2,0.4635,-0.5078,0.5607,0.4614,0.1629,-0.0484,-0.0316,0.0655,-0.0008,-0.1038,9.5854,-1.4489,0.5365,0.0020,-0.0006,-0.0004,1.0000,0.2396,-0.0363,0.0135
567,Left,2,0.1993,0.0150,-0.9702,-0.1369,0.0036,0.0134,-0.0007,0.0043,0.0266,-0.0443,-3.7329,-0.8426,8.9876,0.0000,0.0002,-0.0000,1.0000,-0.0933,-0.0211,0.2247
567,Right,2,0.1595,-0.1669,-0.8956,-0.3803,-0.0025,-0.0049,-0.0005,0.0220,0.1761,-0.0865,-3.9177,1.5978,8.7596,-0.0000,-0.0001,-0.0000,1.0000,-0.0980,0.0400,0.2190
567,Pelvis,2,0.4649,-0.5071,0.5610,0.4604,0.1286,-0.0636,-0.0337,0.0746,-0.0069,-0.1613,9.5289,-1.4395,0.5322,0.0016,-0.0008,-0.0004,1.0000,0.2382,-0.0361,0.0134
568,Left,2,0.1992,0.0150,-0.9702,-0.1368,0.0097,0.0049,-0.0012,0.0149,0.0215,-0.0406,-3.7447,-0.8413,8.9869,0.0001,0.0001,-0.0000,1.0000,-0.0936,-0.0211,0.2247
568,Right,2,0.1594,-0.1668,-0.8956,-0.3804,0.0018,-0.0054,0.0038,0.0278,0.1681,-0.0824,-3.9262,1.5981,8.7600,0.0000,-0.0001,0.0000,1.0000,-0.0982,0.0399,0.2190
568,Pelvis,2,0.4663,-0.5066,0.5611,0.4595,0.0989,-0.0805,-0.0268,0.0769,0.0086,-0.1229,9.5692,-1.4394,0.5058,0.0012,-0.0010,-0.0003,1.0000,0.2392,-0.0361,0.0128
569,Left,2,0.1990,0.0149,-0.9703,-0.1368,0.0104,-0.0024,-0.0006,-0.0041,0.0261,-0.0390,-3.7255,-0.8387,8.9969,0.0001,-0.0000,-0.0000,1.0000,-0.0931,-0.0210,0.2249
569,Right,2,0.1595,-0.1667,-0.8958,-0.3799,0.0048,-0.0036,0.0056,0.0173,0.1641,-0.0723,-3.9248,1.6095,8.7697,0.0001,-0.0000,0.0001,1.0000,-0.0981,0.0402,0.2192
569,Pelvis,2,0.4675,-0.5064,0.5611,0.4585,0.0823,-0.0855,-0.0117,0.1031,0.0230,0.0288,9.7177,-1.4821,0.4841,0.0010,-0.0011,-0.0001,1.0000,0.2429,-0.0371,0.0123
570,Left,2,0.1990,0.0147,-0.9703,-0.1369,0.0110,-0.0054,0.0013,-0.0201,0.0220,-0.0563,-3.7051,-0.8265,8.9876,0.0001,-0.0001,0.0000,1.0000,-0.0926,-0.0207,0.2247
570,Right,2,0.1595,-0.1667,-0.8957,-0.3800,0.0067,-0.0024,0.0056,0.0128,0.1618,-0.0939,-3.9141,1.6102,8.7503,0.0001,-0.0000,0.0001,1.0000,-0.0979,0.0402,0.2188
570,Pelvis,2,0.4684,-0.5062,0.5612,0.4575,0.0788,-0.0736,-0.0044,0.1612,0.0750,0.1217,9.8045,-1.5538,0.4252,0.0010,-0.0009,-0.0001,1.0000,0.2451,-0.0389,0.0108
571,Left,2,0.1990,0.0147,-0.9703,-0.1368,0.0073,0.0025,0.0012,-0.0237,0.0115,-0.0573,-3.7049,-0.8146,8.9877,0.0001,0.0000,0.0000,1.0000,-0.0926,-0.0204,0.2247
571,Right,2,0.1595,-0.1668,-0.8956,-0.3803,0.0079,0.0012,0.0049,0.0092,0.1768,-0.0904,-3.9043,1.6027,8.7602,0.0001,0.0000,0.0001,1.0000,-0.0976,0.0400,0.2190
571,Pelvis,2,0.4693,-0.5058,0.5615,0.4567,0.0892,-0.0529,-0.0032,0.1941,0.1110,0.1231,9.8032,-1.5883,0.3805,0.0011,-0.0007,-0.0000,1.0000,0.2451,-0.0397,0.0096
572,Left,2,0.1992,0.0148,-0.9703,-0.1368,-0.0000,0.0067,0.0005,-0.0092,0.0144,-0.0400,-3.7254,-0.8234,8.9972,-0.0000,0.0001,0.0000,1.0000,-0.0931,-0.0206,0.2249
572,Right,2,0.1595,-0.1668,-0.8955,-0.3806,0.0080,0.0048,0.0017,0.0107,0.1727,-0.0775,-3.9146,1.6054,8.7694,0.0001,0.0001,0.0000,1.0000,-0.0979,0.0401,0.2192
572,Pelvis,2,0.4702,-0.5052,0.5620,0.4558,0.1033,-0.0303,-0.0028,0.1823,0.0771,0.1052,9.7864,-1.5699,0.4063,0.0013,-0.0004,-0.0000,1.0000,0.2447,-0.0393,0.0102
573,Left,2,0.1994,0.0150,-0.9702,-0.1366,-0.0019,0.0134,-0.0001,-0.0185,0.0260,-0.0643,-3.7079,-0.8336,8.9771,-0.0000,0.0002,-0.0000,1.0000,-0.0927,-0.0208,0.2244
573,Right,2,0.1597,-0.1668,-0.8953,-0.3809,0.0074,0.0054,0.0017,0.0122,0.1591,-0.1039,-3.9156,1.6061,8.7393,0.0001,0.0001,0.0000,1.0000,-0.0979,0.0401,0.2185
573,Pelvis,2,0.4711,-0.5045,0.5627,0.4549,0.1209,-0.0241,-0.0038,0.1990,0.0219,0.0446,9.7224,-1.5724,0.4578,0.0015,-0.0003,-0.0000,1.0000,0.2431,-0.0393,0.0115
574,Left,2,0.1996,0.0150,-0.9702,-0.1366,-0.0031,0.0153,0.0010,-0.0027,0.0297,-0.0470,-3.7307,-0.8439,8.9855,-0.0000,0.0002,0.0000,1.0000,-0.0932,-0.0211,0.2247
574,Right,2,0.1597,-0.1668,-0.8952,-0.3811,0.0049,0.0048,0.0005,0.0207,0.1655,-0.0835,-3.9268,1.5989,8.7584,0.0001,0.0001,0.0000,1.0000,-0.0982,0.0400,0.2190
574,Pelvis,2,0.4721,-0.5036,0.5634,0.4540,0.1337,-0.0221,-0.0060,0.1953,-0.0270,-0.0199,9.6577,-1.5538,0.5028,0.0017,-0.0003,-0.0001,1.0000,0.2414,-0.0389,0.0126
575,Left,2,0.1997,0.0151,-0.9702,-0.1365,-0.0001,0.0159,0.0017,-0.0139,0.0307,-0.0417,-3.7245,-0.8438,8.9939,-0.0000,0.0002,0.0000,1.0000,-0.0931,-0.0211,0.2249
575,Right,2,0.1598,-0.1667,-0.8953,-0.3809,0.0050,0.0048,-0.0007,0.0179,0.1801,-0.0799,-3.9183,1.5903,8.7679,0.0001,0.0001,-0.0000,1.0000,-0.0979,0.0397,0.2192
575,Pelvis,2,0.4731,-0.5027,0.5642,0.4530,0.1349,-0.0209,-0.0060,0.1437,-0.0155,-0.0291,9.6567,-1.5005,0.4871,0.0017,-0.0003,-0.0001,1.0000,0.2414,-0.0376,0.0122
576,Left,2,0.2000,0.0152,-0.9701,-0.1364,-0.0013,0.0171,0.0016,0.0022,0.0238,-0.0343,-3.7478,-0.8440,8.9921,-0.0000,0.0002,0.0000,1.0000,-0.0936,-0.0211,0.2248
576,Right,2,0.1599,-0.1667,-0.8952,-0.3812,0.0074,0.0054,0.0011,0.0248,0.1937,-0.0952,-3.9102,1.5715,8.7583,0.0001,0.0001,0.0000,1.0000,-0.0977,0.0393,0.2190
576,Pelvis,2,0.4739,-0.5018,0.5650,0.4521,0.1227,-0.0198,-0.0049,0.0771,-0.0276,0.0218,9.7163,-1.4395,0.4964,0.0015,-0.0002,-0.0001,1.0000,0.2429,-0.0360,0.0124
577,Left,2,0.2002,0.0152,-0.9701,-0.1364,-0.0019,0.0177,0.0004,0.0037,0.0417,-0.0234,-3.7516,-0.8636,9.0007,-0.0000,0.0002,0.0000,1.0000,-0.0937,-0.0216,0.2250
577,Right,2,0.1600,-0.1667,-0.8952,-0.3811,0.0080,0.0030,0.0024,0.0242,0.1806,-0.0682,-3.9304,1.5845,8.7766,0.0001,0.0000,0.0000,1.0000,-0.0983,0.0396,0.2194
577,Pelvis,2,0.4746,-0.5012,0.5655,0.4514,0.0994,-0.0198,-0.0064,0.0801,-0.0552,0.0258,9.7190,-1.4388,0.5247,0.0012,-0.0002,-0.0001,1.0000,0.2430,-0.0360,0.0131
578,Left,2,0.2003,0.0153,-0.9701,-0.1363,0.0006,0.0146,-0.0020,0.0125,0.0157,-0.0090,-3.7750,-0.8443,9.0083,0.0000,0.0002,-0.0000,1.0000,-0.0943,-0.0211,0.2252
578,Right,2,0.1600,-0.1667,-0.8951,-0.3813,0.0055,0.0012,0.0024,0.0154,0.1724,-0.0670,-3.9305,1.5959,8.7757,0.0001,0.0000,0.0000,1.0000,-0.0983,0.0399,0.2194
578,Pelvis,2,0.4753,-0.5007,0.5658,0.4508,0.0735,-0.0251,-0.0135,0.0894,-0.1229,-0.0444,9.6464,-1.4299,0.5875,0.0009,-0.0003,-0.0002,1.0000,0.2411,-0.0358,0.0147
579,Right,2,0.1599,-0.1667,-0.8952,-0.3812,0.0061,-0.0006,0.0037,0.0167,0.1673,-0.0757,-3.9304,1.5971,8.7657,0.0001,-0.0000,0.0000,1.0000,-0.0983,0.0399,0.2191
579,Pelvis,2,0.4759,-0.5004,0.5659,0.4503,0.0428,-0.0305,-0.0174,0.0734,-0.1125,-0.0976,9.5971,-1.4049,0.5686,0.0005,-0.0004,-0.0002,1.0000,0.2399,-0.0352,0.0143
580,Left,2,0.2003,0.0152,-0.9701,-0.1364,0.0049,0.0061,-0.0013,0.0078,0.0256,-0.0383,-3.7582,-0.8485,8.9830,0.0001,0.0002,-0.0000,1.0000,-0.1878,-0.0425,0.4492
580,Right,2,0.1599,-0.1666,-0.8952,-0.3811,0.0073,-0.0036,0.0056,0.0227,0.1846,-0.0822,-3.9205,1.5793,8.7665,0.0001,-0.0000,0.0001,1.0000,-0.0980,0.0395,0.2192
580,Pelvis,2,0.4764,-0.5004,0.5659,0.4499,0.0160,-0.0337,-0.0140,0.0821,-0.0784,-0.0796,9.6153,-1.4181,0.5300,0.0002,-0.0004,-0.0002,1.0000,0.2404,-0.0355,0.0133
581,Left,2,0.2003,0.0152,-0.9701,-0.1364,0.0092,0.0000,-0.0024,-0.0080,0.0303,-0.0190,-3.7500,-0.8509,9.0072,0.0001,0.0000,-0.0000,1.0000,-0.0937,-0.0213,0.2252
581,Right,2,0.1599,-0.1666,-0.8953,-0.3810,0.0091,-0.0024,0.0074,0.0177,0.1739,-0.0681,-3.9291,1.5921,8.7758,0.0001,-0.0000,0.0001,1.0000,-0.0982,0.0398,0.2194
581,Pelvis,2,0.4767,-0.5005,0.5657,0.4496,-0.0022,-0.0357,-0.0109,0.1368,0.0001,-0.0002,9.6894,-1.4887,0.4521,-0.0000,-0.0004,-0.0001,1.0000,0.2422,-0.0372,0.0114
582,Left,2,0.2002,0.0152,-0.9701,-0.1364,0.0067,-0.0018,-0.0036,-0.0042,0.0080,-0.0173,-3.7596,-0.8300,9.0070,0.0001,-0.0000,-0.0000,1.0000,-0.0940,-0.0208,0.2252
582,Right,2,0.1599,-0.1666,-0.8953,-0.3810,0.0085,0.0000,0.0067,0.0022,0.2014,-0.0726,-3.8996,1.5846,8.7859,0.0001,0.0000,0.0001,1.0000,-0.0975,0.0396,0.2197
582,Pelvis,2,0.4770,-0.5006,0.5656,0.4493,0.0016,-0.0346,-0.0085,0.1905,-0.0149,0.0502,9.7316,-1.5464,0.4657,0.0000,-0.0004,-0.0001,1.0000,0.2433,-0.0387,0.0117
583,Left,2,0.2002,0.0152,-0.9701,-0.1365,0.0074,-0.0025,-0.0054,0.0051,0.0158,-0.0343,-3.7588,-0.8390,8.9880,0.0001,-0.0000,-0.0001,1.0000,-0.0940,-0.0210,0.2247
583,Right,2,0.1600,-0.1664,-0.8954,-0.3807,0.0073,-0.0024,0.0068,0.0248,0.1652,-0.0957,-3.9282,1.5861,8.7465,0.0001,-0.0000,0.0001,1.0000,-0.0982,0.0396,0.2187
583,Pelvis,2,0.4773,-0.5007,0.5655,0.4491,0.0059,-0.0358,-0.0081,0.2028,-0.0075,0.0119,9.6926,-1.5537,0.4502,0.0001,-0.0004,-0.0001,1.0000,0.2423,-0.0389,0.0114
584,Left,2,0.2001,0.0152,-0.9701,-0.1364,0.0086,-0.0024,-0.0042,-0.0038,0.0046,-0.0173,-3.7584,-0.8275,9.0077,0.0001,-0.0000,-0.0001,1.0000,-0.0940,-0.0207,0.2252
584,Right,2,0.1600,-0.1664,-0.8954,-0.3807,0.0078,-0.0054,0.0081,0.0114,0.1809,-0.0733,-3.9174,1.5895,8.7759,0.0001,-0.0001,0.0001,1.0000,-0.0980,0.0397,0.2194
584,Pelvis,2,0.4777,-0.5008,0.5654,0.4487,0.0158,-0.0414,-0.0045,0.2137,-0.0763,0.0020,9.6796,-1.5567,0.5109,0.0002,-0.0005,-0.0001,1.0000,0.2420,-0.0389,0.0129
585,Left,2,0.2000,0.0151,-0.9701,-0.1366,0.0086,-0.0037,-0.0072,-0.0026,0.0163,-0.0380,-3.7476,-0.8362,8.9890,0.0001,-0.0000,-0.0001,1.0000,-0.0937,-0.0209,0.2247
585,Right,2,0.1599,-0.1664,-0.8954,-0.3807,0.0072,-0.0060,0.0105,0.0210,0.1619,-0.0956,-3.9255,1.5911,8.7469,0.0001,-0.0001,0.0001,1.0000,-0.0982,0.0397,0.2187
585,Pelvis,2,0.4782,-0.5008,0.5654,0.4481,0.0226,-0.0347,-0.0033,0.1871,-0.0421,-0.0059,9.6768,-1.5335,0.4649,0.0003,-0.0004,-0.0000,1.0000,0.2419,-0.0384,0.0117
586,Left,2,0.2000,0.0151,-0.9701,-0.1366,0.0092,-0.0043,-0.0054,-0.0025,0.0153,-0.0380,-3.7465,-0.8348,8.9895,0.0001,-0.0001,-0.0001,1.0000,-0.0937,-0.0209,0.2247
586,Right,2,0.1598,-0.1663,-0.8955,-0.3807,0.0072,-0.0089,0.0143,0.0267,0.1717,-0.0663,-3.9334,1.5857,8.7770,0.0001,-0.0001,0.0002,1.0000,-0.0984,0.0396,0.2194
586,Pelvis,2,0.4785,-0.5009,0.5654,0.4477,0.0165,-0.0335,-0.0030,0.1462,-0.0571,-0.0004,9.6878,-1.4941,0.4687,0.0002,-0.0004,-0.0000,1.0000,0.2422,-0.0374,0.0118
587,Left,2,0.1998,0.0151,-0.9701,-0.1367,0.0110,-0.0049,-0.0054,0.0003,0.0232,-0.0370,-3.7453,-0.8428,8.9904,0.0001,-0.0001,-0.0001,1.0000,-0.0936,-0.0211,0.2248
587,Right,2,0.1596,-0.1662,-0.8956,-0.3806,0.0065,-0.0162,0.0181,0.0307,0.1635,-0.0623,-3.9398,1.5890,8.7779,0.0001,-0.0002,0.0002,1.0000,-0.0985,0.0397,0.2194
587,Pelvis,2,0.4788,-0.5011,0.5653,0.4473,0.0018,-0.0396,-0.0032,0.1257,-0.0267,-0.0562,9.6363,-1.4716,0.4269,0.0000,-0.0005,-0.0000,1.0000,0.2409,-0.0368,0.0108
588,Left,2,0.1998,0.0150,-0.9701,-0.1368,0.0129,-0.0073,-0.0072,-0.0004,0.0226,-0.0370,-3.7438,-0.8407,8.9912,0.0002,-0.0001,-0.0001,1.0000,-0.0936,-0.0210,0.2248
588,Right,2,0.1594,-0.1661,-0.8957,-0.3804,0.0070,-0.0204,0.0194,0.0124,0.1733,-0.0920,-3.9057,1.5906,8.7600,0.0001,-0.0003,0.0002,1.0000,-0.0977,0.0397,0.2190
588,Pelvis,2,0.4790,-0.5013,0.5651,0.4471,-0.0093,-0.0402,-0.0058,0.1441,0.0365,-0.0600,9.6318,-1.4961,0.3570,-0.0001,-0.0005,-0.0001,1.0000,0.2408,-0.0374,0.0091
589,Left,2,0.1997,0.0149,-0.9701,-0.1369,0.0147,-0.0055,-0.0078,-0.0258,0.0273,-0.0264,-3.7228,-0.8376,9.0118,0.0002,-0.0001,-0.0001,1.0000,-0.0931,-0.0210,0.2253
589,Right,2,0.1592,-0.1660,-0.8958,-0.3802,0.0100,-0.0217,0.0213,0.0243,0.1768,-0.0586,-3.9201,1.5866,8.7914,0.0001,-0.0003,0.0003,1.0000,-0.0981,0.0396,0.2198
589,Pelvis,2,0.4792,-0.5016,0.5649,0.4469,-0.0172,-0.0378,-0.0047,0.1647,0.0798,0.0086,9.6979,-1.5315,0.3094,-0.0002,-0.0005,-0.0001,1.0000,0.2424,-0.0383,0.0079
590,Left,2,0.1995,0.0148,-0.9702,-0.1370,0.0153,-0.0116,-0.0059,0.0029,0.0209,-0.0460,-3.7400,-0.8357,8.9835,0.0002,-0.0001,-0.0001,1.0000,-0.0935,-0.0209,0.2246
590,Right,2,0.1589,-0.1660,-0.8960,-0.3800,0.0137,-0.0211,0.0225,0.0169,0.1725,-0.1019,-3.8950,1.5890,8.7540,0.0002,-0.0003,0.0003,1.0000,-0.0974,0.0397,0.2188
590,Pelvis,2,0.4791,-0.5020,0.5646,0.4468,-0.0225,-0.0312,0.0000,0.1557,0.0855,0.0469,9.7371,-1.5308,0.2968,-0.0003,-0.0004,0.0000,1.0000,0.2434,-0.0383,0.0075
591,Left,2,0.1993,0.0147,-0.9702,-0.1370,0.0123,-0.0122,-0.0041,-0.0260,0.0274,-0.0480,-3.7080,-0.8325,8.9949,0.0002,-0.0002,-0.0001,1.0000,-0.0927,-0.0208,0.2249
591,Right,2,0.1586,-0.1660,-0.8961,-0.3799,0.0162,-0.0199,0.0212,-0.0284,0.2074,-0.0945,-3.8406,1.6040,8.7843,0.0002,-0.0002,0.0003,1.0000,-0.0961,0.0400,0.2196
591,Pelvis,2,0.4791,-0.5023,0.5644,0.4469,-0.0262,-0.0191,0.0018,0.1023,0.0830,0.0785,9.7761,-1.4821,0.2894,-0.0003,-0.0002,0.0000,1.0000,0.2444,-0.0370,0.0073
592,Left,2,0.1992,0.0147,-0.9702,-0.1371,0.0092,-0.0086,-0.0066,-0.0226,0.0265,-0.0570,-3.7055,-0.8309,8.9863,0.0001,-0.0001,-0.0001,1.0000,-0.0927,-0.0208,0.2246
592,Right,2,0.1584,-0.1661,-0.8962,-0.3797,0.0193,-0.0139,0.0199,-0.0078,0.1918,-0.1052,-3.8559,1.5998,8.7661,0.0002,-0.0002,0.0002,1.0000,-0.0964,0.0399,0.2191
592,Pelvis,2,0.4789,-0.5026,0.5641,0.4471,-0.0340,-0.0094,0.0037,0.0864,0.0710,0.0675,9.7672,-1.4642,0.2967,-0.0004,-0.0001,0.0000,1.0000,0.2442,-0.0366,0.0075
593,Left,2,0.1991,0.0148,-0.9702,-0.1371,0.0055,-0.0061,-0.0054,-0.0252,0.0009,-0.0156,-3.7238,-0.8095,9.0256,0.0001,-0.0001,-0.0001,1.0000,-0.0931,-0.0202,0.2256
593,Right,2,0.1583,-0.1661,-0.8963,-0.3796,0.0200,-0.0091,0.0173,-0.0105,0.1898,-0.1052,-3.8526,1.6059,8.7664,0.0003,-0.0001,0.0002,1.0000,-0.0963,0.0401,0.2192
593,Pelvis,2,0.4787,-0.5028,0.5639,0.4472,-0.0378,-0.0014,0.0029,0.1194,0.0805,0.0319,9.7274,-1.4942,0.2859,-0.0005,-0.0000,0.0000,1.0000,0.2432,-0.0373,0.0072
594,Left,2,0.1989,0.0148,-0.9703,-0.1372,0.0043,-0.0043,-0.0054,-0.0037,0.0187,-0.0496,-3.7220,-0.8294,8.9876,0.0001,-0.0001,-0.0001,1.0000,-0.0931,-0.0207,0.2247
594,Right,2,0.1581,-0.1663,-0.8962,-0.3796,0.0182,-0.0048,0.0142,-0.0065,0.1855,-0.0923,-3.8602,1.6124,8.7761,0.0002,-0.0001,0.0002,1.0000,-0.0965,0.0402,0.2194
594,Pelvis,2,0.4784,-0.5030,0.5637,0.4475,-0.0318,0.0030,0.0003,0.1748,0.0668,0.0126,9.7000,-1.5451,0.3036,-0.0004,0.0000,0.0000,1.0000,0.2425,-0.0386,0.0076
595,Left,2,0.1989,0.0148,-0.9703,-0.1372,0.0037,-0.0025,-0.0048,-0.0059,0.0294,-0.0613,-3.7112,-0.8388,8.9785,0.0000,-0.0000,-0.0001,1.0000,-0.0928,-0.0210,0.2245
595,Right,2,0.1580,-0.1663,-0.8963,-0.3795,0.0183,-0.0031,0.0111,-0.0088,0.1835,-0.0922,-3.8588,1.6176,8.7757,0.0002,-0.0000,0.0001,1.0000,-0.0965,0.0404,0.2194
595,Pelvis,2,0.4783,-0.5032,0.5636,0.4477,-0.0281,0.0079,0.0003,0.1765,0.0574,0.0139,9.7009,-1.5461,0.3134,-0.0004,0.0001,0.0000,1.0000,0.2425,-0.0386,0.0078
596,Left,2,0.1988,0.0149,-0.9703,-0.1372,0.0055,-0.0025,-0.0061,-0.0179,0.0306,-0.0560,-3.7008,-0.8379,8.9887,0.0001,-0.0000,-0.0001,1.0000,-0.0925,-0.0210,0.2247
596,Right,2,0.1579,-0.1664,-0.8963,-0.3796,0.0152,-0.0025,0.0098,0.0089,0.1919,-0.0817,-3.8682,1.6036,8.7860,0.0002,-0.0000,0.0001,1.0000,-0.0967,0.0400,0.2197
596,Pelvis,2,0.4781,-0.5033,0.5635,0.4479,-0.0244,0.0090,0.0020,0.1445,0.0899,-0.0051,9.6874,-1.5148,0.2786,-0.0003,0.0001,0.0000,1.0000,0.2422,-0.0379,0.0069
597,Left,2,0.1988,0.0149,-0.9703,-0.1372,0.0043,-0.0012,-0.0036,-0.0214,0.0073,-0.0363,-3.7104,-0.8174,9.0079,0.0001,-0.0000,-0.0000,1.0000,-0.0928,-0.0204,0.2252
597,Right,2,0.1578,-0.1665,-0.8962,-0.3797,0.0147,0.0006,0.0079,0.0079,0.1733,-0.0853,-3.8771,1.6173,8.7753,0.0002,0.0000,0.0001,1.0000,-0.0969,0.0404,0.2194
597,Pelvis,2,0.4778,-0.5033,0.5634,0.4482,-0.0232,0.0158,0.0010,0.1328,0.1436,0.0266,9.7218,-1.5116,0.2286,-0.0003,0.0002,0.0000,1.0000,0.2430,-0.0378,0.0057
598,Left,2,0.1987,0.0150,-0.9703,-0.1371,0.0049,0.0024,-0.0018,-0.0069,0.0142,-0.0623,-3.7102,-0.8271,8.9789,0.0001,0.0000,-0.0000,1.0000,-0.0927,-0.0207,0.2245
598,Right,2,0.1578,-0.1666,-0.8962,-0.3797,0.0178,0.0042,0.0072,0.0150,0.1978,-0.1273,-3.8490,1.5900,8.7466,0.0002,0.0001,0.0001,1.0000,-0.0962,0.0397,0.2187
598,Pelvis,2,0.4774,-0.5034,0.5635,0.4485,-0.0268,0.0243,0.0027,0.1137,0.1493,0.0130,9.7109,-1.4921,0.2251,-0.0003,0.0003,0.0000,1.0000,0.2428,-0.0373,0.0056
599,Left,2,0.1987,0.0151,-0.9703,-0.1370,0.0049,0.0049,-0.0019,-0.0222,0.0333,-0.0370,-3.7012,-0.8449,9.0085,0.0001,0.0001,-0.0000,1.0000,-0.0925,-0.0211,0.2252
599,Right,2,0.1578,-0.1667,-0.8962,-0.3798,0.0160,0.0073,0.0078,0.0123,0.1879,-0.0916,-3.8691,1.6062,8.7741,0.0002,0.0001,0.0001,1.0000,-0.0967,0.0401,0.2194
599,Pelvis,2,0.4770,-0.5034,0.5636,0.4488,-0.0287,0.0188,0.0026,0.1277,0.1224,-0.0008,9.6939,-1.5049,0.2594,-0.0004,0.0002,0.0000,1.0000,0.2424,-0.0376,0.0064
600,Left,2,0.1988,0.0151,-0.9703,-0.1370,0.0043,0.0043,-0.0019,-0.0194,0.0323,-0.0460,-3.7021,-0.8443,8.9984,0.0001,0.0001,-0.0000,1.0000,-0.0925,-0.0211,0.2250
600,Right,2,0.1579,-0.1668,-0.8961,-0.3799,0.0148,0.0078,0.0047,0.0138,0.1835,-0.0787,-3.8803,1.6110,8.7825,0.0002,0.0001,0.0001,1.0000,-0.0970,0.0402,0.2196
600,Pelvis,2,0.4768,-0.5035,0.5636,0.4489,-0.0232,0.0188,0.0023,0.1444,0.0918,-0.0242,9.6671,-1.5177,0.2940,-0.0003,0.0002,0.0000,1.0000,0.2417,-0.0379,0.0073
601,Right,2,0.1580,-0.1668,-0.8961,-0.3798,0.0135,0.0048,0.0048,0.0218,0.1803,-0.0974,-3.8818,1.6039,8.7623,0.0002,0.0001,0.0001,1.0000,-0.0970,0.0401,0.2191
601,Pelvis,2,0.4766,-0.5036,0.5636,0.4491,-0.0220,0.0145,0.0021,0.1363,0.0820,-0.0147,9.6775,-1.5093,0.3067,-0.0003,0.0002,0.0000,1.0000,0.2419,-0.0377,0.0076
602,Left,2,0.1990,0.0151,-0.9703,-0.1370,0.0045,0.0061,-0.0016,-0.0185,0.0204,-0.0451,-3.7089,-0.8333,8.9975,0.0001,0.0002,-0.0000,1.0000,-0.1854,-0.0417,0.4499
602,Right,2,0.1580,-0.1669,-0.8960,-0.3800,0.0123,0.0035,0.0030,0.0073,0.1835,-0.0698,-3.8822,1.6183,8.7902,0.0002,0.0000,0.0000,1.0000,-0.0970,0.0404,0.2198
602,Pelvis,2,0.4764,-0.5036,0.5635,0.4493,-0.0183,0.0072,0.0023,0.1473,0.0911,-0.0338,9.6570,-1.5192,0.2999,-0.0002,0.0001,0.0000,1.0000,0.2414,-0.0380,0.0075
603,Right,2,0.1581,-0.1668,-0.8960,-0.3799,0.0110,0.0030,0.0036,0.0052,0.1942,-0.0750,-3.8734,1.6111,8.7899,0.0001,0.0000,0.0000,1.0000,-0.0968,0.0402,0.2198
603,Pelvis,2,0.4764,-0.5037,0.5635,0.4492,-0.0153,0.0018,-0.0005,0.1295,0.0757,-0.0448,9.6481,-1.5008,0.3124,-0.0002,0.0000,-0.0000,1.0000,0.2412,-0.0375,0.0078
604,Left,2,0.1991,0.0151,-0.9702,-0.1370,0.0055,0.0049,-0.0010,-0.0013,0.0128,-0.0378,-3.7309,-0.8315,8.9966,0.0001,0.0001,-0.0000,1.0000,-0.1865,-0.0416,0.4498
604,Right,2,0.1580,-0.1669,-0.8960,-0.3800,0.0116,0.0012,0.0055,0.0179,0.1922,-0.0721,-3.8837,1.6046,8.7897,0.0001,0.0000,0.0001,1.0000,-0.0971,0.0401,0.2198
604,Pelvis,2,0.4763,-0.5038,0.5634,0.4494,-0.0129,-0.0049,-0.0008,0.1358,0.0907,-0.0256,9.6667,-1.5096,0.2993,-0.0002,-0.0001,-0.0000,1.0000,0.2417,-0.0377,0.0075
605,Right,2,0.1580,-0.1669,-0.8960,-0.3800,0.0098,0.0006,0.0055,0.0176,0.1863,-0.0808,-3.8837,1.6070,8.7794,0.0001,0.0000,0.0001,1.0000,-0.0971,0.0401,0.2195
605,Pelvis,2,0.4764,-0.5039,0.5634,0.4492,-0.0078,-0.0081,0.0025,0.1442,0.0744,-0.0024,9.6879,-1.5209,0.3143,-0.0001,-0.0001,0.0000,1.0000,0.2422,-0.0380,0.0079
606,Right,2,0.1579,-0.1669,-0.8960,-0.3801,0.0116,-0.0006,0.0073,0.0215,0.1942,-0.0731,-3.8838,1.6007,8.7893,0.0001,-0.0000,0.0001,1.0000,-0.0971,0.0400,0.2197
606,Pelvis,2,0.4763,-0.5040,0.5634,0.4491,-0.0047,-0.0087,0.0029,0.1573,0.0901,0.0086,9.6968,-1.5403,0.3001,-0.0001,-0.0001,0.0000,1.0000,0.2424,-0.0385,0.0075
607,Left,2,0.1991,0.0151,-0.9703,-0.1370,0.0073,0.0019,-0.0014,-0.0123,0.0196,-0.0354,-3.7211,-0.8343,9.0029,0.0003,0.0001,-0.0001,1.0000,-0.2790,-0.0627,0.6752
607,Right,2,0.1580,-0.1669,-0.8961,-0.3798,0.0116,0.0006,0.0085,-0.0008,0.1985,-0.0800,-3.8636,1.6131,8.7883,0.0001,0.0000,0.0001,1.0000,-0.0966,0.0403,0.2197
607,Pelvis,2,0.4764,-0.5040,0.5635,0.4490,0.0044,-0.0025,0.0022,0.1626,0.0941,0.0387,9.7259,-1.5504,0.2954,0.0001,-0.0000,0.0000,1.0000,0.2431,-0.0388,0.0074
608,Right,2,0.1579,-0.1669,-0.8961,-0.3798,0.0098,-0.0006,0.0073,0.0140,0.1761,-0.0895,-3.8828,1.6159,8.7684,0.0001,-0.0000,0.0001,1.0000,-0.0971,0.0404,0.2192
608,Pelvis,2,0.4764,-0.5039,0.5636,0.4488,0.0068,0.0024,0.0028,0.1114,0.1034,0.0197,9.7143,-1.5009,0.2807,0.0001,0.0000,0.0000,1.0000,0.2429,-0.0375,0.0070
609,Right,2,0.1580,-0.1668,-0.8962,-0.3796,0.0116,0.0006,0.0067,0.0147,0.1879,-0.0730,-3.8829,1.6102,8.7879,0.0001,0.0000,0.0001,1.0000,-0.0971,0.0402,0.2197
609,Pelvis,2,0.4764,-0.5039,0.5637,0.4487,0.0032,0.0029,0.0036,0.0869,0.0437,-0.0270,9.6698,-1.4667,0.3372,0.0000,0.0000,0.0000,1.0000,0.2417,-0.0367,0.0084
610,Right,2,0.1580,-0.1668,-0.8962,-0.3795,0.0122,0.0012,0.0067,0.0142,0.1987,-0.0782,-3.8734,1.6034,8.7879,0.0002,0.0000,0.0001,1.0000,-0.0968,0.0400,0.2197
610,Pelvis,2,0.4765,-0.5039,0.5637,0.4485,-0.0022,-0.0014,0.0049,0.1159,0.0466,-0.0229,9.6697,-1.4970,0.3352,-0.0000,-0.0000,0.0001,1.0000,0.2417,-0.0374,0.0084
611,Right,2,0.1579,-0.1669,-0.8962,-0.3795,0.0116,0.0018,0.0067,0.0004,0.1799,-0.0846,-3.8727,1.6256,8.7765,0.0001,0.0000,0.0001,1.0000,-0.0968,0.0406,0.2194
611,Pelvis,2,0.4764,-0.5040,0.5639,0.4483,-0.0053,0.0023,0.0040,0.1095,0.0994,0.0006,9.6944,-1.5040,0.2834,-0.0001,0.0000,0.0000,1.0000,0.2424,-0.0376,0.0071
612,Right,2,0.1580,-0.1668,-0.8963,-0.3792,0.0110,-0.0012,0.0086,0.0084,0.1933,-0.0997,-3.8634,1.6085,8.7673,0.0001,-0.0000,0.0001,1.0000,-0.0966,0.0402,0.2192
612,Pelvis,2,0.4764,-0.5041,0.5639,0.4484,-0.0077,-0.0002,0.0052,0.1407,0.1021,-0.0049,9.6845,-1.5344,0.2821,-0.0001,-0.0000,0.0001,1.0000,0.2421,-0.0383,0.0071
613,Right,2,0.1580,-0.1669,-0.8963,-0.3792,0.0116,0.0024,0.0073,0.0068,0.1913,-0.0997,-3.8632,1.6117,8.7668,0.0001,0.0000,0.0001,1.0000,-0.0966,0.0403,0.2192
613,Pelvis,2,0.4763,-0.5042,0.5639,0.4483,-0.0053,-0.0032,0.0038,0.1454,0.0732,-0.0105,9.6772,-1.5378,0.3114,-0.0001,-0.0000,0.0000,1.0000,0.2419,-0.0384,0.0078
614,Right,2,0.1579,-0.1669,-0.8964,-0.3791,0.0122,0.0012,0.0067,0.0103,0.1865,-0.0868,-3.8731,1.6159,8.7759,0.0002,0.0000,0.0001,1.0000,-0.0968,0.0404,0.2194
614,Pelvis,2,0.4761,-0.5043,0.5638,0.4485,-0.0071,-0.0039,0.0057,0.1163,0.0545,0.0168,9.7079,-1.5110,0.3293,-0.0001,-0.0000,0.0001,1.0000,0.2427,-0.0378,0.0082
615,Right,2,0.1578,-0.1670,-0.8963,-0.3793,0.0116,0.0018,0.0073,0.0110,0.1806,-0.0956,-3.8732,1.6186,8.7655,0.0001,0.0000,0.0001,1.0000,-0.0968,0.0404,0.2191
615,Pelvis,2,0.4760,-0.5044,0.5640,0.4482,-0.0095,0.0028,0.0060,0.1009,0.0434,0.0264,9.7183,-1.5034,0.3384,-0.0001,0.0000,0.0001,1.0000,0.2430,-0.0376,0.0085
616,Right,2,0.1579,-0.1670,-0.8963,-0.3792,0.0141,0.0030,0.0079,0.0002,0.1934,-0.0603,-3.8734,1.6243,8.8037,0.0002,0.0000,0.0001,1.0000,-0.0968,0.0406,0.2201
616,Pelvis,2,0.4759,-0.5044,0.5641,0.4483,-0.0046,0.0108,0.0061,0.1460,0.0713,0.0306,9.7163,-1.5522,0.3167,-0.0001,0.0001,0.0001,1.0000,0.2429,-0.0388,0.0079
617,Right,2,0.1579,-0.1670,-0.8963,-0.3793,0.0135,0.0042,0.0078,0.0299,0.1963,-0.0772,-3.8847,1.5982,8.7849,0.0002,0.0001,0.0001,1.0000,-0.0971,0.0399,0.2196
617,Pelvis,2,0.4757,-0.5043,0.5642,0.4484,0.0012,0.0147,0.0005,0.1682,0.0571,0.0360,9.7178,-1.5739,0.3377,0.0000,0.0002,0.0000,1.0000,0.2429,-0.0393,0.0084
618,Right,2,0.1580,-0.1671,-0.8962,-0.3793,0.0148,0.0061,0.0078,0.0105,0.1848,-0.0661,-3.8848,1.6220,8.7925,0.0002,0.0001,0.0001,1.0000,-0.0971,0.0405,0.2198
618,Pelvis,2,0.4756,-0.5041,0.5645,0.4484,0.0078,0.0196,-0.0014,0.1869,0.0237,0.0632,9.7406,-1.5960,0.3777,0.0001,0.0002,-0.0000,1.0000,0.2435,-0.0399,0.0094
619,Right,2,0.1580,-0.1672,-0.8962,-0.3793,0.0148,0.0060,0.0072,0.0141,0.1877,-0.0888,-3.8764,1.6148,8.7724,0.0002,0.0001,0.0001,1.0000,-0.0969,0.0403,0.2193
619,Pelvis,2,0.4755,-0.5039,0.5648,0.4483,0.0103,0.0245,-0.0020,0.1775,0.0286,0.0318,9.7104,-1.5853,0.3770,0.0001,0.0003,-0.0000,1.0000,0.2428,-0.0396,0.0093
620,Right,2,0.1580,-0.1672,-0.8963,-0.3792,0.0154,0.0054,0.0084,0.0168,0.1955,-0.0811,-3.8777,1.6097,8.7815,0.0002,0.0001,0.0001,1.0000,-0.0969,0.0402,0.2196
620,Pelvis,2,0.4754,-0.5038,0.5651,0.4482,0.0001,0.0225,0.0039,0.1720,0.0209,-0.0775,9.6023,-1.5660,0.3839,0.0000,0.0003,0.0000,1.0000,0.2401,-0.0391,0.0095
621,Right,2,0.1581,-0.1672,-0.8963,-0.3791,0.0148,0.0054,0.0066,0.0069,0.1869,-0.0799,-3.8782,1.6235,8.7798,0.0002,0.0001,0.0001,1.0000,-0.0969,0.0405,0.2195
621,Pelvis,2,0.4752,-0.5038,0.5653,0.4481,-0.0064,0.0162,0.0082,0.2206,0.0265,-0.0898,9.5824,-1.6164,0.3865,-0.0001,0.0002,0.0001,1.0000,0.2396,-0.0404,0.0096
622,Right,2,0.1581,-0.1674,-0.8963,-0.3791,0.0185,0.0085,0.0114,0.0207,0.1935,-0.0909,-3.8801,1.6080,8.7698,0.0002,0.0001,0.0001,1.0000,-0.0970,0.0401,0.2193
622,Pelvis,2,0.4751,-0.5038,0.5654,0.4480,-0.0014,0.0087,0.0114,0.2393,0.0456,0.0307,9.6987,-1.6569,0.3764,-0.0000,0.0001,0.0001,1.0000,0.2425,-0.0414,0.0094
623,Right,2,0.1582,-0.1675,-0.8962,-0.3791,0.0234,0.0121,0.0113,0.0083,0.1886,-0.0809,-3.8816,1.6239,8.7772,0.0003,0.0002,0.0001,1.0000,-0.0970,0.0405,0.2195
623,Pelvis,2,0.4750,-0.5038,0.5658,0.4477,0.0014,0.0207,0.0184,0.2323,0.0290,0.1510,9.8172,-1.6716,0.3984,0.0000,0.0003,0.0002,1.0000,0.2454,-0.0417,0.0099
624,Right,2,0.1583,-0.1678,-0.8962,-0.3791,0.0266,0.0164,0.0142,0.0042,0.1900,-0.0721,-3.8842,1.6312,8.7845,0.0003,0.0002,0.0002,1.0000,-0.0971,0.0407,0.2196
624,Pelvis,2,0.4748,-0.5036,0.5663,0.4475,0.0083,0.0407,0.0238,0.2964,0.0217,0.1921,9.8468,-1.7462,0.4179,0.0001,0.0005,0.0003,1.0000,0.2462,-0.0436,0.0103
625,Right,2,0.1584,-0.1680,-0.8962,-0.3789,0.0241,0.0158,0.0118,0.0117,0.1740,-0.0856,-3.8969,1.6373,8.7624,0.0003,0.0002,0.0001,1.0000,-0.0974,0.0409,0.2191
625,Pelvis,2,0.4745,-0.5032,0.5670,0.4474,0.0241,0.0572,0.0231,0.3480,0.0416,0.0693,9.7163,-1.7893,0.4093,0.0003,0.0007,0.0003,1.0000,0.2429,-0.0447,0.0100
626,Right,2,0.1585,-0.1681,-0.8962,-0.3787,0.0191,0.0091,0.0108,0.0186,0.1742,-0.0955,-3.8995,1.6328,8.7511,0.0002,0.0001,0.0001,1.0000,-0.0975,0.0408,0.2188
626,Pelvis,2,0.4742,-0.5028,0.5678,0.4471,0.0409,0.0539,0.0156,0.3334,0.0496,-0.0728,9.5762,-1.7630,0.4084,0.0005,0.0007,0.0002,1.0000,0.2394,-0.0440,0.0100
627,Right,2,0.1585,-0.1682,-0.8962,-0.3787,0.0190,0.0067,0.0127,0.0160,0.1884,-0.0918,-3.8914,1.6286,8.7599,0.0002,0.0001,0.0002,1.0000,-0.0973,0.0406,0.2190
627,Pelvis,2,0.4741,-0.5021,0.5686,0.4469,0.0577,0.0456,0.0073,0.3258,0.0637,-0.1151,9.5347,-1.7542,0.4069,0.0007,0.0006,0.0001,1.0000,0.2384,-0.0438,0.0100
628,Right,2,0.1585,-0.1683,-0.8963,-0.3784,0.0183,0.0013,0.0146,0.0105,0.1849,-0.1134,-3.8820,1.6325,8.7393,0.0002,0.0000,0.0002,1.0000,-0.0971,0.0407,0.2185
628,Pelvis,2,0.4743,-0.5014,0.5695,0.4465,0.0635,0.0398,-0.0017,0.2246,0.0729,-0.0822,9.5814,-1.6650,0.4026,0.0008,0.0005,-0.0000,1.0000,0.2395,-0.0416,0.0099
629,Right,2,0.1584,-0.1684,-0.8963,-0.3784,0.0201,-0.0012,0.0135,0.0049,0.1900,-0.0957,-3.8814,1.6392,8.7580,0.0003,-0.0000,0.0002,1.0000,-0.0970,0.0409,0.2190
629,Pelvis,2,0.4745,-0.5007,0.5701,0.4462,0.0554,0.0314,-0.0048,0.1811,0.1107,-0.0438,9.6268,-1.6315,0.3730,0.0007,0.0004,-0.0001,1.0000,0.2407,-0.0408,0.0092
630,Left,2,0.2007,0.0153,-0.9699,-0.1367,0.0033,0.0081,-0.0019,-0.0163,0.0294,-0.0403,-3.7315,-0.8363,8.9932,0.0009,0.0023,-0.0005,1.0000,-2.1339,-0.4846,5.1756
630,Right,2,0.1584,-0.1685,-0.8964,-0.3782,0.0196,0.0025,0.0152,0.0058,0.1719,-0.0777,-3.9001,1.6560,8.7662,0.0002,0.0000,0.0002,1.0000,-0.0975,0.0413,0.2192
630,Pelvis,2,0.4747,-0.5003,0.5705,0.4459,0.0426,0.0198,-0.0053,0.1985,0.0872,-0.0083,9.6582,-1.6511,0.4067,0.0005,0.0002,-0.0001,1.0000,0.2415,-0.0413,0.0101
631,Left,2,0.2008,0.0155,-0.9699,-0.1368,0.0035,0.0208,0.0003,-0.0229,0.0067,-0.0395,-3.7419,-0.8312,8.9901,0.0000,0.0003,0.0000,1.0000,-0.0935,-0.0208,0.2248
631,Right,2,0.1583,-0.1685,-0.8964,-0.3781,0.0165,0.0008,0.0159,-0.0067,0.1784,-0.0945,-3.8803,1.6601,8.7557,0.0002,0.0000,0.0002,1.0000,-0.0970,0.0414,0.2189
631,Pelvis,2,0.4749,-0.4997,0.5710,0.4457,0.0345,0.0254,-0.0090,0.2616,0.0984,0.0111,9.6680,-1.7172,0.4084,0.0004,0.0003,-0.0001,1.0000,0.2417,-0.0430,0.0101
632,Right,2,0.1582,-0.1685,-0.8966,-0.3778,0.0127,-0.0048,0.0118,-0.0002,0.1660,-0.0993,-3.8890,1.6645,8.7455,0.0002,-0.0001,0.0001,1.0000,-0.0972,0.0416,0.2186
632,Pelvis,2,0.4751,-0.4993,0.5715,0.4454,0.0367,0.0201,-0.0148,0.3137,0.0995,-0.0391,9.6098,-1.7629,0.4167,0.0005,0.0003,-0.0002,1.0000,0.2402,-0.0441,0.0103
633,Left,2,0.2013,0.0154,-0.9698,-0.1367,0.0035,0.0263,0.0045,-0.0125,0.0281,-0.0306,-3.7549,-0.8539,8.9923,0.0001,0.0007,0.0001,1.0000,-0.1874,-0.0428,0.4497
633,Right,2,0.1581,-0.1684,-0.8967,-0.3775,0.0090,-0.0084,0.0119,0.0128,0.1765,-0.1014,-3.8879,1.6485,8.7469,0.0001,-0.0001,0.0001,1.0000,-0.0972,0.0412,0.2187
633,Pelvis,2,0.4756,-0.4988,0.5719,0.4450,0.0412,0.0046,-0.0259,0.3229,0.0892,-0.1156,9.5327,-1.7580,0.4274,0.0005,0.0001,-0.0003,1.0000,0.2383,-0.0440,0.0106
634,Right,2,0.1581,-0.1683,-0.8969,-0.3771,0.0077,-0.0096,0.0107,-0.0025,0.1739,-0.1043,-3.8753,1.6608,8.7468,0.0001,-0.0001,0.0001,1.0000,-0.0969,0.0415,0.2187
635,Right,2,0.1579,-0.1681,-0.8971,-0.3768,0.0058,-0.0120,0.0114,0.0005,0.1690,-0.0914,-3.8823,1.6643,8.7573,0.0001,-0.0001,0.0001,1.0000,-0.0971,0.0416,0.2189
636,Right,2,0.1577,-0.1680,-0.8972,-0.3767,0.0063,-0.0174,0.0152,0.0293,0.1638,-0.0725,-3.9086,1.6493,8.7693,0.0001,-0.0002,0.0002,1.0000,-0.0978,0.0412,0.2192
636,Pelvis,2,0.4781,-0.4970,0.5721,0.4440,0.0588,-0.0235,-0.0397,0.3821,0.0705,-0.0866,9.5548,-1.8030,0.4483,0.0022,-0.0009,-0.0015,1.0000,0.7164,-0.1364,0.0340
637,Left,2,0.2022,0.0149,-0.9697,-0.1360,0.0108,0.0228,0.0104,0.0036,0.0068,-0.0357,-3.7863,-0.8317,8.9756,0.0005,0.0011,0.0005,1.0000,-0.3776,-0.0839,0.8979
637,Right,2,0.1575,-0.1678,-0.8973,-0.3766,0.0093,-0.0223,0.0148,0.0105,0.1767,-0.0934,-3.8743,1.6506,8.7613,0.0001,-0.0003,0.0002,1.0000,-0.0969,0.0412,0.2190
637,Pelvis,2,0.4793,-0.4965,0.5723,0.4430,0.0797,-0.0419,-0.0423,0.4124,0.0732,-0.0781,9.5625,-1.8181,0.4383,0.0010,-0.0005,-0.0005,1.0000,0.2390,-0.0456,0.0110
638,Right,2,0.1571,-0.1678,-0.8973,-0.3769,0.0111,-0.0222,0.0202,0.0016,0.1677,-0.0923,-3.8683,1.6643,8.7624,0.0001,-0.0003,0.0003,1.0000,-0.0968,0.0416,0.2190
638,Pelvis,2,0.4806,-0.4958,0.5726,0.4419,0.0880,-0.0439,-0.0347,0.3784,0.0562,0.0080,9.6538,-1.7887,0.4453,0.0011,-0.0005,-0.0004,1.0000,0.2413,-0.0448,0.0112
639,Right,2,0.1567,-0.1678,-0.8972,-0.3772,0.0118,-0.0204,0.0196,0.0145,0.1826,-0.0639,-3.8734,1.6515,8.7944,0.0001,-0.0003,0.0002,1.0000,-0.0969,0.0412,0.2198
639,Pelvis,2,0.4817,-0.4951,0.5730,0.4412,0.1034,-0.0342,-0.0314,0.3925,0.0692,0.0889,9.7337,-1.8082,0.4323,0.0013,-0.0004,-0.0004,1.0000,0.2433,-0.0453,0.0109
640,Right,2,0.1565,-0.1677,-0.8973,-0.3770,0.0131,-0.0162,0.0182,0.0080,0.1828,-0.0767,-3.8589,1.6550,8.7860,0.0002,-0.0002,0.0002,1.0000,-0.0965,0.0413,0.2196
640,Pelvis,2,0.4827,-0.4941,0.5734,0.4405,0.1191,-0.0285,-0.0350,0.3921,0.0442,0.0519,9.6981,-1.7906,0.4528,0.0015,-0.0004,-0.0004,1.0000,0.2424,-0.0449,0.0113
641,Left,2,0.2024,0.0145,-0.9698,-0.1355,0.0136,0.0094,0.0081,-0.0046,0.0067,-0.0235,-3.7968,-0.8216,8.9854,0.0007,0.0005,0.0004,1.0000,-0.3792,-0.0829,0.8987
641,Right,2,0.1564,-0.1676,-0.8975,-0.3768,0.0053,-0.0093,0.0186,-0.0021,0.1856,-0.1024,-3.8358,1.6567,8.7673,0.0001,-0.0001,0.0002,1.0000,-0.0959,0.0414,0.2192
641,Pelvis,2,0.4839,-0.4931,0.5738,0.4398,0.1263,-0.0279,-0.0365,0.3316,-0.0054,-0.0226,9.6338,-1.7046,0.4900,0.0016,-0.0003,-0.0005,1.0000,0.2408,-0.0427,0.0123
642,Left,2,0.2022,0.0144,-0.9698,-0.1353,0.0164,0.0020,0.0050,0.0177,0.0017,-0.0265,-3.8160,-0.8173,8.9744,0.0002,0.0000,0.0001,1.0000,-0.0954,-0.0205,0.2244
642,Right,2,0.1563,-0.1675,-0.8976,-0.3765,-0.0018,0.0028,0.0292,-0.0049,0.1574,-0.0922,-3.8528,1.6798,8.7663,-0.0000,0.0000,0.0004,1.0000,-0.0963,0.0420,0.2192
642,Pelvis,2,0.4851,-0.4921,0.5742,0.4390,0.1275,-0.0364,-0.0379,0.2903,-0.0430,-0.1051,9.5591,-1.6374,0.5163,0.0016,-0.0005,-0.0005,1.0000,0.2390,-0.0411,0.0129
643,Left,2,0.2021,0.0142,-0.9699,-0.1353,0.0195,0.0002,0.0044,0.0071,0.0033,-0.0211,-3.8068,-0.8124,8.9846,0.0002,0.0000,0.0001,1.0000,-0.0952,-0.0204,0.2246
643,Right,2,0.1566,-0.1674,-0.8981,-0.3754,-0.0076,0.0152,0.0508,0.0284,0.1789,-0.0617,-3.8743,1.6464,8.7973,-0.0001,0.0002,0.0006,1.0000,-0.0968,0.0411,0.2199
643,Pelvis,2,0.4864,-0.4913,0.5745,0.4382,0.1238,-0.0492,-0.0411,0.2791,-0.0266,-0.1187,9.5498,-1.6159,0.4930,0.0015,-0.0006,-0.0005,1.0000,0.2387,-0.0405,0.0124
644,Left,2,0.2020,0.0140,-0.9699,-0.1353,0.0213,0.0039,0.0068,0.0276,0.0162,-0.0028,-3.8269,-0.8267,8.9948,0.0003,0.0000,0.0001,1.0000,-0.0957,-0.0207,0.2249
644,Right,2,0.1566,-0.1674,-0.8984,-0.3745,-0.0045,0.0157,0.0685,0.0146,0.1553,-0.0990,-3.8646,1.6674,8.7559,-0.0001,0.0002,0.0009,1.0000,-0.0966,0.0416,0.2189
644,Pelvis,2,0.4878,-0.4906,0.5745,0.4374,0.1060,-0.0651,-0.0456,0.2266,-0.0234,-0.1080,9.5703,-1.5547,0.4745,0.0013,-0.0008,-0.0006,1.0000,0.2392,-0.0390,0.0120
645,Left,2,0.2021,0.0138,-0.9699,-0.1351,0.0242,0.0119,0.0129,0.0138,0.0383,-0.0079,-3.8091,-0.8399,8.9955,0.0003,0.0001,0.0002,1.0000,-0.0952,-0.0211,0.2249
645,Right,2,0.1568,-0.1675,-0.8987,-0.3737,0.0060,0.0218,0.0763,0.0288,0.1372,-0.0780,-3.8949,1.6766,8.7637,0.0001,0.0003,0.0010,1.0000,-0.0974,0.0418,0.2191
645,Pelvis,2,0.4891,-0.4900,0.5743,0.4368,0.0795,-0.0737,-0.0513,0.1580,-0.0427,-0.0975,9.5926,-1.4738,0.4720,0.0010,-0.0009,-0.0006,1.0000,0.2398,-0.0370,0.0120
646,Left,2,0.2023,0.0135,-0.9699,-0.1350,0.0236,0.0168,0.0097,0.0265,-0.0052,-0.0139,-3.8323,-0.7949,8.9833,0.0003,0.0002,0.0001,1.0000,-0.0958,-0.0200,0.2246
646,Right,2,0.1570,-0.1677,-0.8992,-0.3724,0.0062,0.0300,0.0858,0.0364,0.1715,-0.0586,-3.8889,1.6580,8.7921,0.0001,0.0004,0.0011,1.0000,-0.0972,0.0413,0.2198
646,Pelvis,2,0.4904,-0.4898,0.5738,0.4363,0.0477,-0.0910,-0.0539,0.1563,0.0005,-0.0726,9.6212,-1.4684,0.4127,0.0006,-0.0011,-0.0007,1.0000,0.2405,-0.0369,0.0106
647,Left,2,0.2024,0.0132,-0.9699,-0.1350,0.0200,0.0192,0.0084,-0.0022,-0.0049,-0.0475,-3.7972,-0.7797,8.9629,0.0002,0.0002,0.0001,1.0000,-0.0949,-0.0196,0.2241
647,Right,2,0.1571,-0.1679,-0.8997,-0.3710,0.0067,0.0235,0.0915,0.0284,0.1755,-0.0626,-3.8814,1.6675,8.7892,0.0001,0.0003,0.0011,1.0000,-0.0970,0.0416,0.2198
647,Pelvis,2,0.4919,-0.4900,0.5728,0.4357,0.0196,-0.1375,-0.0613,0.0892,-0.0369,-0.0499,9.6554,-1.3864,0.4153,0.0002,-0.0017,-0.0008,1.0000,0.2413,-0.0348,0.0108
648,Left,2,0.2028,0.0129,-0.9698,-0.1349,0.0211,0.0211,0.0139,-0.0079,0.0349,-0.0379,-3.7920,-0.8126,8.9726,0.0003,0.0003,0.0002,1.0000,-0.0947,-0.0204,0.2243
648,Right,2,0.1572,-0.1679,-0.9003,-0.3696,0.0081,0.0107,0.0931,0.0588,0.1456,-0.0868,-3.9111,1.6675,8.7488,0.0001,0.0001,0.0012,1.0000,-0.0978,0.0416,0.2187
648,Pelvis,2,0.4933,-0.4904,0.5715,0.4355,-0.0087,-0.1381,-0.0783,0.0894,-0.0028,-0.0934,9.6166,-1.3689,0.3471,-0.0001,-0.0017,-0.0010,1.0000,0.2404,-0.0345,0.0091
649,Left,2,0.2031,0.0124,-0.9697,-0.1349,0.0296,0.0340,0.0138,0.0116,0.0200,-0.0407,-3.8179,-0.7964,8.9600,0.0004,0.0004,0.0002,1.0000,-0.0953,-0.0200,0.2240
649,Right,2,0.1569,-0.1682,-0.9009,-0.3681,0.0211,-0.0045,0.1089,0.0424,0.2135,-0.1191,-3.8415,1.6377,8.7506,0.0003,-0.0001,0.0014,1.0000,-0.0961,0.0408,0.2188
649,Pelvis,2,0.4951,-0.4904,0.5700,0.4354,0.0078,-0.1471,-0.1178,0.2454,0.0655,-0.2139,9.4818,-1.4927,0.2630,0.0001,-0.0018,-0.0015,1.0000,0.2370,-0.0377,0.0070
650,Left,2,0.2037,0.0120,-0.9697,-0.1347,0.0411,0.0451,0.0192,-0.0342,0.0307,-0.0589,-3.7782,-0.7864,8.9580,0.0005,0.0006,0.0002,1.0000,-0.0943,-0.0198,0.2240
650,Right,2,0.1566,-0.1687,-0.9012,-0.3672,0.0379,0.0040,0.1221,0.0410,0.2281,-0.0936,-3.8373,1.6474,8.7793,0.0005,0.0001,0.0015,1.0000,-0.0960,0.0409,0.2195
650,Pelvis,2,0.4979,-0.4905,0.5680,0.4346,0.0501,-0.2446,-0.1455,0.1603,-0.0439,-0.1863,9.5252,-1.3661,0.3150,0.0006,-0.0031,-0.0018,1.0000,0.2380,-0.0346,0.0086
651,Left,2,0.2045,0.0112,-0.9695,-0.1344,0.0519,0.0728,0.0273,-0.0472,0.0788,-0.0212,-3.7826,-0.8211,8.9944,0.0006,0.0009,0.0003,1.0000,-0.0944,-0.0207,0.2249
651,Right,2,0.1563,-0.1691,-0.9020,-0.3652,0.0385,0.0035,0.1264,-0.0316,0.1656,-0.1277,-3.8079,1.7514,8.7327,0.0005,0.0000,0.0016,1.0000,-0.0953,0.0435,0.2183
651,Pelvis,2,0.5013,-0.4908,0.5657,0.4334,0.0676,-0.3044,-0.1419,0.0496,-0.2361,-0.2237,9.5082,-1.1912,0.4257,0.0008,-0.0038,-0.0018,1.0000,0.2376,-0.0302,0.0115
652,Left,2,0.2066,0.0099,-0.9692,-0.1338,0.0674,0.1726,0.0757,-0.1949,0.5185,-0.0250,-3.5659,-1.1894,9.0541,0.0008,0.0022,0.0009,1.0000,-0.0886,-0.0300,0.2265
652,Right,2,0.1558,-0.1690,-0.9024,-0.3644,0.0042,-0.0356,0.0922,-0.0816,-0.0113,-0.1636,-3.8581,1.9110,8.6356,0.0001,-0.0004,0.0012,1.0000,-0.0966,0.0477,0.2159
652,Pelvis,2,0.5052,-0.4906,0.5638,0.4315,0.1426,-0.3181,-0.1471,-0.0003,-0.5647,-0.2358,9.5112,-1.0581,0.6728,0.0018,-0.0040,-0.0018,1.0000,0.2377,-0.0269,0.0177
653,Left,2,0.2119,0.0069,-0.9684,-0.1311,0.1336,0.4464,0.2617,-0.9961,1.6355,0.0411,-2.6752,-2.0311,9.4596,0.0017,0.0056,0.0033,1.0000,-0.0654,-0.0514,0.2368
653,Right,2,0.1553,-0.1679,-0.9031,-0.3634,-0.0618,-0.0744,0.0513,-0.1088,0.0161,-0.1493,-3.8135,1.9116,8.6716,-0.0008,-0.0009,0.0006,1.0000,-0.0956,0.0479,0.2167
653,Pelvis,2,0.5095,-0.4881,0.5640,0.4290,0.3725,-0.1960,-0.1481,0.3208,-1.1258,0.0299,9.7525,-1.2804,1.2233,0.0047,-0.0024,-0.0019,1.0000,0.2437,-0.0326,0.0310
654,Left,2,0.2235,-0.0049,-0.9668,-0.1238,0.6685,1.0494,0.7582,-1.3274,5.6911,1.0012,-1.9882,-5.7998,10.6545,0.0084,0.0131,0.0095,0.9998,-0.0448,-0.1477,0.2657
654,Right,2,0.1548,-0.1666,-0.9038,-0.3626,-0.0848,-0.0688,0.0683,0.1807,0.2859,-0.0981,-3.8512,1.5202,8.7945,-0.0011,-0.0009,0.0009,1.0000,-0.0965,0.0382,0.2197
654,Pelvis,2,0.5144,-0.4829,0.5677,0.4242,0.7400,-0.0837,-0.0626,0.9126,-0.9831,-0.3436,9.3206,-1.7995,1.1623,0.0093,-0.0010,-0.0008,1.0000,0.2329,-0.0454,0.0289
655,Left,2,0.2470,-0.0366,-0.9619,-0.1111,1.9930,2.2317,1.4972,-0.8773,7.7198,4.1983,-3.9968,-7.5074,13.5825,0.0249,0.0279,0.0187,0.9991,-0.0868,-0.1978,0.3373
655,Right,2,0.1546,-0.1659,-0.9048,-0.3604,-0.0406,-0.0299,0.1098,0.1619,0.4054,-0.0006,-3.7917,1.4616,8.9417,-0.0005,-0.0004,0.0014,1.0000,-0.0949,0.0365,0.2235
655,Pelvis,2,0.5198,-0.4773,0.5735,0.4161,0.9980,-0.1287,0.1271,1.0213,-0.1277,-0.4192,9.2203,-2.0384,0.3564,0.0125,-0.0016,0.0016,0.9999,0.2306,-0.0507,0.0086
656,Left,2,0.2787,-0.0772,-0.9517,-0.1028,2.7032,3.0348,1.2854,-5.5880,7.8544,5.6702,-1.9190,-5.4945,17.2939,0.0338,0.0379,0.0161,0.9986,-0.0293,-0.1525,0.4287
656,Right,2,0.1552,-0.1658,-0.9057,-0.3580,-0.0007,0.0424,0.0855,0.0687,0.4086,0.0523,-3.7451,1.5356,9.0058,-0.0000,0.0005,0.0011,1.0000,-0.0936,0.0383,0.2252
656,Pelvis,2,0.5242,-0.4727,0.5798,0.4070,0.9746,-0.1404,0.2657,-0.1250,0.3651,0.3484,10.0966,-1.1566,-0.3443,0.0122,-0.0018,0.0033,0.9999,0.2525,-0.0280,-0.0085
657,Left,2,0.2923,-0.0803,-0.9472,-0.1046,0.1861,1.1629,-0.1592,-13.2204,12.1166,6.6566,3.4280,-7.0153,23.0630,0.0023,0.0145,-0.0020,0.9999,0.0937,-0.1769,0.5748
657,Right,2,0.1561,-0.1659,-0.9056,-0.3577,-0.0101,0.0714,0.0058,-0.1615,0.1301,-0.0491,-3.7213,1.8690,8.8335,-0.0001,0.0009,0.0001,1.0000,-0.0928,0.0467,0.2209
657,Pelvis,2,0.5284,-0.4713,0.5827,0.3989,0.6472,-0.3384,0.2498,-0.8700,-0.1569,1.2560,11.0925,-0.5031,-0.0443,0.0081,-0.0042,0.0031,1.0000,0.2774,-0.0117,-0.0000
658,Left,2,0.2862,-0.0565,-0.9483,-0.1252,-1.2956,-0.8084,-2.0035,-16.8539,17.0492,-1.4970,11.9489,-11.5633,19.1705,-0.0162,-0.0101,-0.0250,0.9995,0.2866,-0.2885,0.4869
658,Right,2,0.1575,-0.1658,-0.9055,-0.3574,-0.0077,0.0886,-0.0498,-0.0121,0.2812,-0.0445,-3.7560,1.6530,8.8688,-0.0001,0.0011,-0.0006,1.0000,-0.0936,0.0414,0.2218
658,Pelvis,2,0.5337,-0.4695,0.5825,0.3943,0.4426,-0.3671,-0.0624,-1.6838,-0.7657,2.1914,12.1400,0.2813,0.2497,0.0055,-0.0046,-0.0008,1.0000,0.3035,0.0068,0.0077
659,Left,2,0.2643,-0.0213,-0.9536,-0.1428,-2.0567,-2.1942,-1.9621,-20.6914,5.2421,5.1383,10.0521,0.6827,24.0383,-0.0257,-0.0274,-0.0245,0.9990,0.2353,0.0267,0.6070
659,Right,2,0.1589,-0.1658,-0.9052,-0.3577,0.0014,0.1013,-0.0838,-0.1629,0.1371,-0.1291,-3.7265,1.8316,8.7508,0.0000,0.0013,-0.0010,1.0000,-0.0928,0.0459,0.2189
659,Pelvis,2,0.5384,-0.4641,0.5828,0.3937,0.4355,-0.0620,-0.3750,-0.6181,-0.9365,0.4384,10.2841,-0.4162,0.6390,0.0054,-0.0008,-0.0047,1.0000,0.2570,-0.0117,0.0161
660,Left,2,0.2211,0.0157,-0.9637,-0.1487,-2.2066,-3.9298,-1.0081,-14.7092,0.4648,10.8460,2.8433,2.3334,25.1089,-0.0276,-0.0491,-0.0126,0.9983,0.0411,0.0750,0.6283
660,Right,2,0.1604,-0.1652,-0.9052,-0.3572,-0.0265,0.0735,-0.1050,-0.0989,0.1226,-0.1088,-3.8111,1.7853,8.7452,-0.0003,0.0009,-0.0013,1.0000,-0.0950,0.0448,0.2187
660,Pelvis,2,0.5446,-0.4567,0.5835,0.3929,0.5960,-0.0593,-0.4866,1.3478,-0.6906,-0.1914,9.4484,-2.1749,0.9282,0.0075,-0.0007,-0.0061,1.0000,0.2359,-0.0560,0.0230
661,Left,2,0.1636,0.0486,-0.9742,-0.1475,-1.8462,-4.9924,-0.4083,-5.9938,-4.3769,12.6794,-4.2056,3.1324,23.1148,-0.0231,-0.0624,-0.0051,0.9978,-0.1404,0.0922,0.5678
661,Right,2,0.1615,-0.1646,-0.9046,-0.3586,-0.0441,0.0587,-0.1088,-0.0323,0.0751,-0.0962,-3.9095,1.7521,8.7214,-0.0006,0.0007,-0.0014,1.0000,-0.0975,0.0441,0.2181
661,Pelvis,2,0.5505,-0.4494,0.5850,0.3910,0.6597,-0.0537,-0.3989,0.9754,-0.2428,-1.5195,8.1693,-1.6934,0.4269,0.0082,-0.0007,-0.0050,1.0000,0.2040,-0.0434,0.0105
662,Left,2,0.1068,0.0782,-0.9808,-0.1434,-1.6380,-4.8657,-0.1805,2.6050,-6.9681,10.6353,-9.5394,2.5736,19.4034,-0.0205,-0.0608,-0.0023,0.9979,-0.2671,0.0746,0.4680
662,Right,2,0.1626,-0.1636,-0.9045,-0.3588,-0.0546,0.0352,-0.1106,0.0214,0.0744,-0.0623,-3.9760,1.6960,8.7403,-0.0007,0.0004,-0.0014,1.0000,-0.0992,0.0427,0.2185
662,Pelvis,2,0.5549,-0.4434,0.5873,0.3880,0.6266,-0.0252,-0.2128,-0.4987,-0.1918,-1.0480,8.7763,-0.2824,-0.0495,0.0078,-0.0003,-0.0027,1.0000,0.2194,-0.0076,-0.0012
663,Left,2,0.0549,0.1056,-0.9835,-0.1361,-1.5874,-4.4421,0.0698,9.8343,-7.4715,6.8723,-13.7126,1.1025,15.5614,-0.0198,-0.0555,0.0009,0.9983,-0.3637,0.0347,0.3686
663,Right,2,0.1635,-0.1622,-0.9044,-0.3591,-0.0699,0.0103,-0.1429,0.0222,0.0143,-0.0381,-4.0325,1.7118,8.7379,-0.0009,0.0001,-0.0018,1.0000,-0.1007,0.0432,0.2184
663,Pelvis,2,0.5579,-0.4392,0.5895,0.3852,0.4936,-0.0172,-0.0897,-1.3607,-0.1118,-0.3463,9.5439,0.4780,-0.4021,0.0062,-0.0002,-0.0011,1.0000,0.2386,0.0117,-0.0099
664,Left,2,0.0120,0.1273,-0.9826,-0.1349,-1.2340,-3.5991,-0.3554,14.0453,-5.2189,0.6416,-15.2913,-1.2418,9.9331,-0.0154,-0.0450,-0.0044,0.9989,-0.3931,-0.0257,0.2312
664,Right,2,0.1645,-0.1606,-0.9043,-0.3597,-0.0780,-0.0004,-0.1854,0.0747,0.0435,-0.0271,-4.0636,1.6223,8.7533,-0.0010,-0.0000,-0.0023,1.0000,-0.1015,0.0410,0.2188
664,Pelvis,2,0.5603,-0.4357,0.5905,0.3841,0.3209,-0.0015,-0.1574,-1.4173,-0.0714,0.5165,10.4050,0.4694,-0.4721,0.0040,-0.0000,-0.0020,1.0000,0.2601,0.0113,-0.0118
665,Left,2,-0.0203,0.1379,-0.9791,-0.1481,-0.4903,-2.5049,-1.4013,15.1159,-4.9667,-4.3547,-15.6375,-1.0378,6.1211,-0.0061,-0.0313,-0.0175,0.9993,-0.3958,-0.0182,0.1408
665,Right,2,0.1655,-0.1590,-0.9041,-0.3605,-0.0658,-0.0024,-0.2012,0.0303,0.2072,-0.0827,-3.9199,1.4920,8.7820,-0.0008,-0.0000,-0.0025,1.0000,-0.0979,0.0377,0.2195
666,Left,2,-0.0437,0.1368,-0.9746,-0.1721,0.2928,-1.5526,-2.1860,14.1271,-7.0772,-9.4808,-15.4935,1.8149,2.5525,0.0037,-0.0194,-0.0273,0.9994,-0.3871,0.0557,0.0565
666,Right,2,0.1664,-0.1581,-0.9033,-0.3624,-0.0358,0.0254,-0.1834,-0.0134,0.3920,-0.0821,-3.7887,1.3615,8.8674,-0.0004,0.0003,-0.0023,1.0000,-0.0946,0.0344,0.2217
666,Pelvis,2,0.5632,-0.4272,0.5892,0.3913,0.0586,0.1565,-0.4305,-0.8964,0.2620,1.4252,11.2617,-0.0672,-0.5807,0.0015,0.0039,-0.0108,0.9999,0.5629,-0.0094,-0.0312
667,Left,2,-0.0571,0.1307,-0.9707,-0.1935,0.5615,-0.7376,-1.8822,12.5763,-11.1458,-14.3823,-16.1593,6.4636,-0.6594,0.0070,-0.0092,-0.0235,0.9997,-0.3999,0.1712,-0.0190
667,Right,2,0.1674,-0.1579,-0.9023,-0.3646,-0.0119,0.0644,-0.1428,-0.1058,0.2944,-0.1088,-3.7883,1.4649,8.8185,-0.0001,0.0008,-0.0018,1.0000,-0.0945,0.0368,0.2205
667,Pelvis,2,0.5629,-0.4248,0.5876,0.3969,-0.2107,0.2027,-0.4098,-0.8720,1.2711,0.4906,10.3143,-0.1858,-1.4552,-0.0026,0.0025,-0.0051,1.0000,0.2577,-0.0061,-0.0370
668,Left,2,-0.0589,0.1273,-0.9696,-0.2005,0.2516,-0.0146,-0.5937,12.6556,-12.6703,-19.1055,-17.7603,8.3515,-4.6788,0.0031,-0.0002,-0.0074,1.0000,-0.4424,0.2124,-0.1164
668,Right,2,0.1683,-0.1580,-0.9011,-0.3669,-0.0087,0.0793,-0.1053,-0.0733,0.2224,-0.1268,-3.8658,1.4703,8.7615,-0.0001,0.0010,-0.0013,1.0000,-0.0964,0.0369,0.2191
668,Pelvis,2,0.5618,-0.4244,0.5858,0.4015,-0.2870,0.1408,-0.2568,-0.1506,2.6682,0.1595,9.9428,-1.2048,-2.5053,-0.0036,0.0018,-0.0032,1.0000,0.2484,-0.0311,-0.0630
669,Left,2,-0.0448,0.1241,-0.9719,-0.1950,0.0790,1.1017,0.5861,14.6598,-10.4795,-22.2064,-19.1859,6.2791,-8.4171,0.0010,0.0138,0.0073,0.9999,-0.4836,0.1536,-0.2036
669,Right,2,0.1690,-0.1585,-0.8998,-0.3697,0.0112,0.0801,-0.0594,0.0611,0.2926,-0.2000,-3.9014,1.3036,8.6933,0.0001,0.0010,-0.0007,1.0000,-0.0973,0.0326,0.2174
669,Pelvis,2,0.5614,-0.4228,0.5861,0.4033,-0.0097,0.1456,-0.1314,-0.0414,3.5691,-0.3105,9.4792,-1.5154,-3.2985,-0.0001,0.0018,-0.0016,1.0000,0.2368,-0.0383,-0.0829
670,Left,2,-0.0105,0.1153,-0.9757,-0.1863,0.2169,2.7351,1.0414,16.9043,-7.7481,-21.4078,-19.6325,3.1549,-9.2227,0.0027,0.0342,0.0130,0.9993,-0.4993,0.0730,-0.2134
670,Right,2,0.1693,-0.1590,-0.8990,-0.3714,0.0127,0.0486,-0.0231,0.0211,0.1219,-0.1412,-4.0183,1.4524,8.6774,0.0002,0.0006,-0.0003,1.0000,-0.1003,0.0363,0.2170
670,Pelvis,2,0.5629,-0.4193,0.5882,0.4016,0.3622,0.0826,-0.0554,-0.4884,2.5924,-1.3046,8.5194,-0.7286,-2.4970,0.0045,0.0010,-0.0007,1.0000,0.2129,-0.0181,-0.0627
671,Left,2,0.0410,0.0976,-0.9779,-0.1804,0.6318,4.2228,0.9349,16.7763,-6.6738,-16.6800,-18.1247,1.5855,-6.5185,0.0079,0.0528,0.0117,0.9985,-0.4613,0.0354,-0.1385
671,Right,2,0.1693,-0.1588,-0.8986,-0.3722,-0.0065,0.0041,-0.0136,0.0135,0.0838,-0.1174,-4.0530,1.4821,8.6823,-0.0001,0.0001,-0.0002,1.0000,-0.1013,0.0371,0.2171
671,Pelvis,2,0.5650,-0.4165,0.5906,0.3980,0.4493,-0.0251,0.0462,-0.6419,2.0910,-1.2154,8.6172,-0.4456,-2.0601,0.0056,-0.0003,0.0006,1.0000,0.2155,-0.0107,-0.0515
672,Left,2,0.1026,0.0746,-0.9762,-0.1758,0.8822,5.1147,0.8795,12.8315,-6.1862,-11.6076,-13.9283,1.7420,-3.0664,0.0110,0.0639,0.0110,0.9978,-0.3526,0.0404,-0.0537
672,Right,2,0.1690,-0.1587,-0.8983,-0.3733,-0.0022,-0.0144,0.0101,0.1258,0.2057,-0.0981,-4.0590,1.3173,8.7305,-0.0000,-0.0002,0.0001,1.0000,-0.1015,0.0329,0.2182
672,Pelvis,2,0.5658,-0.4145,0.5942,0.3936,0.4499,0.0463,0.2052,-1.1248,1.3629,-0.7982,9.0564,0.1879,-1.5269,0.0056,0.0006,0.0026,1.0000,0.2264,0.0055,-0.0383
673,Left,2,0.1692,0.0491,-0.9701,-0.1670,0.9380,5.5579,1.1823,8.6069,-5.7547,-5.5628,-10.8461,1.9355,2.0223,0.0117,0.0694,0.0148,0.9974,-0.2674,0.0437,0.0698
673,Right,2,0.1687,-0.1588,-0.8986,-0.3726,0.0213,-0.0156,0.0513,0.1606,0.2106,-0.0711,-4.0854,1.2955,8.7522,0.0003,-0.0002,0.0006,1.0000,-0.1022,0.0323,0.2188
673,Pelvis,2,0.5648,-0.4148,0.5971,0.3903,0.2071,0.0617,0.2942,-1.7156,1.0143,-0.1823,9.7065,0.7626,-1.3852,0.0026,0.0008,0.0037,1.0000,0.2426,0.0200,-0.0348
674,Left,2,0.2293,0.0268,-0.9606,-0.1546,0.7224,5.0256,1.3534,4.0850,-3.5438,-1.6083,-7.7700,1.0166,5.9404,0.0090,0.0628,0.0169,0.9978,-0.1848,0.0208,0.1605
674,Right,2,0.1682,-0.1592,-0.8990,-0.3718,0.0436,-0.0166,0.0783,0.1653,0.2393,-0.1036,-4.0515,1.2777,8.7353,0.0005,-0.0002,0.0010,1.0000,-0.1014,0.0317,0.2184
674,Pelvis,2,0.5627,-0.4173,0.5982,0.3891,-0.0859,0.0316,0.2790,-2.0835,1.0028,0.0156,9.9331,1.0280,-1.4897,-0.0011,0.0004,0.0035,1.0000,0.2482,0.0265,-0.0374
675,Left,2,0.2828,0.0090,-0.9491,-0.1385,0.3838,4.5053,1.5103,-0.7348,-3.0372,0.8288,-5.4289,1.9415,9.4808,0.0048,0.0563,0.0189,0.9982,-0.1230,0.0450,0.2444
675,Right,2,0.1672,-0.1596,-0.8989,-0.3723,0.0425,-0.0441,0.0736,-0.0900,0.1373,-0.1983,-3.8944,1.5289,8.6579,0.0005,-0.0006,0.0009,1.0000,-0.0975,0.0380,0.2164
675,Pelvis,2,0.5606,-0.4220,0.5966,0.3895,-0.3479,-0.0992,0.2169,-1.9646,0.6875,-0.5968,9.3209,1.0119,-1.1667,-0.0043,-0.0012,0.0027,1.0000,0.2330,0.0258,-0.0290
676,Left,2,0.3245,-0.0039,-0.9388,-0.1153,-0.0112,3.5086,1.9402,-4.4683,-1.7629,4.0689,-4.8841,1.6331,13.7614,-0.0001,0.0438,0.0242,0.9987,-0.1078,0.0381,0.3490
676,Right,2,0.1660,-0.1590,-0.8992,-0.3723,-0.0106,-0.1086,0.0419,-0.1635,0.1073,-0.2256,-3.8333,1.6034,8.6421,-0.0001,-0.0014,0.0005,1.0000,-0.0961,0.0401,0.2159
676,Pelvis,2,0.5588,-0.4276,0.5934,0.3908,-0.4825,-0.1895,0.1524,-1.7450,0.0768,-0.8607,9.0497,0.9979,-0.5450,-0.0060,-0.0024,0.0019,1.0000,0.2262,0.0253,-0.0132
677,Left,2,0.3537,-0.0187,-0.9307,-0.0912,0.2261,2.5366,2.0820,-6.9543,3.4096,5.0881,-3.6515,-2.6680,16.1769,0.0028,0.0317,0.0260,0.9992,-0.0766,-0.0700,0.4068
677,Right,2,0.1647,-0.1582,-0.8994,-0.3728,-0.0192,-0.1148,0.0286,0.0444,0.3688,-0.1324,-3.8235,1.2894,8.8070,-0.0002,-0.0014,0.0004,1.0000,-0.0959,0.0323,0.2200
677,Pelvis,2,0.5563,-0.4328,0.5906,0.3928,-0.5025,-0.0916,0.1359,-0.3381,-0.2888,0.0955,9.9105,-0.3061,0.2428,-0.0063,-0.0011,0.0017,1.0000,0.2478,-0.0072,0.0064
678,Left,2,0.3729,-0.0364,-0.9233,-0.0849,1.0098,1.7752,0.8612,-8.8469,8.8103,2.6917,-0.8540,-7.1990,16.1175,0.0126,0.0222,0.0108,0.9996,-0.0105,-0.1852,0.4009
678,Right,2,0.1638,-0.1580,-0.8995,-0.3731,0.0271,-0.0720,0.0020,-0.1278,0.2415,-0.0677,-3.7930,1.5087,8.8531,0.0003,-0.0009,0.0000,1.0000,-0.0950,0.0376,0.2213
678,Pelvis,2,0.5532,-0.4389,0.5872,0.3956,-0.6220,-0.0951,0.1423,0.4296,-0.2660,0.8404,10.5957,-1.1345,0.4335,-0.0078,-0.0012,0.0018,1.0000,0.2649,-0.0278,0.0114
679,Left,2,0.3983,-0.0455,-0.9110,-0.0968,0.8965,2.2563,-0.7903,-19.2528,3.1291,12.3737,-2.2347,0.8657,29.4487,0.0112,0.0282,-0.0099,0.9995,-0.0349,0.0138,0.7376
679,Right,2,0.1630,-0.1577,-0.8990,-0.3748,0.0157,-0.0730,-0.0682,-0.1644,0.0901,-0.0371,-3.8602,1.6398,8.8322,0.0002,-0.0009,-0.0009,1.0000,-0.0967,0.0410,0.2207
679,Pelvis,2,0.5501,-0.4463,0.5826,0.3985,-0.7257,-0.1885,0.1574,-0.7322,-0.2363,0.8695,10.7095,-0.0844,0.0057,-0.0091,-0.0024,0.0020,1.0000,0.2677,-0.0016,0.0008
680,Left,525312,0.2768,0.0234,-0.9556,-0.0986,-4.1956,-10.8571,-1.5609,-20.5454,31.3058,21.9614,0.7769,-28.2548,40.3385,-0.0523,-0.1352,-0.0194,0.9892,-0.1330,-0.6509,1.0325
680,Right,2,0.1629,-0.1575,-0.8987,-0.3756,0.0162,-0.0178,-0.0569,-0.0738,0.0589,0.0824,-3.9816,1.6080,8.9153,0.0002,-0.0002,-0.0007,1.0000,-0.0996,0.0402,0.2229
680,Pelvis,2,0.5464,-0.4534,0.5786,0.4014,-0.7087,-0.1279,0.1873,0.0687,-0.8205,0.5711,10.3653,-0.7106,0.7454,-0.0089,-0.0016,0.0023,1.0000,0.2591,-0.0170,0.0192
681,Left,0,0.2268,0.0217,-0.9670,-0.1140,0.8886,-4.0330,-1.1455,-7.8160,-0.9733,13.3631,-4.6799,0.2099,24.0360,0.0111,-0.0504,-0.0143,0.9986,-0.1470,0.0006,0.5940
681,Right,2,0.1638,-0.1585,-0.8982,-0.3758,0.0622,0.1084,-0.0095,-0.0089,0.4243,0.0894,-3.8108,1.3201,9.0536,0.0008,0.0014,-0.0001,1.0000,-0.0950,0.0328,0.2265
681,Pelvis,2,0.5426,-0.4586,0.5752,0.4054,-0.6543,0.0134,0.0735,1.8421,-1.5394,0.3618,10.0335,-2.2582,1.8745,-0.0082,0.0002,0.0009,1.0000,0.2509,-0.0558,0.0473
682,Left,0,0.2232,0.0249,-0.9676,-0.1149,-0.1912,-0.3101,-0.1311,-8.0279,-0.4727,1.2999,2.1164,1.0801,13.5098,-0.0024,-0.0039,-0.0016,1.0000,0.0516,0.0277,0.3379
682,Right,2,0.1664,-0.1612,-0.8972,-0.3759,0.1440,0.2777,-0.0305,-0.3918,0.1636,0.1477,-3.7874,1.7995,9.0447,0.0018,0.0035,-0.0004,1.0000,-0.0939,0.0446,0.2265
682,Pelvis,2,0.5412,-0.4607,0.5707,0.4112,-0.5507,0.0133,-0.2699,3.5717,-2.0512,3.7582,13.3014,-4.0935,2.7294,-0.0069,0.0002,-0.0034,1.0000,0.3322,-0.1030,0.0689
683,Left,0,0.2358,0.0338,-0.9637,-0.1203,-0.7087,0.9767,-0.5853,0.2172,-1.3163,-0.1740,-4.7124,0.1646,8.5123,-0.0089,0.0122,-0.0073,0.9999,-0.1152,0.0069,0.2142
683,Right,2,0.1693,-0.1634,-0.8960,-0.3767,0.1024,0.2868,-0.0811,-0.0396,0.3838,-0.2579,-3.7782,1.3483,8.6805,0.0013,0.0036,-0.0010,1.0000,-0.0936,0.0335,0.2174
683,Pelvis,2,0.5432,-0.4579,0.5672,0.4166,-0.1591,0.0520,-0.5503,2.4133,-2.0699,5.0986,14.7586,-2.9526,2.4339,-0.0020,0.0007,-0.0069,1.0000,0.3685,-0.0762,0.0608
684,Left,0,0.2427,0.0407,-0.9611,-0.1257,-0.4963,0.5272,-0.5589,1.2456,1.5522,-0.9949,-4.6504,-2.9243,7.1791,-0.0062,0.0066,-0.0070,0.9999,-0.1156,-0.0712,0.1807
684,Right,2,0.1708,-0.1652,-0.8952,-0.3770,0.0921,0.1777,-0.0015,0.4187,0.0115,-0.1524,-4.4060,1.2914,8.5098,0.0012,0.0022,-0.0000,1.0000,-0.1097,0.0320,0.2130
684,Pelvis,2,0.5411,-0.4526,0.5713,0.4195,0.1943,0.5617,-0.1505,-2.0019,-2.2621,-1.0939,8.8657,1.9075,1.7042,0.0024,0.0070,-0.0019,1.0000,0.2220,0.0472,0.0412
685,Left,0,0.2388,0.0404,-0.9619,-0.1268,0.0917,-0.3049,-0.0815,1.1239,2.1489,-0.5714,-4.5776,-3.6059,7.5714,0.0011,-0.0038,-0.0010,1.0000,-0.1153,-0.0902,0.1887
685,Right,2,0.1713,-0.1657,-0.8948,-0.3775,0.0327,0.0635,-0.0187,0.1812,-0.1697,-0.0495,-4.4315,1.6109,8.5526,0.0004,0.0008,-0.0002,1.0000,-0.1106,0.0402,0.2139
685,Pelvis,2,0.5331,-0.4518,0.5781,0.4213,-0.0663,0.7463,0.4078,-2.0244,-1.0721,-6.6583,3.2904,2.0011,0.6059,-0.0008,0.0093,0.0051,0.9999,0.0821,0.0505,0.0143
686,Left,0,0.2309,0.0362,-0.9641,-0.1257,0.3880,-0.6092,0.1618,0.0478,0.0090,-0.0154,-4.3759,-1.3226,8.6657,0.0048,-0.0076,0.0020,1.0000,-0.1110,-0.0343,0.2156
686,Right,2,0.1719,-0.1654,-0.8942,-0.3787,-0.0123,0.0337,-0.0782,0.0008,-0.0029,0.0449,-4.2624,1.6422,8.7355,-0.0002,0.0004,-0.0010,1.0000,-0.1064,0.0412,0.2184
686,Pelvis,2,0.5277,-0.4572,0.5807,0.4187,-0.2412,0.0866,0.6296,0.4835,-0.1833,-5.4374,4.3179,-0.7807,0.3967,-0.0030,0.0011,0.0079,1.0000,0.1081,-0.0186,0.0099
687,Left,0,0.2252,0.0340,-0.9656,-0.1257,0.2375,-0.4452,0.0369,-0.2042,-1.0005,0.2245,-4.4105,-0.2426,9.0706,0.0030,-0.0056,0.0005,1.0000,-0.1115,-0.0068,0.2261
687,Right,2,0.1726,-0.1654,-0.8937,-0.3797,-0.0065,0.0566,-0.0673,0.2341,0.2877,-0.0833,-4.1902,1.2453,8.7000,-0.0001,0.0007,-0.0008,1.0000,-0.1046,0.0312,0.2176
687,Pelvis,2,0.5216,-0.4630,0.5826,0.4173,-0.3514,0.1179,0.5988,1.1913,-0.2717,-0.1184,9.5257,-2.0290,0.7864,-0.0044,0.0015,0.0075,1.0000,0.2385,-0.0489,0.0195
688,Left,0,0.2220,0.0345,-0.9661,-0.1272,0.0322,-0.2545,-0.1300,-0.2121,-0.5385,0.1746,-4.1824,-0.6562,9.0641,0.0004,-0.0032,-0.0016,1.0000,-0.1053,-0.0163,0.2263
688,Right,2,0.1730,-0.1664,-0.8935,-0.3795,0.0733,0.0684,0.0410,0.3454,0.3700,-0.1448,-4.1985,1.1015,8.6535,0.0009,0.0009,0.0005,1.0000,-0.1048,0.0273,0.2165
688,Pelvis,2,0.5160,-0.4674,0.5831,0.4186,-0.4451,0.1888,0.3508,0.5197,0.7218,3.6833,13.3554,-2.1271,-0.2028,-0.0056,0.0024,0.0044,1.0000,0.3341,-0.0517,-0.0056
689,Left,0,0.2200,0.0357,-0.9663,-0.1290,-0.0371,-0.1584,-0.1649,-0.0455,0.0881,0.0841,-4.0748,-1.3049,8.9246,-0.0005,-0.0020,-0.0021,1.0000,-0.1024,-0.0323,0.2229
689,Right,2,0.1729,-0.1683,-0.8935,-0.3786,0.1295,0.0694,0.1183,0.1563,0.2335,-0.0702,-4.2038,1.3695,8.6861,0.0016,0.0009,0.0015,1.0000,-0.1050,0.0337,0.2173
689,Pelvis,2,0.5116,-0.4706,0.5822,0.4217,-0.4639,0.1757,0.1264,0.3440,0.0534,1.6254,11.3160,-1.6587,0.3852,-0.0058,0.0022,0.0016,1.0000,0.2830,-0.0410,0.0092
690,Left,0,0.2184,0.0365,-0.9664,-0.1302,-0.0171,-0.1269,-0.1129,0.0227,0.1894,0.0188,-4.0433,-1.4314,8.8486,-0.0002,-0.0016,-0.0014,1.0000,-0.1015,-0.0356,0.2211
690,Right,2,0.1726,-0.1703,-0.8936,-0.3777,0.1299,0.0649,0.1300,-0.0873,0.1755,-0.0940,-4.0785,1.6204,8.6736,0.0016,0.0008,0.0016,1.0000,-0.1019,0.0400,0.2170
690,Pelvis,2,0.5083,-0.4735,0.5808,0.4244,-0.4238,0.1012,0.0679,0.3427,0.1235,-1.1420,8.5650,-1.3771,0.2421,-0.0053,0.0013,0.0008,1.0000,0.2142,-0.0342,0.0060
691,Left,0,0.2169,0.0365,-0.9667,-0.1309,0.0293,-0.1235,-0.0587,0.0469,0.2331,0.0190,-4.0214,-1.4874,8.8506,0.0004,-0.0015,-0.0007,1.0000,-0.1009,-0.0372,0.2211
691,Right,2,0.1725,-0.1713,-0.8937,-0.3771,0.0783,0.0314,0.0705,-0.3289,-0.0649,-0.1300,-4.0578,1.9785,8.5724,0.0010,0.0004,0.0009,1.0000,-0.1014,0.0492,0.2144
691,Pelvis,2,0.5059,-0.4763,0.5797,0.4257,-0.3161,0.0209,0.1108,0.9285,-0.2823,-0.4110,9.2093,-1.9808,0.7746,-0.0040,0.0003,0.0014,1.0000,0.2303,-0.0491,0.0195
692,Left,0,0.2155,0.0363,-0.9669,-0.1314,0.0464,-0.1028,-0.0362,-0.0757,0.0270,0.0385,-3.9507,-1.2596,8.9363,0.0006,-0.0013,-0.0005,1.0000,-0.0991,-0.0316,0.2233
692,Right,2,0.1723,-0.1714,-0.8936,-0.3773,0.0223,-0.0057,0.0092,-0.1353,0.0049,-0.1461,-4.1348,1.7995,8.5514,0.0003,-0.0001,0.0001,1.0000,-0.1034,0.0449,0.2138
692,Pelvis,2,0.5030,-0.4785,0.5796,0.4268,-0.2579,0.1036,0.1428,0.8500,-0.3969,0.6641,10.2767,-2.0502,0.9114,-0.0032,0.0013,0.0018,1.0000,0.2570,-0.0507,0.0226
693,Left,0,0.2146,0.0362,-0.9671,-0.1318,0.0261,-0.0644,-0.0364,-0.0836,-0.0462,-0.0190,-3.9199,-1.1763,8.8981,0.0003,-0.0008,-0.0005,1.0000,-0.0982,-0.0294,0.2224
693,Right,2,0.1718,-0.1713,-0.8935,-0.3778,0.0097,-0.0257,0.0060,0.0155,0.2068,-0.0963,-4.1259,1.5664,8.6588,0.0001,-0.0003,0.0001,1.0000,-0.1032,0.0391,0.2164
693,Pelvis,2,0.5000,-0.4797,0.5800,0.4283,-0.2072,0.1681,0.1169,0.7990,-0.0301,0.7047,10.3194,-2.1079,0.5661,-0.0026,0.0021,0.0015,1.0000,0.2581,-0.0523,0.0137
694,Left,0,0.2140,0.0362,-0.9672,-0.1322,0.0211,-0.0455,-0.0352,-0.0924,0.0537,-0.0847,-3.8448,-1.2613,8.8471,0.0003,-0.0006,-0.0004,1.0000,-0.0963,-0.0315,0.2211
694,Right,2,0.1714,-0.1713,-0.8935,-0.3782,0.0152,-0.0194,0.0138,0.0347,0.1963,-0.0891,-4.1405,1.5612,8.6607,0.0002,-0.0002,0.0002,1.0000,-0.1036,0.0390,0.2165
694,Pelvis,2,0.4977,-0.4807,0.5807,0.4290,-0.1331,0.1290,0.1152,0.6299,0.2425,-0.1707,9.4718,-1.9079,0.2628,-0.0017,0.0016,0.0014,1.0000,0.2369,-0.0473,0.0063
695,Left,0,0.2136,0.0362,-0.9672,-0.1325,0.0141,-0.0315,-0.0249,-0.0574,-0.0344,-0.0185,-3.9161,-1.1933,8.8978,0.0002,-0.0004,-0.0003,1.0000,-0.0980,-0.0298,0.2224
695,Right,2,0.1711,-0.1713,-0.8936,-0.3780,0.0187,-0.0152,0.0296,0.0570,0.1679,-0.0730,-4.1750,1.5689,8.6604,0.0002,-0.0002,0.0004,1.0000,-0.1044,0.0391,0.2165
695,Pelvis,2,0.4963,-0.4818,0.5812,0.4287,-0.0792,0.0413,0.1308,0.3681,0.3573,-0.7055,8.9742,-1.6302,0.0988,-0.0010,0.0005,0.0016,1.0000,0.2244,-0.0404,0.0024
696,Left,0,0.2134,0.0365,-0.9673,-0.1325,-0.0131,-0.0177,-0.0095,-0.0019,-0.0376,0.0576,-3.9898,-1.2157,8.9459,-0.0002,-0.0002,-0.0001,1.0000,-0.0998,-0.0303,0.2236
696,Right,2,0.1707,-0.1712,-0.8938,-0.3777,0.0103,-0.0268,0.0391,0.0396,0.0900,-0.1000,-4.1939,1.6315,8.6079,0.0001,-0.0003,0.0005,1.0000,-0.1049,0.0407,0.2152
696,Pelvis,2,0.4955,-0.4827,0.5814,0.4284,-0.0535,-0.0036,0.0849,0.2727,0.3645,-0.5431,9.1441,-1.5845,0.0848,-0.0007,-0.0000,0.0011,1.0000,0.2286,-0.0394,0.0022
697,Left,0,0.2133,0.0371,-0.9673,-0.1323,-0.0428,-0.0088,0.0040,0.0049,0.0263,0.0084,-3.9549,-1.2800,8.8980,-0.0005,-0.0001,0.0001,1.0000,-0.0989,-0.0319,0.2225
697,Right,2,0.1701,-0.1709,-0.8941,-0.3774,-0.0049,-0.0465,0.0439,0.0158,0.0676,-0.0974,-4.1829,1.6656,8.6094,-0.0001,-0.0006,0.0005,1.0000,-0.1047,0.0416,0.2152
697,Pelvis,2,0.4952,-0.4831,0.5813,0.4283,-0.0402,-0.0064,0.0287,0.2764,0.3841,-0.1860,9.4951,-1.6533,0.0784,-0.0005,-0.0001,0.0004,1.0000,0.2374,-0.0412,0.0020
698,Left,0,0.2133,0.0375,-0.9673,-0.1321,-0.0282,-0.0033,0.0092,-0.0132,0.0418,-0.0943,-3.8920,-1.2856,8.8119,-0.0004,-0.0000,0.0001,1.0000,-0.0973,-0.0321,0.2203
698,Right,2,0.1693,-0.1706,-0.8945,-0.3770,0.0023,-0.0655,0.0618,0.0572,0.1488,-0.0994,-4.1444,1.5834,8.6424,0.0000,-0.0008,0.0008,1.0000,-0.1038,0.0395,0.2160
698,Pelvis,2,0.4950,-0.4835,0.5811,0.4284,-0.0420,-0.0088,0.0159,0.2712,0.4028,0.0301,9.7092,-1.6863,0.0647,-0.0005,-0.0001,0.0002,1.0000,0.2427,-0.0421,0.0017
699,Left,0,0.2133,0.0377,-0.9673,-0.1320,-0.0147,0.0017,0.0022,-0.0103,0.0286,-0.0828,-3.9022,-1.2802,8.8207,-0.0002,0.0000,0.0000,1.0000,-0.0975,-0.0320,0.2205
699,Right,2,0.1682,-0.1704,-0.8949,-0.3766,0.0112,-0.0733,0.0702,-0.0148,0.1366,-0.1014,-4.0850,1.6489,8.6558,0.0001,-0.0009,0.0009,1.0000,-0.1024,0.0411,0.2163
699,Pelvis,2,0.4947,-0.4840,0.5808,0.4286,-0.0605,-0.0027,0.0138,0.1460,0.3731,0.0322,9.7281,-1.5629,0.0705,-0.0008,-0.0000,0.0002,1.0000,0.2432,-0.0390,0.0018
700,Right,2,0.1673,-0.1702,-0.8953,-0.3761,0.0164,-0.0621,0.0631,-0.0186,0.1703,-0.0627,-4.0601,1.6426,8.7126,0.0002,-0.0008,0.0008,1.0000,-0.1017,0.0409,0.2177
701,Left,0,0.2132,0.0380,-0.9673,-0.1322,-0.0034,-0.0021,-0.0132,-0.0872,0.0135,-0.1048,-3.8291,-1.2489,8.8334,-0.0001,-0.0001,-0.0003,1.0000,-0.1915,-0.0623,0.4417
701,Right,2,0.1664,-0.1704,-0.8955,-0.3760,0.0353,-0.0489,0.0537,0.0057,0.1956,-0.0789,-4.0378,1.6139,8.7107,0.0004,-0.0006,0.0007,1.0000,-0.1011,0.0402,0.2177
702,Left,0,0.2132,0.0379,-0.9673,-0.1323,0.0136,-0.0011,-0.0077,-0.0585,0.0474,-0.0817,-3.8522,-1.2941,8.8421,0.0002,-0.0000,-0.0001,1.0000,-0.0963,-0.0324,0.2210
702,Right,2,0.1657,-0.1706,-0.8956,-0.3759,0.0437,-0.0361,0.0454,-0.0403,0.1957,-0.1012,-3.9857,1.6538,8.7024,0.0005,-0.0005,0.0006,1.0000,-0.0998,0.0412,0.2175
703,Left,0,0.2131,0.0376,-0.9673,-0.1323,0.0274,-0.0005,0.0017,-0.0489,0.0158,-0.0995,-3.8614,-1.2605,8.8233,0.0003,-0.0000,0.0000,1.0000,-0.0965,-0.0316,0.2206
703,Right,2,0.1653,-0.1708,-0.8957,-0.3758,0.0350,-0.0250,0.0259,-0.0450,0.1338,-0.1212,-4.0037,1.7032,8.6610,0.0004,-0.0003,0.0003,1.0000,-0.1002,0.0425,0.2165
704,Left,0,0.2130,0.0372,-0.9673,-0.1324,0.0403,-0.0065,0.0038,-0.0434,-0.0095,-0.0765,-3.8812,-1.2336,8.8437,0.0005,-0.0001,0.0000,1.0000,-0.0970,-0.0310,0.2211
704,Right,2,0.1648,-0.1709,-0.8957,-0.3760,0.0261,-0.0216,0.0134,-0.0134,0.1241,-0.1109,-4.0282,1.6940,8.6628,0.0003,-0.0003,0.0002,1.0000,-0.1008,0.0423,0.2166
705,Left,0,0.2127,0.0367,-0.9674,-0.1325,0.0489,-0.0088,-0.0028,-0.0223,-0.0090,-0.0465,-3.9094,-1.2340,8.8641,0.0006,-0.0001,-0.0000,1.0000,-0.0978,-0.0310,0.2216
705,Right,2,0.1645,-0.1708,-0.8957,-0.3761,0.0165,-0.0210,0.0053,0.0065,0.1442,-0.0827,-4.0352,1.6733,8.6954,0.0002,-0.0003,0.0001,1.0000,-0.1009,0.0418,0.2174
706,Left,0,0.2126,0.0362,-0.9674,-0.1327,0.0491,-0.0033,-0.0107,-0.0024,-0.0057,-0.0382,-3.9272,-1.2338,8.8655,0.0006,-0.0000,-0.0001,1.0000,-0.0982,-0.0310,0.2216
706,Right,2,0.1642,-0.1706,-0.8957,-0.3763,0.0047,-0.0256,0.0054,-0.0200,0.1377,-0.0979,-4.0091,1.6937,8.6865,0.0001,-0.0003,0.0001,1.0000,-0.1003,0.0423,0.2171
706,Pelvis,2,0.4946,-0.4855,0.5791,0.4293,-0.0239,-0.0133,-0.0026,0.2640,0.3019,0.0101,9.6882,-1.6631,0.1423,-0.0021,-0.0012,-0.0002,1.0000,1.6953,-0.2914,0.0275
