PacketId,Role,StatusWord,Qx,Qy,Qz,Qw,Gx,Gy,Gz,FreeAx,FreeAy,FreeAz,Ax,Ay,Az,DQx,DQy,DQz,DQw,DVx,DVy,DVz
451271,Left,0,0.0776,0.1164,-0.6081,0.7814,0.0120,0.0058,0.0028,0.0000,0.0000,-0.1027,-2.6843,-0.1957,9.3295,0.0001,0.0001,0.0000,1.0000,-0.0671,-0.0049,0.2332
451271,Pelvis,0,-0.0804,-0.6439,-0.0923,0.7552,0.0033,-0.0026,-0.0019,0.0000,0.0000,-0.0045,9.6854,-0.0254,1.5467,0.0000,-0.0000,-0.0000,1.0000,0.2421,-0.0006,0.0387
451271,Right,0,-0.0060,0.0075,0.5239,0.8517,-0.0108,0.0045,0.0339,-0.0000,-0.0000,-0.0282,-0.1880,-0.0241,9.7826,-0.0001,0.0001,0.0004,1.0000,-0.0047,-0.0006,0.2446
451272,Left,0,0.0778,0.1164,-0.6081,0.7814,0.0112,0.0058,0.0024,-0.0148,-0.0105,-0.0921,-2.6810,-0.2129,9.3412,0.0001,0.0001,0.0000,1.0000,-0.0670,-0.0054,0.2335
451272,Pelvis,0,-0.0804,-0.6440,-0.0923,0.7552,0.0020,-0.0054,-0.0009,0.0350,0.0127,-0.0077,9.6872,-0.0047,1.5154,0.0000,-0.0001,-0.0000,1.0000,0.2422,-0.0001,0.0379
451272,Right,0,-0.0061,0.0075,0.5243,0.8515,-0.0092,0.0054,0.0340,0.0107,0.0038,-0.0152,-0.1801,-0.0318,9.7958,-0.0001,0.0001,0.0004,1.0000,-0.0045,-0.0008,0.2449
451273,Pelvis,0,-0.0804,-0.6440,-0.0923,0.7552,0.0033,-0.0032,-0.0012,-0.0115,0.0026,-0.0101,9.6783,-0.0255,1.5563,0.0000,-0.0000,-0.0000,1.0000,0.2420,-0.0006,0.0389
451274,Left,0,0.0781,0.1164,-0.6081,0.7814,0.0108,0.0064,0.0024,-0.0149,-0.0097,-0.1005,-2.6815,-0.2087,9.3323,0.0003,0.0002,0.0001,1.0000,-0.1340,-0.0106,0.4666
451274,Pelvis,0,-0.0803,-0.6441,-0.0923,0.7551,0.0027,-0.0026,-0.0012,-0.0095,0.0121,-0.0109,9.6775,-0.0153,1.5557,0.0000,-0.0000,-0.0000,1.0000,0.2419,-0.0004,0.0389
451274,Right,0,-0.0064,0.0075,0.5250,0.8510,-0.0090,0.0045,0.0347,0.0058,-0.0043,-0.0262,-0.1913,-0.0339,9.7846,-0.0002,0.0001,0.0009,1.0000,-0.0095,-0.0016,0.4892
451275,Left,0,0.0783,0.1163,-0.6080,0.7814,0.0132,0.0055,0.0023,-0.0245,-0.0200,-0.0927,-2.6784,-0.2165,9.3412,0.0002,0.0001,0.0000,1.0000,-0.0669,-0.0055,0.2335
451275,Pelvis,0,-0.0803,-0.6441,-0.0922,0.7551,0.0038,-0.0042,-0.0017,-0.0006,0.0098,-0.0145,9.6756,-0.0149,1.5454,0.0000,-0.0001,-0.0000,1.0000,0.2419,-0.0004,0.0386
451275,Right,0,-0.0065,0.0075,0.5254,0.8508,-0.0108,0.0059,0.0348,0.0055,-0.0040,-0.0371,-0.1929,-0.0367,9.7736,-0.0001,0.0001,0.0004,1.0000,-0.0048,-0.0009,0.2443
451276,Left,0,0.0784,0.1163,-0.6080,0.7814,0.0103,0.0070,0.0023,-0.0245,-0.0200,-0.0927,-2.6799,-0.2136,9.3409,0.0001,0.0001,0.0000,1.0000,-0.0670,-0.0054,0.2335
451276,Pelvis,0,-0.0803,-0.6442,-0.0922,0.7551,0.0039,-0.0048,-0.0011,-0.0006,0.0098,-0.0145,9.6758,-0.0144,1.5443,0.0000,-0.0001,-0.0000,1.0000,0.2419,-0.0004,0.0386
451276,Right,0,-0.0067,0.0075,0.5257,0.8506,-0.0088,0.0060,0.0349,0.0194,0.0104,-0.0240,-0.1755,-0.0451,9.7870,-0.0001,0.0001,0.0004,1.0000,-0.0044,-0.0011,0.2447
451277,Pelvis,0,-0.0802,-0.6442,-0.0922,0.7550,0.0040,-0.0026,-0.0013,0.0119,0.0075,-0.0089,9.6834,-0.0131,1.5318,0.0000,-0.0000,-0.0000,1.0000,0.2421,-0.0003,0.0383
451277,Right,0,-0.0068,0.0075,0.5261,0.8504,-0.0098,0.0034,0.0332,0.0117,0.0148,-0.0281,-0.1760,-0.0383,9.7829,-0.0001,0.0000,0.0004,1.0000,-0.0044,-0.0009,0.2446
451278,Left,0,0.0787,0.1163,-0.6080,0.7814,0.0111,0.0064,0.0026,-0.0221,-0.0124,-0.0893,-2.6896,-0.2057,9.3418,0.0003,0.0002,0.0001,1.0000,-0.1344,-0.0104,0.4671
451278,Pelvis,0,-0.0802,-0.6442,-0.0922,0.7550,0.0016,-0.0033,-0.0004,-0.0182,0.0141,-0.0074,9.6801,-0.0136,1.5618,0.0000,-0.0000,-0.0000,1.0000,0.2420,-0.0003,0.0391
451278,Right,0,-0.0069,0.0075,0.5265,0.8501,-0.0109,0.0039,0.0345,-0.0094,0.0044,-0.0234,-0.1957,-0.0265,9.7873,-0.0001,0.0000,0.0004,1.0000,-0.0049,-0.0006,0.2447
451279,Left,0,0.0788,0.1162,-0.6080,0.7814,0.0118,0.0053,0.0020,-0.0374,-0.0144,-0.1090,-2.6878,-0.2170,9.3216,0.0001,0.0001,0.0000,1.0000,-0.0672,-0.0055,0.2330
451279,Pelvis,0,-0.0802,-0.6442,-0.0922,0.7550,0.0026,-0.0032,-0.0017,-0.0114,0.0022,-0.0101,9.6791,-0.0230,1.5513,0.0000,-0.0000,-0.0000,1.0000,0.2420,-0.0006,0.0388
451279,Right,0,-0.0070,0.0075,0.5268,0.8499,-0.0094,0.0029,0.0344,0.0025,0.0088,-0.0411,-0.1869,-0.0375,9.7697,-0.0001,0.0000,0.0004,1.0000,-0.0047,-0.0009,0.2442
451280,Pelvis,0,-0.0801,-0.6443,-0.0922,0.7550,0.0040,-0.0031,-0.0007,-0.0057,0.0116,-0.0019,9.6878,-0.0119,1.5487,0.0001,-0.0000,-0.0000,1.0000,0.2422,-0.0003,0.0387
451280,Right,0,-0.0072,0.0074,0.5272,0.8497,-0.0103,0.0046,0.0324,-0.0017,0.0112,-0.0541,-0.1872,-0.0349,9.7568,-0.0001,0.0001,0.0004,1.0000,-0.0047,-0.0008,0.2439
451281,Pelvis,0,-0.0801,-0.6443,-0.0921,0.7550,0.0022,-0.0038,-0.0004,-0.0055,0.0114,-0.0019,9.6879,-0.0117,1.5478,0.0000,-0.0000,-0.0000,1.0000,0.2422,-0.0003,0.0387
451281,Right,0,-0.0073,0.0074,0.5275,0.8495,-0.0109,0.0039,0.0345,0.0029,0.0080,-0.0193,-0.1896,-0.0430,9.7915,-0.0001,0.0000,0.0004,1.0000,-0.0047,-0.0010,0.2448
451282,Left,0,0.0793,0.1162,-0.6080,0.7814,0.0110,0.0061,0.0019,-0.0278,-0.0180,-0.0925,-2.6894,-0.2038,9.3386,0.0004,0.0002,0.0001,1.0000,-0.2015,-0.0156,0.7004
451282,Pelvis,0,-0.0800,-0.6443,-0.0921,0.7549,0.0020,-0.0026,-0.0017,-0.0199,0.0039,-0.0066,9.6815,-0.0219,1.5585,0.0000,-0.0000,-0.0000,1.0000,0.2420,-0.0006,0.0390
451282,Right,0,-0.0074,0.0074,0.5279,0.8492,-0.0098,0.0048,0.0341,-0.0013,0.0104,-0.0322,-0.1900,-0.0405,9.7785,-0.0001,0.0001,0.0004,1.0000,-0.0047,-0.0010,0.2445
451283,Left,0,0.0793,0.1162,-0.6080,0.7814,0.0104,0.0052,0.0018,-0.0314,-0.0261,-0.1101,-2.6798,-0.2062,9.3230,0.0001,0.0001,0.0000,1.0000,-0.0670,-0.0052,0.2331
451283,Pelvis,0,-0.0800,-0.6444,-0.0921,0.7549,0.0037,-0.0053,-0.0016,-0.0142,0.0132,0.0016,9.6903,-0.0108,1.5556,0.0000,-0.0001,-0.0000,1.0000,0.2423,-0.0003,0.0389
451283,Right,0,-0.0076,0.0073,0.5283,0.8490,-0.0109,0.0043,0.0338,-0.0172,0.0196,-0.0622,-0.1890,-0.0243,9.7487,-0.0001,0.0001,0.0004,1.0000,-0.0047,-0.0006,0.2437
451284,Left,0,0.0794,0.1162,-0.6080,0.7814,0.0115,0.0073,0.0021,-0.0320,-0.0365,-0.0714,-2.6822,-0.2081,9.3626,0.0001,0.0001,0.0000,1.0000,-0.0670,-0.0052,0.2341
451284,Pelvis,0,-0.0799,-0.6444,-0.0921,0.7549,0.0025,-0.0037,-0.0022,-0.0107,0.0010,-0.0101,9.6798,-0.0208,1.5469,0.0000,-0.0000,-0.0000,1.0000,0.2420,-0.0005,0.0387
451284,Right,0,-0.0077,0.0073,0.5286,0.8488,-0.0099,0.0047,0.0341,-0.0111,0.0267,-0.0185,-0.1817,-0.0291,9.7925,-0.0001,0.0001,0.0004,1.0000,-0.0045,-0.0007,0.2448
451285,Left,0,0.0795,0.1162,-0.6080,0.7814,0.0104,0.0058,0.0020,-0.0315,-0.0345,-0.0882,-2.6804,-0.2052,9.3456,0.0001,0.0001,0.0000,1.0000,-0.0670,-0.0052,0.2336
451285,Pelvis,0,-0.0799,-0.6444,-0.0921,0.7549,0.0029,-0.0038,0.0001,0.0129,0.0059,-0.0089,9.6845,-0.0099,1.5250,0.0000,-0.0000,0.0000,1.0000,0.2421,-0.0002,0.0381
451285,Right,0,-0.0078,0.0073,0.5290,0.8485,-0.0100,0.0040,0.0366,-0.0173,0.0075,-0.0275,-0.2023,-0.0339,9.7831,-0.0001,0.0000,0.0005,1.0000,-0.0050,-0.0008,0.2446
451286,Left,0,0.0796,0.1161,-0.6080,0.7814,0.0107,0.0061,0.0033,-0.0385,-0.0352,-0.0938,-2.6807,-0.2104,9.3396,0.0001,0.0001,0.0000,1.0000,-0.0670,-0.0053,0.2335
451286,Pelvis,0,-0.0799,-0.6445,-0.0921,0.7548,0.0025,-0.0037,-0.0022,-0.0244,0.0052,0.0060,9.6937,-0.0191,1.5621,0.0000,-0.0000,-0.0000,1.0000,0.2423,-0.0005,0.0391
451286,Right,0,-0.0079,0.0073,0.5294,0.8483,-0.0104,0.0061,0.0344,-0.0114,0.0264,-0.0403,-0.1834,-0.0328,9.7707,-0.0001,0.0001,0.0004,1.0000,-0.0046,-0.0008,0.2443
451287,Left,0,0.0797,0.1161,-0.6080,0.7814,0.0121,0.0046,0.0024,-0.0225,-0.0286,-0.1163,-2.6776,-0.1912,9.3175,0.0002,0.0001,0.0000,1.0000,-0.0669,-0.0048,0.2329
451287,Pelvis,0,-0.0798,-0.6445,-0.0921,0.7548,0.0020,-0.0037,-0.0016,-0.0064,0.0003,-0.0010,9.6897,-0.0187,1.5421,0.0000,-0.0000,-0.0000,1.0000,0.2422,-0.0005,0.0386
451287,Right,0,-0.0080,0.0073,0.5298,0.8481,-0.0099,0.0054,0.0345,-0.0111,0.0258,-0.0403,-0.1849,-0.0351,9.7706,-0.0001,0.0001,0.0004,1.0000,-0.0046,-0.0008,0.2443
451288,Left,0,0.0798,0.1161,-0.6080,0.7814,0.0099,0.0073,0.0012,-0.0340,-0.0267,-0.0820,-2.6924,-0.2011,9.3487,0.0001,0.0001,0.0000,1.0000,-0.0673,-0.0051,0.2337
451288,Pelvis,0,-0.0798,-0.6445,-0.0921,0.7548,0.0020,-0.0037,-0.0016,-0.0184,0.0022,-0.0066,9.6824,-0.0191,1.5528,0.0000,-0.0000,-0.0000,1.0000,0.2421,-0.0005,0.0388
451288,Right,0,-0.0081,0.0073,0.5301,0.8479,-0.0094,0.0039,0.0341,-0.0061,0.0335,-0.0402,-0.1763,-0.0380,9.7709,-0.0001,0.0000,0.0004,1.0000,-0.0044,-0.0009,0.2443
451289,Left,0,0.0799,0.1161,-0.6080,0.7814,0.0102,0.0048,0.0030,-0.0425,-0.0355,-0.0826,-2.6869,-0.2105,9.3496,0.0001,0.0001,0.0000,1.0000,-0.0672,-0.0053,0.2337
451289,Pelvis,0,-0.0798,-0.6445,-0.0921,0.7548,0.0034,-0.0037,-0.0006,0.0000,-0.0025,-0.0136,9.6784,-0.0188,1.5328,0.0000,-0.0000,-0.0000,1.0000,0.2420,-0.0005,0.0383
451289,Right,0,-0.0082,0.0072,0.5305,0.8476,-0.0104,0.0042,0.0342,-0.0066,0.0219,-0.0273,-0.1878,-0.0444,9.7835,-0.0001,0.0001,0.0004,1.0000,-0.0047,-0.0011,0.2446
451290,Left,0,0.0800,0.1161,-0.6080,0.7813,0.0110,0.0053,0.0016,-0.0445,-0.0214,-0.0814,-2.7017,-0.2079,9.3466,0.0001,0.0001,0.0000,1.0000,-0.0675,-0.0052,0.2337
451290,Pelvis,0,-0.0797,-0.6446,-0.0921,0.7548,0.0021,-0.0032,-0.0011,-0.0372,-0.0029,0.0013,9.6876,-0.0280,1.5700,0.0000,-0.0000,-0.0000,1.0000,0.2422,-0.0007,0.0393
451290,Right,0,-0.0083,0.0072,0.5308,0.8474,-0.0094,0.0058,0.0343,-0.0215,0.0302,-0.0355,-0.1875,-0.0290,9.7755,-0.0001,0.0001,0.0004,1.0000,-0.0047,-0.0007,0.2444
451291,Left,0,0.0800,0.1161,-0.6080,0.7813,0.0108,0.0061,0.0012,-0.0345,-0.0389,-0.0887,-2.6816,-0.2011,9.3448,0.0001,0.0001,0.0000,1.0000,-0.0670,-0.0051,0.2336
451291,Pelvis,0,-0.0797,-0.6446,-0.0921,0.7548,0.0012,-0.0043,-0.0026,0.0077,-0.0026,0.0045,9.6977,-0.0162,1.5270,0.0000,-0.0001,-0.0000,1.0000,0.2424,-0.0004,0.0382
451291,Right,0,-0.0084,0.0072,0.5312,0.8472,-0.0099,0.0053,0.0345,-0.0244,0.0315,-0.0266,-0.1888,-0.0272,9.7843,-0.0001,0.0001,0.0004,1.0000,-0.0047,-0.0007,0.2446
451292,Left,0,0.0801,0.1161,-0.6080,0.7813,0.0121,0.0046,0.0024,-0.0437,-0.0260,-0.0932,-2.6952,-0.2063,9.3362,0.0002,0.0001,0.0000,1.0000,-0.0674,-0.0052,0.2334
451292,Pelvis,0,-0.0797,-0.6446,-0.0921,0.7547,0.0052,-0.0048,-0.0001,-0.0005,0.0188,-0.0027,9.6887,0.0029,1.5378,0.0001,-0.0001,-0.0000,1.0000,0.2422,0.0001,0.0385
451292,Right,0,-0.0085,0.0072,0.5316,0.8469,-0.0110,0.0051,0.0353,-0.0241,0.0308,-0.0266,-0.1901,-0.0296,9.7843,-0.0001,0.0001,0.0004,1.0000,-0.0047,-0.0007,0.2446
451293,Left,0,0.0801,0.1161,-0.6080,0.7813,0.0095,0.0065,0.0038,-0.0446,-0.0313,-0.1050,-2.6875,-0.2073,9.3261,0.0001,0.0001,0.0000,1.0000,-0.0672,-0.0052,0.2332
451293,Pelvis,0,-0.0797,-0.6446,-0.0921,0.7547,0.0026,-0.0026,-0.0024,0.0019,-0.0017,-0.0136,9.6790,-0.0170,1.5291,0.0000,-0.0000,-0.0000,1.0000,0.2420,-0.0004,0.0382
451293,Right,0,-0.0086,0.0072,0.5319,0.8467,-0.0100,0.0046,0.0340,-0.0193,0.0389,-0.0483,-0.1809,-0.0318,9.7627,-0.0001,0.0001,0.0004,1.0000,-0.0045,-0.0008,0.2441
451294,Left,0,0.0802,0.1161,-0.6080,0.7813,0.0107,0.0067,0.0014,-0.0466,-0.0464,-0.0949,-2.6777,-0.2129,9.3394,0.0001,0.0001,0.0000,1.0000,-0.0669,-0.0054,0.2335
451294,Pelvis,0,-0.0796,-0.6446,-0.0920,0.7548,0.0041,-0.0037,-0.0001,-0.0238,0.0040,-0.0030,9.6853,-0.0165,1.5570,0.0001,-0.0000,-0.0000,1.0000,0.2421,-0.0004,0.0389
451294,Right,0,-0.0087,0.0072,0.5323,0.8465,-0.0105,0.0046,0.0335,-0.0198,0.0272,-0.0354,-0.1925,-0.0383,9.7753,-0.0001,0.0001,0.0004,1.0000,-0.0048,-0.0009,0.2444
451295,Left,0,0.0802,0.1161,-0.6080,0.7813,0.0111,0.0070,0.0028,-0.0352,-0.0354,-0.0943,-2.6862,-0.1983,9.3378,0.0001,0.0001,0.0000,1.0000,-0.0671,-0.0050,0.2335
451295,Pelvis,0,-0.0796,-0.6446,-0.0920,0.7547,0.0034,-0.0037,-0.0006,-0.0107,0.0017,0.0025,9.6929,-0.0154,1.5445,0.0000,-0.0000,-0.0000,1.0000,0.2423,-0.0004,0.0386
451295,Right,0,-0.0088,0.0072,0.5326,0.8463,-0.0105,0.0046,0.0335,-0.0234,0.0291,-0.0484,-0.1929,-0.0358,9.7624,-0.0001,0.0001,0.0004,1.0000,-0.0048,-0.0009,0.2441
451296,Left,0,0.0803,0.1162,-0.6080,0.7813,0.0112,0.0058,0.0024,-0.0469,-0.0292,-0.1106,-2.6910,-0.2073,9.3193,0.0001,0.0001,0.0000,1.0000,-0.0673,-0.0052,0.2330
451296,Pelvis,0,-0.0795,-0.6447,-0.0920,0.7547,0.0032,-0.0037,-0.0017,-0.0071,-0.0100,-0.0092,9.6824,-0.0257,1.5359,0.0000,-0.0000,-0.0000,1.0000,0.2421,-0.0006,0.0384
451296,Right,0,-0.0088,0.0071,0.5330,0.8460,-0.0100,0.0048,0.0351,-0.0214,0.0383,-0.0394,-0.1843,-0.0349,9.7716,-0.0001,0.0001,0.0004,1.0000,-0.0046,-0.0008,0.2443
451297,Left,0,0.0803,0.1161,-0.6080,0.7813,0.0104,0.0058,0.0019,-0.0390,-0.0338,-0.0999,-2.6879,-0.2007,9.3315,0.0001,0.0001,0.0000,1.0000,-0.0672,-0.0051,0.2333
451297,Pelvis,0,-0.0795,-0.6447,-0.0920,0.7547,0.0018,-0.0048,-0.0026,-0.0225,0.0044,-0.0030,9.6858,-0.0153,1.5541,0.0000,-0.0001,-0.0000,1.0000,0.2421,-0.0004,0.0389
451297,Right,0,-0.0089,0.0071,0.5334,0.8458,-0.0105,0.0055,0.0350,-0.0139,0.0335,-0.0572,-0.1857,-0.0452,9.7537,-0.0001,0.0001,0.0004,1.0000,-0.0046,-0.0011,0.2438
451298,Left,0,0.0804,0.1161,-0.6080,0.7813,0.0096,0.0058,0.0015,-0.0611,-0.0390,-0.0998,-2.6891,-0.2222,9.3308,0.0001,0.0001,0.0000,1.0000,-0.0672,-0.0056,0.2333
451298,Pelvis,0,-0.0795,-0.6447,-0.0920,0.7547,0.0031,-0.0031,-0.0024,-0.0104,0.0119,-0.0074,9.6830,-0.0049,1.5438,0.0000,-0.0000,-0.0000,1.0000,0.2421,-0.0001,0.0386
451298,Right,0,-0.0090,0.0071,0.5338,0.8456,-0.0106,0.0036,0.0348,-0.0284,0.0302,-0.0306,-0.1964,-0.0349,9.7801,-0.0001,0.0000,0.0004,1.0000,-0.0049,-0.0008,0.2445
451299,Left,0,0.0804,0.1162,-0.6080,0.7812,0.0112,0.0058,0.0024,-0.0352,-0.0328,-0.0830,-2.6940,-0.1960,9.3474,0.0001,0.0001,0.0000,1.0000,-0.0673,-0.0049,0.2337
451299,Pelvis,0,-0.0794,-0.6447,-0.0920,0.7547,0.0040,-0.0031,-0.0007,-0.0122,0.0017,-0.0066,9.6840,-0.0141,1.5429,0.0001,-0.0000,-0.0000,1.0000,0.2421,-0.0004,0.0386
451299,Right,0,-0.0092,0.0071,0.5341,0.8453,-0.0110,0.0065,0.0331,-0.0392,0.0366,-0.0258,-0.1967,-0.0245,9.7851,-0.0001,0.0001,0.0004,1.0000,-0.0049,-0.0006,0.2446
451300,Left,0,0.0804,0.1162,-0.6081,0.7812,0.0107,0.0067,0.0014,-0.0490,-0.0344,-0.0942,-2.6931,-0.2091,9.3357,0.0001,0.0001,0.0000,1.0000,-0.0673,-0.0053,0.2334
451300,Pelvis,0,-0.0794,-0.6447,-0.0920,0.7547,0.0050,-0.0059,-0.0011,-0.0194,0.0038,-0.0030,9.6862,-0.0136,1.5513,0.0001,-0.0001,-0.0000,1.0000,0.2422,-0.0003,0.0388
451300,Right,0,-0.0092,0.0071,0.5345,0.8451,-0.0090,0.0040,0.0326,-0.0375,0.0462,-0.0386,-0.1875,-0.0227,9.7724,-0.0001,0.0001,0.0004,1.0000,-0.0047,-0.0005,0.2443
451301,Left,0,0.0804,0.1162,-0.6081,0.7812,0.0103,0.0070,0.0023,-0.0338,-0.0356,-0.0948,-2.6880,-0.1945,9.3368,0.0001,0.0001,0.0000,1.0000,-0.0672,-0.0049,0.2334
451301,Pelvis,0,-0.0794,-0.6446,-0.0919,0.7548,0.0015,-0.0038,-0.0010,-0.0045,0.0023,0.0025,9.6939,-0.0124,1.5386,0.0000,-0.0000,-0.0000,1.0000,0.2423,-0.0003,0.0385
451301,Right,0,-0.0093,0.0071,0.5348,0.8449,-0.0091,0.0046,0.0361,-0.0331,0.0428,-0.0257,-0.1894,-0.0297,9.7853,-0.0001,0.0001,0.0005,1.0000,-0.0047,-0.0007,0.2446
451302,Left,0,0.0805,0.1162,-0.6081,0.7812,0.0100,0.0055,0.0027,-0.0295,-0.0280,-0.0830,-2.6985,-0.1882,9.3462,0.0001,0.0001,0.0000,1.0000,-0.0674,-0.0047,0.2337
451302,Pelvis,0,-0.0794,-0.6446,-0.0919,0.7548,0.0027,-0.0026,-0.0012,-0.0247,0.0064,0.0005,9.6886,-0.0129,1.5589,0.0000,-0.0000,-0.0000,1.0000,0.2422,-0.0003,0.0390
451302,Right,0,-0.0094,0.0071,0.5352,0.8446,-0.0112,0.0052,0.0364,-0.0234,0.0490,-0.0345,-0.1809,-0.0368,9.7766,-0.0001,0.0001,0.0005,1.0000,-0.0045,-0.0009,0.2444
451303,Left,0,0.0805,0.1162,-0.6081,0.7812,0.0108,0.0061,0.0012,-0.0394,-0.0445,-0.0785,-2.6874,-0.2016,9.3539,0.0001,0.0001,0.0000,1.0000,-0.0672,-0.0051,0.2339
451303,Pelvis,0,-0.0794,-0.6447,-0.0919,0.7547,0.0043,-0.0053,-0.0023,-0.0096,-0.0068,-0.0057,9.6855,-0.0221,1.5387,0.0001,-0.0001,-0.0000,1.0000,0.2421,-0.0006,0.0385
451303,Right,0,-0.0094,0.0071,0.5356,0.8444,-0.0091,0.0044,0.0349,-0.0421,0.0473,-0.0208,-0.1908,-0.0214,9.7902,-0.0001,0.0001,0.0004,1.0000,-0.0048,-0.0005,0.2448
451304,Left,0,0.0805,0.1162,-0.6082,0.7811,0.0095,0.0064,0.0017,-0.0532,-0.0445,-0.1065,-2.6831,-0.2147,9.3258,0.0001,0.0001,0.0000,1.0000,-0.0671,-0.0054,0.2331
451304,Pelvis,0,-0.0795,-0.6447,-0.0919,0.7547,0.0021,-0.0032,-0.0011,-0.0130,0.0160,-0.0039,9.6860,-0.0021,1.5475,0.0000,-0.0000,-0.0000,1.0000,0.2421,-0.0001,0.0387
451304,Right,0,-0.0095,0.0071,0.5360,0.8442,-0.0107,0.0049,0.0357,-0.0277,0.0384,-0.0564,-0.1923,-0.0395,9.7545,-0.0001,0.0001,0.0004,1.0000,-0.0048,-0.0010,0.2439
451305,Pelvis,0,-0.0795,-0.6447,-0.0919,0.7547,0.0039,-0.0054,-0.0005,-0.0071,-0.0047,-0.0057,9.6858,-0.0213,1.5367,0.0000,-0.0001,-0.0000,1.0000,0.2421,-0.0005,0.0384
451305,Right,0,-0.0096,0.0071,0.5363,0.8439,-0.0100,0.0049,0.0332,-0.0328,0.0525,-0.0296,-0.1835,-0.0309,9.7815,-0.0001,0.0001,0.0004,1.0000,-0.0046,-0.0007,0.2445
451306,Left,0,0.0807,0.1162,-0.6082,0.7811,0.0114,0.0059,0.0020,-0.0464,-0.0528,-0.1017,-2.6763,-0.2088,9.3329,0.0003,0.0001,0.0001,1.0000,-0.1337,-0.0106,0.4667
451306,Pelvis,0,-0.0795,-0.6447,-0.0919,0.7548,0.0026,-0.0048,-0.0010,-0.0203,0.0089,0.0005,9.6893,-0.0112,1.5547,0.0000,-0.0001,-0.0000,1.0000,0.2422,-0.0003,0.0389
451306,Right,0,-0.0096,0.0071,0.5367,0.8437,-0.0096,0.0055,0.0341,-0.0351,0.0533,-0.0207,-0.1848,-0.0291,9.7904,-0.0001,0.0001,0.0004,1.0000,-0.0046,-0.0007,0.2448
451307,Left,0,0.0806,0.1163,-0.6082,0.7810,0.0108,0.0049,0.0029,-0.0309,-0.0379,-0.0953,-2.6896,-0.1908,9.3360,0.0001,0.0001,0.0000,1.0000,-0.0672,-0.0048,0.2334
451307,Pelvis,0,-0.0796,-0.6446,-0.0918,0.7548,0.0026,-0.0032,-0.0017,-0.0117,-0.0007,-0.0022,9.6883,-0.0205,1.5440,0.0000,-0.0000,-0.0000,1.0000,0.2422,-0.0005,0.0386
451307,Right,0,-0.0097,0.0071,0.5370,0.8435,-0.0102,0.0025,0.0337,-0.0235,0.0360,-0.0345,-0.1966,-0.0473,9.7762,-0.0001,0.0000,0.0004,1.0000,-0.0049,-0.0012,0.2444
451308,Left,0,0.0807,0.1162,-0.6082,0.7810,0.0100,0.0049,0.0025,-0.0416,-0.0236,-0.1165,-2.6997,-0.1960,9.3108,0.0001,0.0001,0.0000,1.0000,-0.0675,-0.0049,0.2328
451308,Pelvis,0,-0.0797,-0.6446,-0.0918,0.7548,0.0039,-0.0037,-0.0012,-0.0143,0.0010,-0.0112,9.6789,-0.0210,1.5453,0.0000,-0.0000,-0.0000,1.0000,0.2420,-0.0005,0.0386
451308,Right,0,-0.0098,0.0072,0.5374,0.8432,-0.0101,0.0070,0.0345,-0.0393,0.0567,-0.0247,-0.1860,-0.0248,9.7864,-0.0001,0.0001,0.0004,1.0000,-0.0046,-0.0006,0.2447
451309,Left,0,0.0807,0.1163,-0.6083,0.7810,0.0104,0.0058,0.0019,-0.0526,-0.0492,-0.1069,-2.6828,-0.2134,9.3255,0.0001,0.0001,0.0000,1.0000,-0.0671,-0.0054,0.2331
451309,Pelvis,0,-0.0797,-0.6446,-0.0918,0.7548,0.0039,-0.0048,-0.0011,-0.0070,0.0116,-0.0030,9.6877,-0.0099,1.5423,0.0000,-0.0001,-0.0000,1.0000,0.2422,-0.0003,0.0386
451309,Right,0,-0.0098,0.0072,0.5378,0.8430,-0.0092,0.0031,0.0351,-0.0423,0.0589,-0.0377,-0.1864,-0.0221,9.7735,-0.0001,0.0000,0.0004,1.0000,-0.0047,-0.0005,0.2443
451310,Left,0,0.0808,0.1163,-0.6083,0.7810,0.0108,0.0043,0.0027,-0.0451,-0.0536,-0.1131,-2.6761,-0.2067,9.3211,0.0001,0.0001,0.0000,1.0000,-0.0669,-0.0052,0.2330
451310,Pelvis,0,-0.0797,-0.6446,-0.0917,0.7548,0.0032,-0.0037,-0.0017,-0.0035,0.0005,-0.0147,9.6771,-0.0201,1.5337,0.0000,-0.0000,-0.0000,1.0000,0.2419,-0.0005,0.0384
451310,Right,0,-0.0100,0.0072,0.5381,0.8428,-0.0107,0.0046,0.0345,-0.0296,0.0630,-0.0335,-0.1786,-0.0341,9.7777,-0.0001,0.0001,0.0004,1.0000,-0.0045,-0.0008,0.2444
451311,Left,0,0.0809,0.1164,-0.6083,0.7810,0.0112,0.0069,0.0007,-0.0347,-0.0541,-0.0738,-2.6854,-0.1965,9.3595,0.0001,0.0001,0.0000,1.0000,-0.0671,-0.0049,0.2340
451311,Pelvis,0,-0.0797,-0.6446,-0.0917,0.7548,0.0040,-0.0043,-0.0006,-0.0304,0.0191,0.0076,9.6942,-0.0088,1.5690,0.0000,-0.0001,-0.0000,1.0000,0.2424,-0.0002,0.0392
451311,Right,0,-0.0100,0.0072,0.5385,0.8425,-0.0096,0.0057,0.0352,-0.0370,0.0538,-0.0029,-0.1903,-0.0326,9.8081,-0.0001,0.0001,0.0004,1.0000,-0.0047,-0.0008,0.2452
451312,Pelvis,0,-0.0797,-0.6445,-0.0918,0.7548,0.0019,-0.0043,-0.0021,-0.0003,0.0031,0.0069,9.6985,-0.0174,1.5371,0.0000,-0.0001,-0.0000,1.0000,0.2425,-0.0004,0.0384
451312,Right,0,-0.0102,0.0072,0.5389,0.8423,-0.0097,0.0043,0.0343,-0.0377,0.0554,-0.0247,-0.1908,-0.0338,9.7863,-0.0001,0.0001,0.0004,1.0000,-0.0048,-0.0008,0.2447
451313,Pelvis,0,-0.0797,-0.6445,-0.0917,0.7548,0.0045,-0.0042,-0.0012,-0.0175,-0.0043,-0.0068,9.6827,-0.0283,1.5496,0.0001,-0.0001,-0.0000,1.0000,0.2421,-0.0007,0.0388
451313,Right,0,-0.0103,0.0073,0.5392,0.8421,-0.0102,0.0043,0.0338,-0.0341,0.0670,-0.0376,-0.1813,-0.0321,9.7737,-0.0001,0.0001,0.0004,1.0000,-0.0045,-0.0008,0.2443
451314,Pelvis,0,-0.0797,-0.6445,-0.0917,0.7549,0.0032,-0.0048,-0.0016,-0.0281,-0.0016,-0.0123,9.6754,-0.0287,1.5601,0.0000,-0.0001,-0.0000,1.0000,0.2419,-0.0007,0.0390
451314,Right,0,-0.0104,0.0073,0.5396,0.8418,-0.0107,0.0050,0.0337,-0.0525,0.0665,-0.0239,-0.1909,-0.0167,9.7873,-0.0001,0.0001,0.0004,1.0000,-0.0048,-0.0004,0.2447
451315,Left,0,0.0813,0.1163,-0.6083,0.7809,0.0111,0.0051,0.0018,-0.0560,-0.0521,-0.0973,-2.6871,-0.2114,9.3343,0.0006,0.0003,0.0001,1.0000,-0.2685,-0.0217,0.9335
451315,Pelvis,0,-0.0797,-0.6445,-0.0917,0.7549,0.0028,-0.0032,-0.0006,0.0096,0.0003,-0.0057,9.6875,-0.0170,1.5265,0.0000,-0.0000,-0.0000,1.0000,0.2422,-0.0004,0.0382
451315,Right,0,-0.0104,0.0074,0.5399,0.8416,-0.0102,0.0050,0.0342,-0.0338,0.0784,-0.0415,-0.1730,-0.0289,9.7700,-0.0001,0.0001,0.0004,1.0000,-0.0043,-0.0007,0.2442
451316,Left,0,0.0810,0.1162,-0.6084,0.7809,0.0120,0.0057,0.0008,-0.0565,-0.0421,-0.1011,-2.6927,-0.2105,9.3287,0.0002,0.0001,0.0000,1.0000,-0.0673,-0.0053,0.2332
451316,Pelvis,0,-0.0797,-0.6444,-0.0917,0.7549,0.0027,-0.0037,-0.0011,-0.0040,0.0146,0.0005,9.6908,-0.0068,1.5449,0.0000,-0.0000,-0.0000,1.0000,0.2423,-0.0002,0.0386
451316,Right,0,-0.0104,0.0074,0.5403,0.8414,-0.0092,0.0042,0.0348,-0.0282,0.0756,-0.0504,-0.1742,-0.0351,9.7610,-0.0001,0.0001,0.0004,1.0000,-0.0043,-0.0009,0.2440
451317,Pelvis,0,-0.0798,-0.6444,-0.0917,0.7550,0.0039,-0.0037,-0.0012,-0.0078,0.0069,-0.0077,9.6824,-0.0170,1.5460,0.0000,-0.0000,-0.0000,1.0000,0.2421,-0.0004,0.0387
451317,Right,0,-0.0105,0.0074,0.5407,0.8411,-0.0102,0.0070,0.0356,-0.0357,0.0656,-0.0197,-0.1860,-0.0334,9.7914,-0.0001,0.0001,0.0004,1.0000,-0.0046,-0.0008,0.2448
451318,Left,0,0.0813,0.1162,-0.6083,0.7809,0.0111,0.0059,0.0021,-0.0508,-0.0536,-0.0879,-2.6874,-0.2044,9.3441,0.0003,0.0001,0.0001,1.0000,-0.1343,-0.0104,0.4672
451318,Pelvis,0,-0.0798,-0.6444,-0.0917,0.7549,0.0019,-0.0049,-0.0015,-0.0320,0.0127,-0.0187,9.6677,-0.0183,1.5681,0.0000,-0.0001,-0.0000,1.0000,0.2417,-0.0005,0.0392
451318,Right,0,-0.0105,0.0074,0.5410,0.8409,-0.0092,0.0039,0.0336,-0.0347,0.0654,-0.0197,-0.1874,-0.0356,9.7914,-0.0001,0.0000,0.0004,1.0000,-0.0047,-0.0009,0.2448
451319,Left,0,0.0811,0.1162,-0.6085,0.7808,0.0108,0.0055,0.0031,-0.0407,-0.0575,-0.0915,-2.6787,-0.1983,9.3430,0.0001,0.0001,0.0000,1.0000,-0.0670,-0.0050,0.2336
451319,Pelvis,0,-0.0797,-0.6444,-0.0917,0.7550,0.0033,-0.0043,-0.0011,-0.0168,0.0001,-0.0032,9.6857,-0.0258,1.5532,0.0000,-0.0001,-0.0000,1.0000,0.2421,-0.0007,0.0388
451319,Right,0,-0.0106,0.0073,0.5414,0.8407,-0.0103,0.0044,0.0349,-0.0271,0.0708,-0.0285,-0.1788,-0.0428,9.7827,-0.0001,0.0001,0.0004,1.0000,-0.0045,-0.0010,0.2446
451320,Left,0,0.0810,0.1163,-0.6085,0.7808,0.0101,0.0065,0.0016,-0.0527,-0.0597,-0.0858,-2.6812,-0.2117,9.3480,0.0001,0.0001,0.0000,1.0000,-0.0670,-0.0053,0.2337
451320,Pelvis,0,-0.0796,-0.6444,-0.0917,0.7550,0.0027,-0.0043,-0.0004,0.0077,0.0036,-0.0021,9.6903,-0.0150,1.5312,0.0000,-0.0001,-0.0000,1.0000,0.2423,-0.0004,0.0383
451320,Right,0,-0.0107,0.0073,0.5417,0.8404,-0.0108,0.0058,0.0353,-0.0471,0.0709,-0.0585,-0.1870,-0.0254,9.7527,-0.0001,0.0001,0.0004,1.0000,-0.0047,-0.0006,0.2438
451321,Left,0,0.0811,0.1162,-0.6085,0.7808,0.0104,0.0058,0.0019,-0.0416,-0.0688,-0.0982,-2.6669,-0.2011,9.3395,0.0001,0.0001,0.0000,1.0000,-0.0667,-0.0051,0.2335
451321,Pelvis,0,-0.0797,-0.6443,-0.0917,0.7550,0.0032,-0.0048,-0.0016,-0.0157,-0.0007,-0.0123,9.6765,-0.0261,1.5532,0.0000,-0.0001,-0.0000,1.0000,0.2419,-0.0007,0.0388
451321,Right,0,-0.0108,0.0074,0.5421,0.8402,-0.0098,0.0055,0.0351,-0.0445,0.0693,-0.0366,-0.1892,-0.0287,9.7745,-0.0001,0.0001,0.0004,1.0000,-0.0047,-0.0007,0.2444
451322,Left,0,0.0813,0.1163,-0.6085,0.7808,0.0123,0.0078,0.0006,-0.0502,-0.0579,-0.1026,-2.6808,-0.2063,9.3307,0.0002,0.0001,0.0000,1.0000,-0.0670,-0.0052,0.2333
451322,Pelvis,0,-0.0797,-0.6444,-0.0916,0.7550,0.0044,-0.0053,-0.0011,-0.0096,0.0089,-0.0041,9.6853,-0.0150,1.5500,0.0001,-0.0001,-0.0000,1.0000,0.2421,-0.0004,0.0388
451322,Right,0,-0.0108,0.0073,0.5425,0.8400,-0.0093,0.0034,0.0343,-0.0364,0.0626,-0.0326,-0.1913,-0.0398,9.7784,-0.0001,0.0000,0.0004,1.0000,-0.0048,-0.0010,0.2445
451323,Left,0,0.0812,0.1163,-0.6086,0.7807,0.0100,0.0043,0.0023,-0.0533,-0.0500,-0.0964,-2.6901,-0.2077,9.3345,0.0001,0.0001,0.0000,1.0000,-0.0672,-0.0052,0.2334
451323,Pelvis,0,-0.0797,-0.6442,-0.0916,0.7551,0.0027,-0.0043,-0.0004,0.0101,-0.0058,-0.0103,9.6822,-0.0245,1.5296,0.0000,-0.0001,-0.0000,1.0000,0.2421,-0.0006,0.0383
451323,Right,0,-0.0108,0.0073,0.5428,0.8397,-0.0113,0.0051,0.0343,-0.0439,0.0783,-0.0187,-0.1814,-0.0264,9.7926,-0.0001,0.0001,0.0004,1.0000,-0.0045,-0.0006,0.2448
451324,Left,0,0.0814,0.1161,-0.6085,0.7808,0.0120,0.0058,0.0028,-0.0571,-0.0573,-0.0744,-2.6891,-0.2090,9.3577,0.0001,0.0001,0.0000,1.0000,-0.0672,-0.0053,0.2339
451324,Pelvis,0,-0.0796,-0.6443,-0.0917,0.7551,0.0023,-0.0048,-0.0033,-0.0161,0.0011,0.0003,9.6887,-0.0238,1.5572,0.0000,-0.0001,-0.0000,1.0000,0.2422,-0.0006,0.0389
451324,Right,0,-0.0108,0.0073,0.5432,0.8395,-0.0092,0.0050,0.0333,-0.0374,0.0617,-0.0455,-0.1928,-0.0395,9.7655,-0.0001,0.0001,0.0004,1.0000,-0.0048,-0.0010,0.2441
451325,Left,0,0.0815,0.1161,-0.6085,0.7808,0.0100,0.0049,0.0025,-0.0670,-0.0651,-0.0917,-2.6801,-0.2181,9.3421,0.0001,0.0001,0.0000,1.0000,-0.0670,-0.0055,0.2336
451325,Pelvis,0,-0.0796,-0.6443,-0.0916,0.7551,0.0029,-0.0038,0.0001,-0.0102,-0.0011,-0.0123,9.6772,-0.0243,1.5487,0.0000,-0.0000,0.0000,1.0000,0.2419,-0.0006,0.0387
451325,Right,0,-0.0109,0.0074,0.5435,0.8393,-0.0104,0.0043,0.0348,-0.0437,0.0666,-0.0495,-0.1929,-0.0329,9.7615,-0.0001,0.0001,0.0004,1.0000,-0.0048,-0.0008,0.2440
451326,Pelvis,0,-0.0797,-0.6443,-0.0916,0.7551,0.0037,-0.0047,-0.0023,0.0046,-0.0021,-0.0068,9.6848,-0.0230,1.5360,0.0000,-0.0001,-0.0000,1.0000,0.2421,-0.0006,0.0384
451326,Right,0,-0.0110,0.0074,0.5439,0.8390,-0.0098,0.0039,0.0330,-0.0363,0.0846,-0.0404,-0.1743,-0.0333,9.7711,-0.0001,0.0000,0.0004,1.0000,-0.0043,-0.0008,0.2443
451327,Left,0,0.0817,0.1161,-0.6084,0.7808,0.0106,0.0065,0.0021,-0.0629,-0.0576,-0.0884,-2.6896,-0.2103,9.3430,0.0003,0.0002,0.0001,1.0000,-0.1344,-0.0106,0.4672
451327,Pelvis,0,-0.0796,-0.6442,-0.0916,0.7552,0.0034,-0.0037,-0.0006,0.0050,-0.0128,-0.0059,9.6859,-0.0323,1.5349,0.0000,-0.0000,-0.0000,1.0000,0.2421,-0.0008,0.0384
451327,Right,0,-0.0110,0.0073,0.5443,0.8388,-0.0103,0.0053,0.0334,-0.0402,0.0738,-0.0187,-0.1860,-0.0356,9.7925,-0.0001,0.0001,0.0004,1.0000,-0.0046,-0.0009,0.2448
451328,Left,0,0.0817,0.1163,-0.6084,0.7808,0.0102,0.0053,0.0012,-0.0607,-0.0654,-0.0917,-2.6844,-0.2104,9.3411,0.0001,0.0001,0.0000,1.0000,-0.0671,-0.0053,0.2335
451328,Pelvis,0,-0.0797,-0.6442,-0.0916,0.7552,0.0026,-0.0043,-0.0016,-0.0199,0.0146,-0.0060,9.6810,-0.0132,1.5649,0.0000,-0.0001,-0.0000,1.0000,0.2420,-0.0003,0.0391
451328,Right,0,-0.0111,0.0074,0.5446,0.8386,-0.0114,0.0051,0.0342,-0.0406,0.0863,-0.0226,-0.1765,-0.0303,9.7889,-0.0001,0.0001,0.0004,1.0000,-0.0044,-0.0007,0.2447
451329,Left,0,0.0817,0.1164,-0.6085,0.7807,0.0106,0.0062,0.0007,-0.0587,-0.0721,-0.0866,-2.6801,-0.2119,9.3476,0.0001,0.0001,0.0000,1.0000,-0.0670,-0.0053,0.2337
451329,Pelvis,0,-0.0797,-0.6442,-0.0915,0.7552,0.0039,-0.0037,-0.0012,0.0099,-0.0009,-0.0068,9.6853,-0.0217,1.5331,0.0000,-0.0000,-0.0000,1.0000,0.2421,-0.0005,0.0383
451329,Right,0,-0.0113,0.0075,0.5450,0.8383,-0.0093,0.0045,0.0339,-0.0445,0.0791,-0.0227,-0.1874,-0.0316,9.7886,-0.0001,0.0001,0.0004,1.0000,-0.0047,-0.0008,0.2447
451330,Left,0,0.0818,0.1164,-0.6085,0.7807,0.0121,0.0056,0.0034,-0.0607,-0.0578,-0.0854,-2.6950,-0.2092,9.3445,0.0002,0.0001,0.0000,1.0000,-0.0674,-0.0053,0.2336
451330,Pelvis,0,-0.0797,-0.6443,-0.0915,0.7551,0.0031,-0.0048,-0.0016,-0.0121,0.0055,-0.0087,9.6801,-0.0220,1.5532,0.0000,-0.0001,-0.0000,1.0000,0.2420,-0.0006,0.0388
451330,Right,0,-0.0112,0.0074,0.5453,0.8381,-0.0098,0.0045,0.0334,-0.0426,0.0871,-0.0355,-0.1779,-0.0299,9.7760,-0.0001,0.0001,0.0004,1.0000,-0.0044,-0.0007,0.2444
451331,Left,0,0.0818,0.1165,-0.6085,0.7807,0.0103,0.0064,0.0021,-0.0525,-0.0714,-0.0697,-2.6863,-0.2064,9.3635,0.0001,0.0001,0.0000,1.0000,-0.0671,-0.0052,0.2341
451331,Pelvis,0,-0.0798,-0.6443,-0.0914,0.7551,0.0026,-0.0031,-0.0017,-0.0096,0.0167,-0.0096,9.6794,-0.0118,1.5524,0.0000,-0.0000,-0.0000,1.0000,0.2420,-0.0003,0.0388
451331,Right,0,-0.0113,0.0075,0.5457,0.8379,-0.0105,0.0037,0.0355,-0.0243,0.0781,-0.0275,-0.1811,-0.0500,9.7838,-0.0001,0.0000,0.0004,1.0000,-0.0045,-0.0012,0.2446
451332,Left,0,0.0818,0.1165,-0.6086,0.7806,0.0104,0.0058,0.0019,-0.0494,-0.0605,-0.0916,-2.6899,-0.1998,9.3397,0.0001,0.0001,0.0000,1.0000,-0.0672,-0.0050,0.2335
451332,Pelvis,0,-0.0798,-0.6443,-0.0914,0.7551,0.0025,-0.0048,-0.0021,-0.0073,0.0073,0.0003,9.6899,-0.0200,1.5492,0.0000,-0.0001,-0.0000,1.0000,0.2422,-0.0005,0.0387
451332,Right,0,-0.0112,0.0075,0.5461,0.8376,-0.0103,0.0052,0.0334,-0.0295,0.0787,-0.0314,-0.1811,-0.0435,9.7798,-0.0001,0.0001,0.0004,1.0000,-0.0045,-0.0011,0.2445
451333,Left,0,0.0817,0.1165,-0.6086,0.7806,0.0096,0.0052,0.0013,-0.0527,-0.0805,-0.0931,-2.6709,-0.2092,9.3436,0.0001,0.0001,0.0000,1.0000,-0.0668,-0.0053,0.2336
451333,Pelvis,0,-0.0797,-0.6443,-0.0914,0.7551,0.0030,-0.0015,-0.0002,-0.0023,0.0262,-0.0014,9.6883,-0.0002,1.5487,0.0000,-0.0000,-0.0000,1.0000,0.2422,-0.0000,0.0387
451333,Right,0,-0.0111,0.0075,0.5464,0.8374,-0.0104,0.0042,0.0348,-0.0353,0.0805,-0.0354,-0.1812,-0.0370,9.7759,-0.0001,0.0001,0.0004,1.0000,-0.0045,-0.0009,0.2444
451334,Left,0,0.0817,0.1164,-0.6087,0.7806,0.0112,0.0058,0.0024,-0.0467,-0.0626,-0.0864,-2.6869,-0.1988,9.3460,0.0001,0.0001,0.0000,1.0000,-0.0672,-0.0050,0.2337
451334,Pelvis,0,-0.0797,-0.6443,-0.0914,0.7551,0.0035,-0.0047,-0.0034,0.0055,-0.0066,-0.0149,9.6774,-0.0299,1.5306,0.0000,-0.0001,-0.0000,1.0000,0.2419,-0.0008,0.0383
451334,Right,0,-0.0114,0.0076,0.5468,0.8371,-0.0094,0.0053,0.0355,-0.0357,0.0737,-0.0444,-0.1922,-0.0420,9.7666,-0.0001,0.0001,0.0004,1.0000,-0.0048,-0.0010,0.2442
451335,Pelvis,0,-0.0797,-0.6443,-0.0914,0.7551,0.0045,-0.0048,-0.0006,-0.0066,-0.0017,0.0012,9.6913,-0.0282,1.5464,0.0001,-0.0001,-0.0000,1.0000,0.2423,-0.0007,0.0387
451335,Right,0,-0.0115,0.0076,0.5472,0.8369,-0.0104,0.0047,0.0340,-0.0336,0.0838,-0.0354,-0.1836,-0.0415,9.7759,-0.0001,0.0001,0.0004,1.0000,-0.0046,-0.0010,0.2444
451336,Left,0,0.0819,0.1163,-0.6088,0.7805,0.0113,0.0065,0.0022,-0.0503,-0.0647,-0.0866,-2.6857,-0.2006,9.3461,0.0003,0.0002,0.0001,1.0000,-0.1342,-0.0102,0.4673
451336,Pelvis,0,-0.0797,-0.6443,-0.0914,0.7551,0.0031,-0.0048,-0.0016,-0.0010,0.0180,-0.0006,9.6897,-0.0083,1.5455,0.0000,-0.0001,-0.0000,1.0000,0.2422,-0.0002,0.0387
451336,Right,0,-0.0115,0.0077,0.5475,0.8367,-0.0105,0.0042,0.0347,-0.0310,0.0825,-0.0354,-0.1848,-0.0439,9.7758,-0.0001,0.0001,0.0004,1.0000,-0.0046,-0.0011,0.2444
451337,Left,0,0.0819,0.1163,-0.6087,0.7805,0.0108,0.0054,0.0010,-0.0630,-0.0484,-0.0964,-2.7024,-0.2065,9.3310,0.0001,0.0001,0.0000,1.0000,-0.0675,-0.0052,0.2333
451337,Pelvis,0,-0.0797,-0.6443,-0.0913,0.7551,0.0025,-0.0054,-0.0015,0.0067,0.0069,-0.0032,9.6887,-0.0176,1.5346,0.0000,-0.0001,-0.0000,1.0000,0.2422,-0.0004,0.0384
451337,Right,0,-0.0115,0.0078,0.5479,0.8364,-0.0104,0.0046,0.0340,-0.0326,0.1065,-0.0214,-0.1650,-0.0319,9.7905,-0.0001,0.0001,0.0004,1.0000,-0.0041,-0.0008,0.2448
451338,Left,0,0.0820,0.1164,-0.6087,0.7805,0.0095,0.0070,0.0019,-0.0610,-0.0773,-0.0872,-2.6791,-0.2119,9.3473,0.0001,0.0001,0.0000,1.0000,-0.0670,-0.0053,0.2337
451338,Pelvis,0,-0.0798,-0.6443,-0.0913,0.7551,0.0037,-0.0047,-0.0022,0.0041,-0.0009,-0.0114,9.6803,-0.0277,1.5354,0.0000,-0.0001,-0.0000,1.0000,0.2420,-0.0007,0.0384
451338,Right,0,-0.0115,0.0078,0.5483,0.8362,-0.0094,0.0057,0.0348,-0.0295,0.0825,-0.0483,-0.1862,-0.0435,9.7629,-0.0001,0.0001,0.0004,1.0000,-0.0046,-0.0011,0.2441
451339,Left,0,0.0822,0.1165,-0.6087,0.7805,0.0115,0.0067,0.0018,-0.0608,-0.0574,-0.0912,-2.6999,-0.2054,9.3371,0.0001,0.0001,0.0000,1.0000,-0.0675,-0.0052,0.2334
451339,Pelvis,0,-0.0798,-0.6442,-0.0913,0.7552,0.0042,-0.0032,0.0005,-0.0009,0.0098,-0.0087,9.6816,-0.0175,1.5441,0.0001,-0.0000,0.0000,1.0000,0.2420,-0.0004,0.0386
451339,Right,0,-0.0115,0.0078,0.5487,0.8359,-0.0115,0.0037,0.0344,-0.0232,0.0776,-0.0354,-0.1884,-0.0509,9.7757,-0.0001,0.0000,0.0004,1.0000,-0.0047,-0.0012,0.2444
451340,Left,0,0.0822,0.1165,-0.6087,0.7805,0.0107,0.0067,0.0035,-0.0503,-0.0762,-0.0817,-2.6835,-0.1986,9.3520,0.0001,0.0001,0.0000,1.0000,-0.0671,-0.0050,0.2338
451340,Pelvis,0,-0.0797,-0.6442,-0.0913,0.7552,0.0037,-0.0047,-0.0022,-0.0013,0.0184,-0.0187,9.6714,-0.0083,1.5453,0.0000,-0.0001,-0.0000,1.0000,0.2418,-0.0002,0.0386
451340,Right,0,-0.0116,0.0080,0.5490,0.8357,-0.0084,0.0049,0.0353,-0.0389,0.0899,-0.0344,-0.1869,-0.0316,9.7769,-0.0001,0.0001,0.0004,1.0000,-0.0047,-0.0008,0.2444
451341,Left,0,0.0822,0.1163,-0.6088,0.7804,0.0113,0.0051,0.0001,-0.0658,-0.0747,-0.0927,-2.6825,-0.2118,9.3406,0.0001,0.0001,0.0000,1.0000,-0.0670,-0.0053,0.2335
451341,Pelvis,0,-0.0795,-0.6443,-0.0913,0.7551,0.0024,-0.0048,-0.0021,-0.0064,0.0097,0.0039,9.6935,-0.0155,1.5494,0.0000,-0.0001,-0.0000,1.0000,0.2423,-0.0004,0.0387
451341,Right,0,-0.0117,0.0081,0.5494,0.8355,-0.0094,0.0048,0.0331,-0.0325,0.0987,-0.0344,-0.1784,-0.0348,9.7772,-0.0001,0.0001,0.0004,1.0000,-0.0044,-0.0008,0.2444
451342,Left,0,0.0821,0.1164,-0.6089,0.7803,0.0115,0.0061,0.0037,-0.0479,-0.0736,-0.1102,-2.6736,-0.1970,9.3252,0.0001,0.0001,0.0000,1.0000,-0.0668,-0.0050,0.2331
451342,Pelvis,0,-0.0795,-0.6444,-0.0913,0.7551,0.0045,-0.0059,-0.0004,-0.0128,0.0097,-0.0142,9.6748,-0.0169,1.5523,0.0001,-0.0001,-0.0000,1.0000,0.2419,-0.0004,0.0388
451342,Right,0,-0.0118,0.0081,0.5497,0.8352,-0.0116,0.0037,0.0344,-0.0305,0.0973,-0.0125,-0.1804,-0.0383,9.7990,-0.0001,0.0000,0.0004,1.0000,-0.0045,-0.0009,0.2450
451343,Left,0,0.0822,0.1162,-0.6089,0.7804,0.0110,0.0059,0.0018,-0.0483,-0.0724,-0.0933,-2.6785,-0.1943,9.3414,0.0001,0.0001,0.0000,1.0000,-0.0669,-0.0049,0.2335
451343,Pelvis,0,-0.0796,-0.6444,-0.0912,0.7551,0.0035,-0.0064,-0.0026,-0.0256,0.0160,0.0020,9.6887,-0.0153,1.5678,0.0000,-0.0001,-0.0000,1.0000,0.2422,-0.0004,0.0392
451343,Right,0,-0.0117,0.0081,0.5501,0.8350,-0.0115,0.0055,0.0345,-0.0362,0.0993,-0.0383,-0.1794,-0.0309,9.7733,-0.0001,0.0001,0.0004,1.0000,-0.0045,-0.0007,0.2443
451344,Left,0,0.0821,0.1162,-0.6090,0.7803,0.0108,0.0043,0.0027,-0.0592,-0.0760,-0.0706,-2.6843,-0.2075,9.3632,0.0001,0.0001,0.0000,1.0000,-0.0671,-0.0052,0.2341
451344,Pelvis,0,-0.0795,-0.6444,-0.0912,0.7551,0.0031,-0.0042,-0.0022,-0.0037,-0.0009,-0.0169,9.6740,-0.0255,1.5399,0.0000,-0.0001,-0.0000,1.0000,0.2418,-0.0006,0.0385
451344,Right,0,-0.0120,0.0080,0.5504,0.8348,-0.0090,0.0056,0.0352,-0.0404,0.0906,-0.0255,-0.1916,-0.0371,9.7857,-0.0001,0.0001,0.0004,1.0000,-0.0048,-0.0009,0.2446
451345,Left,0,0.0821,0.1163,-0.6090,0.7803,0.0097,0.0068,0.0025,-0.0560,-0.0632,-0.1094,-2.6843,-0.2010,9.3228,0.0001,0.0001,0.0000,1.0000,-0.0671,-0.0051,0.2331
451345,Pelvis,0,-0.0795,-0.6443,-0.0912,0.7551,0.0038,-0.0042,-0.0017,-0.0076,-0.0077,-0.0034,9.6867,-0.0336,1.5462,0.0000,-0.0001,-0.0000,1.0000,0.2422,-0.0008,0.0387
451345,Right,0,-0.0121,0.0080,0.5508,0.8345,-0.0100,0.0052,0.0349,-0.0407,0.1023,-0.0076,-0.1829,-0.0327,9.8040,-0.0001,0.0001,0.0004,1.0000,-0.0046,-0.0008,0.2451
451346,Left,0,0.0821,0.1164,-0.6091,0.7802,0.0121,0.0051,0.0006,-0.0473,-0.0765,-0.0936,-2.6756,-0.1983,9.3418,0.0002,0.0001,0.0000,1.0000,-0.0669,-0.0050,0.2335
451346,Pelvis,0,-0.0795,-0.6443,-0.0912,0.7552,0.0023,-0.0036,-0.0034,-0.0017,0.0118,-0.0051,9.6850,-0.0134,1.5455,0.0000,-0.0000,-0.0000,1.0000,0.2421,-0.0003,0.0386
451346,Right,0,-0.0122,0.0081,0.5511,0.8343,-0.0115,0.0048,0.0341,-0.0335,0.0888,-0.0344,-0.1943,-0.0456,9.7767,-0.0001,0.0001,0.0004,1.0000,-0.0048,-0.0011,0.2444
451347,Pelvis,0,-0.0794,-0.6444,-0.0912,0.7551,0.0038,-0.0042,-0.0017,-0.0032,0.0117,-0.0051,9.6852,-0.0127,1.5445,0.0000,-0.0001,-0.0000,1.0000,0.2421,-0.0003,0.0386
451347,Right,0,-0.0120,0.0081,0.5515,0.8340,-0.0107,0.0035,0.0353,-0.0311,0.1073,-0.0293,-0.1746,-0.0378,9.7824,-0.0001,0.0000,0.0004,1.0000,-0.0044,-0.0009,0.2446
451348,Left,0,0.0821,0.1163,-0.6092,0.7801,0.0109,0.0074,0.0023,-0.0577,-0.0656,-0.0786,-2.6910,-0.2042,9.3529,0.0003,0.0002,0.0001,1.0000,-0.1345,-0.0103,0.4677
451348,Pelvis,0,-0.0794,-0.6444,-0.0912,0.7551,0.0041,-0.0026,-0.0002,-0.0086,0.0215,-0.0241,9.6654,-0.0044,1.5480,0.0001,-0.0000,-0.0000,1.0000,0.2416,-0.0001,0.0387
451348,Right,0,-0.0119,0.0081,0.5519,0.8338,-0.0095,0.0049,0.0342,-0.0357,0.1079,-0.0332,-0.1744,-0.0313,9.7786,-0.0001,0.0001,0.0004,1.0000,-0.0043,-0.0008,0.2445
451349,Left,0,0.0822,0.1164,-0.6092,0.7801,0.0125,0.0042,0.0015,-0.0589,-0.0658,-0.0698,-2.6983,-0.2060,9.3600,0.0002,0.0001,0.0000,1.0000,-0.0674,-0.0052,0.2340
451349,Pelvis,0,-0.0794,-0.6444,-0.0911,0.7551,0.0037,-0.0047,-0.0022,0.0070,0.0106,-0.0087,9.6833,-0.0119,1.5333,0.0000,-0.0001,-0.0000,1.0000,0.2421,-0.0003,0.0383
451349,Right,0,-0.0120,0.0082,0.5522,0.8336,-0.0116,0.0041,0.0336,-0.0362,0.0878,-0.0512,-0.1953,-0.0389,9.7599,-0.0001,0.0001,0.0004,1.0000,-0.0049,-0.0009,0.2440
451350,Left,0,0.0823,0.1164,-0.6092,0.7801,0.0116,0.0060,0.0016,-0.0575,-0.0834,-0.0994,-2.6734,-0.2070,9.3363,0.0001,0.0001,0.0000,1.0000,-0.0668,-0.0052,0.2334
451350,Pelvis,0,-0.0794,-0.6445,-0.0911,0.7550,0.0040,-0.0048,0.0001,0.0072,0.0115,-0.0087,9.6835,-0.0115,1.5321,0.0001,-0.0001,0.0000,1.0000,0.2421,-0.0003,0.0383
451350,Right,0,-0.0120,0.0084,0.5526,0.8333,-0.0085,0.0052,0.0345,-0.0252,0.1063,-0.0203,-0.1778,-0.0410,9.7913,-0.0001,0.0001,0.0004,1.0000,-0.0044,-0.0010,0.2448
451351,Left,0,0.0822,0.1165,-0.6094,0.7800,0.0124,0.0054,0.0019,-0.0648,-0.0800,-0.0650,-2.6885,-0.2160,9.3677,0.0002,0.0001,0.0000,1.0000,-0.0672,-0.0054,0.2342
451351,Pelvis,0,-0.0802,-0.6441,-0.0926,0.7551,0.0035,-0.0038,0.0006,0.0099,0.0023,-0.0178,9.6742,-0.0124,1.5332,0.0000,-0.0000,0.0000,1.0000,0.2419,-0.0003,0.0383
451351,Right,0,-0.0121,0.0085,0.5530,0.8331,-0.0107,0.0033,0.0341,-0.0153,0.1019,-0.0381,-0.1792,-0.0509,9.7733,-0.0001,0.0000,0.0004,1.0000,-0.0045,-0.0012,0.2443
451352,Left,2,0.0822,0.1165,-0.6095,0.7799,0.0102,0.0082,0.0027,-0.0488,-0.0783,-0.0993,-2.6764,-0.2013,9.3356,0.0001,0.0001,0.0000,1.0000,-0.0669,-0.0051,0.2334
451352,Pelvis,2,-0.0802,-0.6441,-0.0927,0.7551,0.0025,-0.0037,-0.0022,-0.0008,0.0166,-0.0024,9.6871,-0.0012,1.5494,0.0000,-0.0000,-0.0000,1.0000,0.2422,-0.0000,0.0387
451352,Right,2,-0.0121,0.0084,0.5533,0.8328,-0.0101,0.0044,0.0344,-0.0350,0.1012,-0.0461,-0.1873,-0.0343,9.7653,-0.0001,0.0001,0.0004,1.0000,-0.0047,-0.0008,0.2441
451353,Left,2,0.0824,0.1164,-0.6094,0.7799,0.0114,0.0062,0.0011,-0.0617,-0.0667,-0.0869,-2.6939,-0.2067,9.3434,0.0001,0.0001,0.0000,1.0000,-0.0673,-0.0052,0.2336
451353,Pelvis,2,-0.0803,-0.6441,-0.0927,0.7551,0.0034,-0.0043,0.0001,-0.0164,0.0002,-0.0061,9.6817,-0.0211,1.5598,0.0000,-0.0001,0.0000,1.0000,0.2420,-0.0005,0.0390
451353,Right,2,-0.0123,0.0084,0.5537,0.8326,-0.0096,0.0036,0.0344,-0.0344,0.1130,-0.0371,-0.1784,-0.0339,9.7746,-0.0001,0.0000,0.0004,1.0000,-0.0044,-0.0008,0.2444
451354,Left,2,0.0823,0.1165,-0.6094,0.7799,0.0109,0.0071,0.0022,-0.0672,-0.0744,-0.0872,-2.6886,-0.2159,9.3445,0.0001,0.0001,0.0000,1.0000,-0.0672,-0.0054,0.2336
451354,Pelvis,2,-0.0803,-0.6441,-0.0927,0.7551,0.0015,-0.0038,-0.0009,0.0139,0.0148,0.0030,9.6948,0.0001,1.5358,0.0000,-0.0000,-0.0000,1.0000,0.2424,0.0000,0.0384
451354,Right,2,-0.0126,0.0084,0.5540,0.8324,-0.0101,0.0048,0.0337,-0.0349,0.1159,-0.0372,-0.1795,-0.0362,9.7746,-0.0001,0.0001,0.0004,1.0000,-0.0045,-0.0009,0.2444
451355,Pelvis,2,-0.0803,-0.6440,-0.0928,0.7551,0.0026,-0.0043,-0.0016,-0.0142,0.0007,-0.0061,9.6820,-0.0205,1.5579,0.0000,-0.0001,-0.0000,1.0000,0.2420,-0.0005,0.0390
451355,Right,2,-0.0126,0.0084,0.5544,0.8321,-0.0096,0.0056,0.0358,-0.0455,0.1091,-0.0194,-0.1901,-0.0295,9.7921,-0.0001,0.0001,0.0004,1.0000,-0.0047,-0.0007,0.2448
451356,Left,2,0.0825,0.1166,-0.6095,0.7798,0.0109,0.0056,0.0027,-0.0551,-0.0685,-0.0927,-2.6931,-0.2019,9.3377,0.0003,0.0001,0.0001,1.0000,-0.1346,-0.0102,0.4669
451356,Pelvis,2,-0.0803,-0.6441,-0.0928,0.7551,0.0024,-0.0059,-0.0020,-0.0023,0.0080,-0.0106,9.6792,-0.0104,1.5472,0.0000,-0.0001,-0.0000,1.0000,0.2420,-0.0003,0.0387
451356,Right,2,-0.0127,0.0085,0.5548,0.8319,-0.0107,0.0025,0.0336,-0.0277,0.1118,-0.0242,-0.1829,-0.0458,9.7873,-0.0001,0.0000,0.0004,1.0000,-0.0046,-0.0011,0.2447
451357,Left,2,0.0825,0.1166,-0.6095,0.7798,0.0120,0.0057,0.0007,-0.0575,-0.0846,-0.1051,-2.6758,-0.2076,9.3298,0.0002,0.0001,0.0000,1.0000,-0.0669,-0.0052,0.2332
451357,Pelvis,2,-0.0803,-0.6441,-0.0928,0.7551,0.0037,-0.0036,-0.0024,-0.0013,0.0081,-0.0106,9.6794,-0.0097,1.5461,0.0000,-0.0000,-0.0000,1.0000,0.2420,-0.0003,0.0387
451357,Right,2,-0.0128,0.0085,0.5551,0.8316,-0.0106,0.0049,0.0331,-0.0333,0.1159,-0.0282,-0.1826,-0.0394,9.7834,-0.0001,0.0001,0.0004,1.0000,-0.0045,-0.0010,0.2446
451358,Left,2,0.0824,0.1167,-0.6096,0.7797,0.0103,0.0064,0.0021,-0.0599,-0.0852,-0.0768,-2.6830,-0.2128,9.3570,0.0001,0.0001,0.0000,1.0000,-0.0671,-0.0054,0.2339
451358,Pelvis,2,-0.0803,-0.6441,-0.0927,0.7551,0.0021,-0.0049,-0.0003,-0.0112,0.0011,-0.0061,9.6826,-0.0189,1.5545,0.0000,-0.0001,-0.0000,1.0000,0.2421,-0.0005,0.0389
451358,Right,2,-0.0128,0.0087,0.5555,0.8314,-0.0106,0.0057,0.0347,-0.0414,0.1230,-0.0450,-0.1814,-0.0279,9.7668,-0.0001,0.0001,0.0004,1.0000,-0.0045,-0.0007,0.2442
451359,Left,2,0.0823,0.1167,-0.6097,0.7796,0.0102,0.0059,0.0014,-0.0544,-0.0740,-0.0988,-2.6866,-0.2064,9.3332,0.0001,0.0001,0.0000,1.0000,-0.0671,-0.0052,0.2333
451360,Left,2,0.0823,0.1166,-0.6098,0.7796,0.0125,0.0059,0.0027,-0.0592,-0.0659,-0.0757,-2.6994,-0.2076,9.3535,0.0002,0.0001,0.0000,1.0000,-0.0675,-0.0052,0.2338
451360,Pelvis,2,-0.0803,-0.6441,-0.0927,0.7551,0.0036,-0.0037,-0.0009,-0.0003,0.0037,-0.0101,9.6802,-0.0137,1.5435,0.0001,-0.0001,-0.0000,1.0000,0.4840,-0.0007,0.0772
451360,Right,2,-0.0130,0.0088,0.5562,0.8309,-0.0109,0.0048,0.0343,-0.0450,0.1197,-0.0361,-0.1879,-0.0271,9.7755,-0.0003,0.0001,0.0009,1.0000,-0.0093,-0.0012,0.4888
451361,Left,2,0.0822,0.1167,-0.6098,0.7796,0.0108,0.0054,0.0010,-0.0582,-0.0784,-0.0822,-2.6860,-0.2127,9.3505,0.0001,0.0001,0.0000,1.0000,-0.0671,-0.0053,0.2338
451361,Pelvis,2,-0.0803,-0.6441,-0.0927,0.7551,0.0030,-0.0053,-0.0021,-0.0080,0.0016,-0.0061,9.6831,-0.0178,1.5514,0.0000,-0.0001,-0.0000,1.0000,0.2421,-0.0005,0.0388
451361,Right,2,-0.0130,0.0086,0.5565,0.8307,-0.0102,0.0036,0.0338,-0.0376,0.1286,-0.0360,-0.1751,-0.0328,9.7760,-0.0001,0.0000,0.0004,1.0000,-0.0044,-0.0008,0.2444
451362,Left,2,0.0823,0.1167,-0.6099,0.7795,0.0110,0.0081,0.0011,-0.0485,-0.0754,-0.0767,-2.6888,-0.2021,9.3556,0.0001,0.0001,0.0000,1.0000,-0.0672,-0.0051,0.2339
451362,Pelvis,2,-0.0803,-0.6441,-0.0927,0.7551,0.0017,-0.0048,-0.0026,0.0019,-0.0005,-0.0097,9.6811,-0.0173,1.5407,0.0000,-0.0001,-0.0000,1.0000,0.2420,-0.0004,0.0385
451362,Right,2,-0.0129,0.0087,0.5569,0.8305,-0.0107,0.0043,0.0338,-0.0468,0.1115,-0.0272,-0.1952,-0.0287,9.7843,-0.0001,0.0001,0.0004,1.0000,-0.0049,-0.0007,0.2446
451363,Left,2,0.0822,0.1167,-0.6100,0.7794,0.0111,0.0058,0.0024,-0.0430,-0.0843,-0.0946,-2.6734,-0.1994,9.3415,0.0001,0.0001,0.0000,1.0000,-0.0668,-0.0050,0.2335
451363,Pelvis,2,-0.0803,-0.6441,-0.0927,0.7551,0.0042,-0.0032,0.0005,-0.0007,-0.0004,-0.0187,9.6718,-0.0178,1.5418,0.0001,-0.0000,0.0000,1.0000,0.2418,-0.0004,0.0386
451363,Right,2,-0.0129,0.0088,0.5572,0.8302,-0.0107,0.0058,0.0358,-0.0422,0.1325,-0.0310,-0.1757,-0.0250,9.7811,-0.0001,0.0001,0.0004,1.0000,-0.0044,-0.0006,0.2445
451364,Left,2,0.0824,0.1166,-0.6100,0.7795,0.0112,0.0052,0.0022,-0.0544,-0.0726,-0.0990,-2.6870,-0.2047,9.3329,0.0001,0.0001,0.0000,1.0000,-0.0672,-0.0052,0.2333
451364,Pelvis,2,-0.0802,-0.6441,-0.0927,0.7551,0.0024,-0.0048,-0.0021,0.0078,-0.0002,-0.0007,9.6909,-0.0157,1.5366,0.0000,-0.0001,-0.0000,1.0000,0.2423,-0.0004,0.0384
451364,Right,2,-0.0131,0.0088,0.5576,0.8299,-0.0108,0.0038,0.0345,-0.0384,0.1212,-0.0271,-0.1880,-0.0350,9.7846,-0.0001,0.0000,0.0004,1.0000,-0.0047,-0.0008,0.2446
451365,Left,2,0.0824,0.1165,-0.6099,0.7795,0.0099,0.0061,0.0028,-0.0600,-0.0648,-0.0927,-2.6962,-0.2060,9.3367,0.0001,0.0001,0.0000,1.0000,-0.0674,-0.0052,0.2334
451365,Pelvis,2,-0.0803,-0.6441,-0.0927,0.7551,0.0037,-0.0047,-0.0022,-0.0073,0.0023,-0.0151,9.6743,-0.0167,1.5493,0.0000,-0.0001,-0.0000,1.0000,0.2419,-0.0004,0.0387
451365,Right,2,-0.0131,0.0089,0.5580,0.8297,-0.0096,0.0045,0.0329,-0.0416,0.1235,-0.0092,-0.1886,-0.0297,9.8025,-0.0001,0.0001,0.0004,1.0000,-0.0047,-0.0007,0.2451
451366,Left,2,0.0824,0.1166,-0.6100,0.7794,0.0115,0.0066,0.0018,-0.0529,-0.0767,-0.0938,-2.6842,-0.2033,9.3391,0.0001,0.0001,0.0000,1.0000,-0.0671,-0.0051,0.2335
451366,Pelvis,2,-0.0803,-0.6441,-0.0927,0.7550,0.0025,-0.0054,-0.0015,0.0135,0.0073,-0.0232,9.6693,-0.0067,1.5291,0.0000,-0.0001,-0.0000,1.0000,0.2417,-0.0002,0.0382
451366,Right,2,-0.0129,0.0090,0.5584,0.8295,-0.0102,0.0055,0.0351,-0.0348,0.1176,-0.0399,-0.1891,-0.0345,9.7717,-0.0001,0.0001,0.0004,1.0000,-0.0047,-0.0008,0.2443
451367,Left,2,0.0824,0.1167,-0.6101,0.7794,0.0103,0.0058,0.0019,-0.0559,-0.0980,-0.0951,-2.6654,-0.2125,9.3432,0.0001,0.0001,0.0000,1.0000,-0.0666,-0.0053,0.2336
451367,Pelvis,2,-0.0802,-0.6441,-0.0927,0.7550,0.0031,-0.0048,-0.0016,-0.0211,-0.0022,0.0020,9.6893,-0.0243,1.5637,0.0000,-0.0001,-0.0000,1.0000,0.2422,-0.0006,0.0391
451367,Right,2,-0.0129,0.0090,0.5587,0.8292,-0.0098,0.0048,0.0352,-0.0350,0.1297,-0.0437,-0.1793,-0.0293,9.7682,-0.0001,0.0001,0.0004,1.0000,-0.0045,-0.0007,0.2442
451368,Left,2,0.0825,0.1165,-0.6102,0.7793,0.0115,0.0066,0.0018,-0.0477,-0.0940,-0.0727,-2.6716,-0.2018,9.3648,0.0001,0.0001,0.0000,1.0000,-0.0668,-0.0051,0.2341
451368,Pelvis,2,-0.0802,-0.6441,-0.0927,0.7550,0.0038,-0.0059,-0.0010,0.0055,0.0123,0.0020,9.6929,-0.0037,1.5414,0.0000,-0.0001,-0.0000,1.0000,0.2423,-0.0001,0.0386
451368,Right,2,-0.0128,0.0091,0.5590,0.8290,-0.0118,0.0045,0.0339,-0.0338,0.1281,-0.0347,-0.1802,-0.0280,9.7772,-0.0001,0.0001,0.0004,1.0000,-0.0045,-0.0007,0.2444
451369,Left,2,0.0824,0.1167,-0.6102,0.7793,0.0114,0.0050,0.0027,-0.0538,-0.0801,-0.0940,-2.6817,-0.2071,9.3396,0.0001,0.0001,0.0000,1.0000,-0.0670,-0.0052,0.2335
451369,Pelvis,2,-0.0802,-0.6441,-0.0927,0.7550,0.0021,-0.0032,-0.0011,-0.0190,-0.0019,0.0020,9.6897,-0.0235,1.5613,0.0000,-0.0000,-0.0000,1.0000,0.2422,-0.0006,0.0390
451369,Right,2,-0.0129,0.0091,0.5594,0.8287,-0.0092,0.0045,0.0345,-0.0198,0.1095,-0.0359,-0.1941,-0.0505,9.7754,-0.0001,0.0001,0.0004,1.0000,-0.0048,-0.0012,0.2444
451370,Left,2,0.0825,0.1167,-0.6103,0.7792,0.0112,0.0068,0.0033,-0.0461,-0.0852,-0.0833,-2.6787,-0.2002,9.3517,0.0001,0.0001,0.0000,1.0000,-0.0669,-0.0050,0.2338
451370,Pelvis,2,-0.0802,-0.6441,-0.0927,0.7550,0.0035,-0.0053,-0.0028,-0.0070,0.0055,-0.0025,9.6868,-0.0133,1.5508,0.0000,-0.0001,-0.0000,1.0000,0.2422,-0.0003,0.0388
451370,Right,2,-0.0129,0.0091,0.5598,0.8285,-0.0100,0.0030,0.0361,-0.0320,0.1151,-0.0219,-0.1932,-0.0362,9.7896,-0.0001,0.0000,0.0005,1.0000,-0.0048,-0.0009,0.2447
451371,Left,2,0.0824,0.1169,-0.6104,0.7791,0.0111,0.0058,0.0024,-0.0503,-0.0726,-0.0877,-2.6925,-0.2054,9.3430,0.0001,0.0001,0.0000,1.0000,-0.0673,-0.0052,0.2336
451371,Pelvis,2,-0.0802,-0.6442,-0.0927,0.7550,0.0049,-0.0053,-0.0017,0.0028,0.0034,-0.0061,9.6849,-0.0127,1.5400,0.0001,-0.0001,-0.0000,1.0000,0.2421,-0.0003,0.0385
451371,Right,2,-0.0128,0.0092,0.5601,0.8283,-0.0097,0.0052,0.0345,-0.0188,0.1300,-0.0217,-0.1749,-0.0413,9.7902,-0.0001,0.0001,0.0004,1.0000,-0.0044,-0.0010,0.2448
451372,Left,2,0.0823,0.1169,-0.6104,0.7791,0.0100,0.0060,0.0008,-0.0485,-0.0683,-0.1045,-2.6904,-0.2030,9.3261,0.0001,0.0001,0.0000,1.0000,-0.0672,-0.0051,0.2332
451372,Pelvis,2,-0.0802,-0.6441,-0.0927,0.7550,0.0027,-0.0026,-0.0012,-0.0049,0.0059,-0.0025,9.6872,-0.0121,1.5486,0.0000,-0.0000,-0.0000,1.0000,0.2422,-0.0003,0.0387
451372,Right,2,-0.0128,0.0092,0.5605,0.8280,-0.0098,0.0045,0.0340,-0.0260,0.1213,-0.0346,-0.1846,-0.0370,9.7771,-0.0001,0.0001,0.0004,1.0000,-0.0046,-0.0009,0.2444
451373,Left,2,0.0823,0.1170,-0.6105,0.7790,0.0100,0.0049,0.0024,-0.0565,-0.0851,-0.0996,-2.6793,-0.2164,9.3343,0.0001,0.0001,0.0000,1.0000,-0.0670,-0.0054,0.2334
451373,Pelvis,2,-0.0803,-0.6441,-0.0927,0.7550,0.0038,-0.0048,-0.0011,-0.0038,0.0061,-0.0025,9.6873,-0.0117,1.5477,0.0000,-0.0001,-0.0000,1.0000,0.2422,-0.0003,0.0387
451373,Right,2,-0.0128,0.0093,0.5608,0.8278,-0.0097,0.0057,0.0338,-0.0230,0.1108,-0.0218,-0.1967,-0.0429,9.7895,-0.0001,0.0001,0.0004,1.0000,-0.0049,-0.0010,0.2447
451374,Left,2,0.0821,0.1170,-0.6106,0.7789,0.0117,0.0071,0.0026,-0.0557,-0.0756,-0.0933,-2.6886,-0.2177,9.3381,0.0001,0.0001,0.0000,1.0000,-0.0672,-0.0055,0.2335
451374,Pelvis,2,-0.0802,-0.6441,-0.0927,0.7550,0.0031,-0.0031,-0.0023,0.0127,-0.0079,-0.0088,9.6841,-0.0211,1.5276,0.0000,-0.0000,-0.0000,1.0000,0.2421,-0.0005,0.0382
451374,Right,2,-0.0128,0.0093,0.5612,0.8275,-0.0103,0.0041,0.0342,-0.0281,0.1231,-0.0167,-0.1866,-0.0340,9.7950,-0.0001,0.0001,0.0004,1.0000,-0.0047,-0.0008,0.2449
451375,Pelvis,2,-0.0803,-0.6441,-0.0928,0.7550,0.0032,-0.0042,-0.0011,0.0000,-0.0030,0.0074,9.6980,-0.0194,1.5436,0.0000,-0.0001,-0.0000,1.0000,0.2424,-0.0005,0.0386
451375,Right,2,-0.0130,0.0093,0.5616,0.8273,-0.0099,0.0046,0.0351,-0.0291,0.1244,-0.0385,-0.1867,-0.0350,9.7732,-0.0001,0.0001,0.0004,1.0000,-0.0047,-0.0008,0.2443
451376,Left,2,0.0821,0.1170,-0.6107,0.7788,0.0114,0.0056,0.0019,-0.0462,-0.0738,-0.0852,-2.6892,-0.2074,9.3465,0.0003,0.0001,0.0000,1.0000,-0.1344,-0.0105,0.4673
451376,Pelvis,2,-0.0803,-0.6441,-0.0927,0.7550,0.0033,-0.0048,-0.0004,-0.0151,-0.0006,-0.0070,9.6813,-0.0208,1.5563,0.0000,-0.0001,-0.0000,1.0000,0.2420,-0.0005,0.0389
451376,Right,2,-0.0130,0.0093,0.5619,0.8271,-0.0109,0.0043,0.0348,-0.0267,0.1226,-0.0385,-0.1878,-0.0374,9.7731,-0.0001,0.0001,0.0004,1.0000,-0.0047,-0.0009,0.2443
451377,Left,2,0.0821,0.1170,-0.6107,0.7789,0.0109,0.0047,0.0035,-0.0321,-0.0875,-0.0782,-2.6760,-0.1971,9.3579,0.0001,0.0001,0.0000,1.0000,-0.0669,-0.0050,0.2340
451377,Pelvis,2,-0.0803,-0.6441,-0.0927,0.7550,0.0021,-0.0049,-0.0003,0.0056,0.0044,-0.0151,9.6764,-0.0111,1.5362,0.0000,-0.0001,-0.0000,1.0000,0.2419,-0.0003,0.0384
451377,Right,2,-0.0131,0.0094,0.5623,0.8268,-0.0099,0.0046,0.0351,-0.0195,0.1318,-0.0384,-0.1793,-0.0412,9.7735,-0.0001,0.0001,0.0004,1.0000,-0.0045,-0.0010,0.2443
451378,Pelvis,2,-0.0802,-0.6441,-0.0927,0.7550,0.0038,-0.0042,-0.0017,0.0171,-0.0072,-0.0088,9.6848,-0.0197,1.5233,0.0000,-0.0001,-0.0000,1.0000,0.2421,-0.0005,0.0381
451378,Right,2,-0.0132,0.0095,0.5626,0.8265,-0.0105,0.0042,0.0353,-0.0264,0.1254,-0.0295,-0.1898,-0.0383,9.7821,-0.0001,0.0001,0.0004,1.0000,-0.0047,-0.0009,0.2446
451379,Left,2,0.0823,0.1169,-0.6107,0.7788,0.0109,0.0062,0.0019,-0.0499,-0.0715,-0.0906,-2.6919,-0.2072,9.3401,0.0003,0.0002,0.0000,1.0000,-0.1345,-0.0105,0.4670
451379,Pelvis,2,-0.0802,-0.6442,-0.0927,0.7550,0.0025,-0.0054,-0.0015,-0.0098,0.0094,-0.0079,9.6810,-0.0101,1.5530,0.0000,-0.0001,-0.0000,1.0000,0.2420,-0.0003,0.0388
451379,Right,2,-0.0133,0.0094,0.5630,0.8263,-0.0108,0.0066,0.0343,-0.0260,0.1247,-0.0295,-0.1911,-0.0407,9.7820,-0.0001,0.0001,0.0004,1.0000,-0.0048,-0.0010,0.2446
451380,Left,2,0.0823,0.1169,-0.6107,0.7788,0.0099,0.0061,0.0028,-0.0432,-0.0870,-0.0721,-2.6813,-0.2050,9.3625,0.0001,0.0001,0.0000,1.0000,-0.0670,-0.0052,0.2341
451380,Pelvis,2,-0.0802,-0.6442,-0.0927,0.7550,0.0041,-0.0037,-0.0000,-0.0071,0.0001,0.0020,9.6916,-0.0186,1.5497,0.0001,-0.0000,-0.0000,1.0000,0.2423,-0.0005,0.0388
451380,Right,2,-0.0133,0.0096,0.5634,0.8260,-0.0110,0.0035,0.0343,-0.0320,0.1422,-0.0373,-0.1797,-0.0269,9.7748,-0.0001,0.0000,0.0004,1.0000,-0.0045,-0.0006,0.2444
451381,Left,2,0.0823,0.1170,-0.6108,0.7787,0.0127,0.0064,0.0034,-0.0466,-0.0863,-0.0944,-2.6780,-0.2103,9.3402,0.0002,0.0001,0.0000,1.0000,-0.0669,-0.0053,0.2335
451381,Pelvis,2,-0.0802,-0.6442,-0.0927,0.7550,0.0035,-0.0047,-0.0034,-0.0047,-0.0021,-0.0197,9.6706,-0.0199,1.5434,0.0000,-0.0001,-0.0000,1.0000,0.2418,-0.0005,0.0386
451381,Right,2,-0.0134,0.0097,0.5638,0.8258,-0.0088,0.0041,0.0338,-0.0255,0.1402,-0.0244,-0.1819,-0.0343,9.7876,-0.0001,0.0001,0.0004,1.0000,-0.0045,-0.0008,0.2447
451382,Left,2,0.0823,0.1170,-0.6108,0.7787,0.0104,0.0051,0.0017,-0.0366,-0.0842,-0.0721,-2.6841,-0.1993,9.3618,0.0001,0.0001,0.0000,1.0000,-0.0671,-0.0050,0.2340
451382,Pelvis,2,-0.0802,-0.6442,-0.0927,0.7550,0.0021,-0.0032,-0.0011,0.0097,0.0077,0.0065,9.6983,-0.0069,1.5361,0.0000,-0.0000,-0.0000,1.0000,0.2425,-0.0002,0.0384
451382,Right,2,-0.0134,0.0097,0.5641,0.8256,-0.0099,0.0052,0.0355,-0.0216,0.1371,-0.0333,-0.1834,-0.0402,9.7785,-0.0001,0.0001,0.0004,1.0000,-0.0046,-0.0010,0.2445
451383,Left,2,0.0822,0.1169,-0.6110,0.7786,0.0113,0.0056,0.0029,-0.0546,-0.0679,-0.0987,-2.6930,-0.2129,9.3312,0.0001,0.0001,0.0000,1.0000,-0.0673,-0.0054,0.2333
451383,Pelvis,2,-0.0802,-0.6442,-0.0927,0.7550,0.0031,-0.0048,-0.0016,0.0049,-0.0017,-0.0016,9.6899,-0.0171,1.5372,0.0000,-0.0001,-0.0000,1.0000,0.2422,-0.0004,0.0384
451383,Right,2,-0.0134,0.0098,0.5644,0.8253,-0.0099,0.0050,0.0344,-0.0221,0.1389,-0.0462,-0.1834,-0.0374,9.7657,-0.0001,0.0001,0.0004,1.0000,-0.0046,-0.0009,0.2441
451384,Left,2,0.0822,0.1169,-0.6110,0.7786,0.0097,0.0062,0.0022,-0.0464,-0.0725,-0.0880,-2.6900,-0.2061,9.3433,0.0001,0.0001,0.0000,1.0000,-0.0672,-0.0052,0.2336
451384,Pelvis,2,-0.0802,-0.6442,-0.0927,0.7550,0.0020,-0.0043,-0.0009,0.0148,-0.0038,-0.0052,9.6879,-0.0168,1.5266,0.0000,-0.0001,-0.0000,1.0000,0.2422,-0.0004,0.0382
451384,Right,2,-0.0133,0.0098,0.5648,0.8251,-0.0109,0.0047,0.0340,-0.0356,0.1452,-0.0232,-0.1823,-0.0196,9.7889,-0.0001,0.0001,0.0004,1.0000,-0.0045,-0.0005,0.2447
451385,Left,2,0.0822,0.1170,-0.6110,0.7786,0.0107,0.0066,0.0014,-0.0430,-0.0716,-0.0880,-2.6915,-0.2036,9.3429,0.0001,0.0001,0.0000,1.0000,-0.0673,-0.0051,0.2336
451385,Pelvis,2,-0.0802,-0.6442,-0.0927,0.7550,0.0034,-0.0037,-0.0005,0.0196,-0.0036,0.0038,9.6976,-0.0156,1.5235,0.0000,-0.0000,-0.0000,1.0000,0.2424,-0.0004,0.0381
451385,Right,2,-0.0134,0.0099,0.5651,0.8248,-0.0104,0.0058,0.0343,-0.0074,0.1415,-0.0332,-0.1776,-0.0488,9.7788,-0.0001,0.0001,0.0004,1.0000,-0.0044,-0.0012,0.2445
451386,Left,2,0.0823,0.1170,-0.6110,0.7786,0.0122,0.0072,0.0024,-0.0385,-0.0833,-0.0890,-2.6796,-0.2007,9.3455,0.0002,0.0001,0.0000,1.0000,-0.0670,-0.0051,0.2336
451386,Pelvis,2,-0.0802,-0.6442,-0.0927,0.7550,0.0023,-0.0053,-0.0026,-0.0131,0.0035,-0.0034,9.6852,-0.0166,1.5553,0.0000,-0.0001,-0.0000,1.0000,0.2421,-0.0004,0.0389
451386,Right,2,-0.0135,0.0099,0.5655,0.8246,-0.0104,0.0051,0.0338,-0.0204,0.1495,-0.0192,-0.1768,-0.0348,9.7930,-0.0001,0.0001,0.0004,1.0000,-0.0044,-0.0008,0.2448
451387,Left,2,0.0824,0.1168,-0.6110,0.7786,0.0120,0.0051,0.0026,-0.0516,-0.0790,-0.0713,-2.6914,-0.2095,9.3603,0.0001,0.0001,0.0000,1.0000,-0.0673,-0.0053,0.2340
451387,Pelvis,2,-0.0802,-0.6442,-0.0927,0.7550,0.0038,-0.0042,-0.0017,0.0026,0.0108,0.0011,9.6918,-0.0054,1.5425,0.0000,-0.0001,-0.0000,1.0000,0.2423,-0.0001,0.0386
451387,Right,2,-0.0135,0.0097,0.5658,0.8244,-0.0100,0.0038,0.0346,-0.0300,0.1283,-0.0501,-0.1965,-0.0365,9.7615,-0.0001,0.0000,0.0004,1.0000,-0.0049,-0.0009,0.2440
451388,Left,2,0.0822,0.1169,-0.6111,0.7785,0.0095,0.0064,0.0017,-0.0445,-0.0665,-0.0765,-2.6983,-0.2030,9.3530,0.0001,0.0001,0.0000,1.0000,-0.0674,-0.0051,0.2338
451388,Pelvis,2,-0.0802,-0.6442,-0.0927,0.7550,0.0027,-0.0037,-0.0011,0.0016,0.0015,0.0020,9.6929,-0.0147,1.5415,0.0000,-0.0000,-0.0000,1.0000,0.2423,-0.0004,0.0385
451388,Right,2,-0.0137,0.0098,0.5662,0.8241,-0.0109,0.0058,0.0337,-0.0278,0.1390,-0.0410,-0.1878,-0.0366,9.7708,-0.0001,0.0001,0.0004,1.0000,-0.0047,-0.0009,0.2443
451389,Pelvis,2,-0.0802,-0.6442,-0.0927,0.7550,0.0015,-0.0038,-0.0009,-0.0114,0.0135,-0.0133,9.6753,-0.0063,1.5545,0.0000,-0.0000,-0.0000,1.0000,0.2419,-0.0002,0.0389
451389,Right,2,-0.0138,0.0099,0.5666,0.8238,-0.0109,0.0044,0.0328,-0.0268,0.1525,-0.0231,-0.1788,-0.0332,9.7892,-0.0001,0.0001,0.0004,1.0000,-0.0045,-0.0008,0.2447
451390,Left,2,0.0822,0.1170,-0.6113,0.7784,0.0110,0.0056,0.0017,-0.0409,-0.0770,-0.0970,-2.6827,-0.2033,9.3361,0.0003,0.0001,0.0000,1.0000,-0.1341,-0.0103,0.4668
451390,Pelvis,2,-0.0802,-0.6442,-0.0927,0.7550,0.0042,-0.0047,-0.0029,-0.0234,-0.0030,-0.0079,9.6794,-0.0251,1.5628,0.0001,-0.0001,-0.0000,1.0000,0.2420,-0.0006,0.0391
451390,Right,2,-0.0138,0.0101,0.5669,0.8236,-0.0100,0.0043,0.0338,-0.0243,0.1441,-0.0539,-0.1888,-0.0364,9.7580,-0.0001,0.0001,0.0004,1.0000,-0.0047,-0.0009,0.2440
451391,Pelvis,2,-0.0802,-0.6442,-0.0927,0.7550,0.0032,-0.0042,-0.0011,-0.0093,0.0138,-0.0133,9.6756,-0.0051,1.5524,0.0000,-0.0001,-0.0000,1.0000,0.2419,-0.0001,0.0388
451391,Right,2,-0.0137,0.0102,0.5672,0.8234,-0.0104,0.0050,0.0338,-0.0181,0.1501,-0.0448,-0.1801,-0.0366,9.7673,-0.0001,0.0001,0.0004,1.0000,-0.0045,-0.0009,0.2442
451392,Left,2,0.0823,0.1169,-0.6113,0.7784,0.0115,0.0063,0.0017,-0.0463,-0.0762,-0.0940,-2.6861,-0.2058,9.3383,0.0003,0.0002,0.0000,1.0000,-0.1342,-0.0104,0.4669
451392,Pelvis,2,-0.0802,-0.6442,-0.0927,0.7550,0.0020,-0.0037,-0.0016,-0.0191,0.0069,-0.0088,9.6788,-0.0143,1.5609,0.0000,-0.0000,-0.0000,1.0000,0.2420,-0.0004,0.0390
451392,Right,2,-0.0136,0.0101,0.5676,0.8232,-0.0100,0.0042,0.0338,-0.0233,0.1497,-0.0268,-0.1807,-0.0314,9.7853,-0.0001,0.0001,0.0004,1.0000,-0.0045,-0.0008,0.2446
451393,Left,2,0.0822,0.1170,-0.6113,0.7784,0.0111,0.0064,0.0025,-0.0433,-0.0729,-0.0882,-2.6895,-0.2055,9.3433,0.0001,0.0001,0.0000,1.0000,-0.0672,-0.0052,0.2336
451393,Pelvis,2,-0.0802,-0.6442,-0.0927,0.7550,0.0033,-0.0031,-0.0012,0.0141,0.0095,-0.0116,9.6811,-0.0036,1.5294,0.0000,-0.0000,-0.0000,1.0000,0.2420,-0.0001,0.0382
451393,Right,2,-0.0135,0.0102,0.5679,0.8229,-0.0106,0.0039,0.0351,-0.0211,0.1385,-0.0358,-0.1916,-0.0359,9.7759,-0.0001,0.0000,0.0004,1.0000,-0.0048,-0.0009,0.2444
451394,Left,2,0.0821,0.1169,-0.6114,0.7783,0.0112,0.0057,0.0003,-0.0320,-0.0882,-0.0954,-2.6695,-0.1988,9.3418,0.0001,0.0001,0.0000,1.0000,-0.0667,-0.0050,0.2335
451394,Pelvis,2,-0.0802,-0.6442,-0.0927,0.7550,0.0024,-0.0042,-0.0027,-0.0242,0.0001,0.0047,9.6917,-0.0220,1.5664,0.0000,-0.0001,-0.0000,1.0000,0.2423,-0.0006,0.0392
451394,Right,2,-0.0135,0.0101,0.5683,0.8227,-0.0102,0.0025,0.0347,-0.0224,0.1593,-0.0524,-0.1702,-0.0275,9.7601,-0.0001,0.0000,0.0004,1.0000,-0.0042,-0.0007,0.2440
451395,Left,2,0.0822,0.1170,-0.6115,0.7782,0.0103,0.0063,0.0021,-0.0201,-0.0775,-0.0952,-2.6776,-0.1843,9.3398,0.0001,0.0001,0.0000,1.0000,-0.0669,-0.0046,0.2335
451395,Pelvis,2,-0.0802,-0.6442,-0.0927,0.7550,0.0039,-0.0042,-0.0005,0.0075,0.0122,-0.0079,9.6835,-0.0024,1.5370,0.0000,-0.0001,-0.0000,1.0000,0.2421,-0.0001,0.0384
451395,Right,2,-0.0135,0.0102,0.5686,0.8224,-0.0100,0.0062,0.0351,-0.0230,0.1490,-0.0306,-0.1820,-0.0296,9.7815,-0.0001,0.0001,0.0004,1.0000,-0.0045,-0.0007,0.2445
451396,Left,2,0.0821,0.1170,-0.6115,0.7782,0.0107,0.0055,0.0031,-0.0425,-0.0674,-0.0935,-2.6925,-0.2057,9.3369,0.0001,0.0001,0.0000,1.0000,-0.0673,-0.0052,0.2334
451396,Pelvis,2,-0.0802,-0.6442,-0.0927,0.7550,0.0024,-0.0059,-0.0020,-0.0132,-0.0019,0.0011,9.6899,-0.0212,1.5547,0.0000,-0.0001,-0.0000,1.0000,0.2422,-0.0005,0.0389
451396,Right,2,-0.0134,0.0101,0.5689,0.8222,-0.0102,0.0031,0.0352,-0.0179,0.1434,-0.0395,-0.1834,-0.0357,9.7725,-0.0001,0.0000,0.0004,1.0000,-0.0046,-0.0009,0.2443
451397,Left,2,0.0820,0.1168,-0.6116,0.7782,0.0108,0.0054,0.0010,-0.0632,-0.0895,-0.0716,-2.6783,-0.2305,9.3634,0.0001,0.0001,0.0000,1.0000,-0.0669,-0.0058,0.2341
451397,Pelvis,2,-0.0802,-0.6442,-0.0927,0.7550,0.0028,-0.0038,0.0001,-0.0050,0.0054,-0.0124,9.6775,-0.0122,1.5462,0.0000,-0.0000,0.0000,1.0000,0.2419,-0.0003,0.0387
451397,Right,2,-0.0135,0.0101,0.5693,0.8220,-0.0110,0.0057,0.0337,-0.0041,0.1463,-0.0355,-0.1766,-0.0486,9.7765,-0.0001,0.0001,0.0004,1.0000,-0.0044,-0.0012,0.2444
451398,Left,2,0.0821,0.1168,-0.6116,0.7782,0.0124,0.0077,0.0032,-0.0409,-0.0604,-0.0934,-2.6953,-0.2002,9.3362,0.0002,0.0001,0.0000,1.0000,-0.0674,-0.0050,0.2334
451398,Pelvis,2,-0.0802,-0.6442,-0.0927,0.7550,0.0029,-0.0042,-0.0034,-0.0185,-0.0015,-0.0169,9.6713,-0.0222,1.5569,0.0000,-0.0001,-0.0000,1.0000,0.2418,-0.0006,0.0389
451398,Right,2,-0.0136,0.0103,0.5697,0.8217,-0.0101,0.0050,0.0354,-0.0176,0.1462,-0.0306,-0.1856,-0.0368,9.7814,-0.0001,0.0001,0.0004,1.0000,-0.0046,-0.0009,0.2445
451399,Left,2,0.0821,0.1169,-0.6117,0.7781,0.0117,0.0059,0.0022,-0.0469,-0.0688,-0.0936,-2.6902,-0.2091,9.3374,0.0001,0.0001,0.0000,1.0000,-0.0672,-0.0053,0.2334
451399,Pelvis,2,-0.0802,-0.6442,-0.0927,0.7550,0.0020,-0.0043,-0.0009,0.0047,0.0058,0.0056,9.6968,-0.0092,1.5399,0.0000,-0.0001,-0.0000,1.0000,0.2424,-0.0002,0.0385
451399,Right,2,-0.0136,0.0104,0.5700,0.8214,-0.0106,0.0044,0.0344,-0.0076,0.1521,-0.0087,-0.1782,-0.0422,9.8035,-0.0001,0.0001,0.0004,1.0000,-0.0044,-0.0010,0.2451
451400,Pelvis,2,-0.0802,-0.6442,-0.0927,0.7550,0.0031,-0.0042,-0.0022,0.0087,-0.0059,-0.0061,9.6862,-0.0195,1.5315,0.0000,-0.0001,-0.0000,1.0000,0.2422,-0.0005,0.0383
451400,Right,2,-0.0138,0.0104,0.5704,0.8212,-0.0090,0.0058,0.0350,-0.0252,0.1637,-0.0382,-0.1751,-0.0253,9.7743,-0.0001,0.0001,0.0004,1.0000,-0.0044,-0.0006,0.2444
451401,Pelvis,2,-0.0802,-0.6442,-0.0927,0.7550,0.0033,-0.0048,-0.0004,0.0016,0.0156,-0.0133,9.6772,-0.0004,1.5422,0.0000,-0.0001,-0.0000,1.0000,0.2419,-0.0000,0.0386
451401,Right,2,-0.0138,0.0103,0.5707,0.8210,-0.0105,0.0055,0.0341,-0.0051,0.1492,-0.0394,-0.1802,-0.0490,9.7727,-0.0001,0.0001,0.0004,1.0000,-0.0045,-0.0012,0.2443
451402,Left,2,0.0822,0.1167,-0.6118,0.7780,0.0115,0.0054,0.0021,-0.0411,-0.0737,-0.0868,-2.6854,-0.2006,9.3461,0.0004,0.0002,0.0001,1.0000,-0.2013,-0.0154,0.7010
451402,Pelvis,2,-0.0802,-0.6442,-0.0927,0.7550,0.0041,-0.0037,-0.0000,0.0037,-0.0126,0.0074,9.6991,-0.0275,1.5366,0.0001,-0.0000,-0.0000,1.0000,0.2425,-0.0007,0.0384
451402,Right,2,-0.0138,0.0103,0.5710,0.8208,-0.0101,0.0048,0.0342,-0.0204,0.1569,-0.0471,-0.1781,-0.0336,9.7652,-0.0001,0.0001,0.0004,1.0000,-0.0044,-0.0008,0.2441
451403,Pelvis,2,-0.0802,-0.6442,-0.0927,0.7550,0.0025,-0.0054,-0.0014,-0.0077,-0.0101,0.0020,9.6920,-0.0280,1.5472,0.0000,-0.0001,-0.0000,1.0000,0.2423,-0.0007,0.0387
451403,Right,2,-0.0137,0.0102,0.5713,0.8205,-0.0080,0.0041,0.0339,-0.0261,0.1568,-0.0291,-0.1786,-0.0282,9.7832,-0.0001,0.0001,0.0004,1.0000,-0.0045,-0.0007,0.2446
451404,Left,2,0.0821,0.1167,-0.6119,0.7779,0.0107,0.0063,0.0013,-0.0415,-0.0702,-0.0856,-2.6878,-0.2024,9.3465,0.0003,0.0002,0.0000,1.0000,-0.1343,-0.0102,0.4673
451404,Pelvis,2,-0.0802,-0.6442,-0.0927,0.7550,0.0025,-0.0037,-0.0022,0.0130,-0.0051,-0.0061,9.6869,-0.0180,1.5272,0.0000,-0.0000,-0.0000,1.0000,0.2422,-0.0005,0.0382
451404,Right,2,-0.0138,0.0102,0.5717,0.8203,-0.0111,0.0057,0.0347,-0.0168,0.1620,-0.0380,-0.1705,-0.0358,9.7745,-0.0001,0.0001,0.0004,1.0000,-0.0042,-0.0009,0.2444
451405,Left,2,0.0821,0.1166,-0.6119,0.7780,0.0107,0.0066,0.0014,-0.0650,-0.0737,-0.0990,-2.6837,-0.2246,9.3334,0.0001,0.0001,0.0000,1.0000,-0.0671,-0.0056,0.2333
451405,Pelvis,2,-0.0802,-0.6442,-0.0927,0.7550,0.0035,-0.0047,-0.0034,0.0016,-0.0026,-0.0115,9.6798,-0.0180,1.5378,0.0000,-0.0001,-0.0000,1.0000,0.2420,-0.0005,0.0385
451405,Right,2,-0.0139,0.0101,0.5720,0.8201,-0.0111,0.0056,0.0336,-0.0183,0.1484,-0.0252,-0.1829,-0.0419,9.7868,-0.0001,0.0001,0.0004,1.0000,-0.0046,-0.0010,0.2447
451406,Left,2,0.0822,0.1166,-0.6119,0.7780,0.0124,0.0054,0.0019,-0.0389,-0.0673,-0.0998,-2.6851,-0.1979,9.3326,0.0002,0.0001,0.0000,1.0000,-0.0671,-0.0050,0.2333
451406,Pelvis,2,-0.0802,-0.6442,-0.0927,0.7550,0.0016,-0.0032,-0.0004,-0.0111,0.0023,0.0048,9.6937,-0.0163,1.5538,0.0000,-0.0000,-0.0000,1.0000,0.2423,-0.0004,0.0389
451406,Right,2,-0.0138,0.0102,0.5724,0.8198,-0.0091,0.0051,0.0345,-0.0278,0.1438,-0.0509,-0.1910,-0.0321,9.7610,-0.0001,0.0001,0.0004,1.0000,-0.0048,-0.0008,0.2440
451407,Left,2,0.0821,0.1166,-0.6120,0.7779,0.0103,0.0063,0.0021,-0.0516,-0.0690,-0.0936,-2.6877,-0.2110,9.3381,0.0001,0.0001,0.0000,1.0000,-0.0672,-0.0053,0.2335
451407,Pelvis,2,-0.0802,-0.6442,-0.0927,0.7550,0.0025,-0.0042,-0.0016,0.0016,-0.0117,-0.0106,9.6810,-0.0269,1.5359,0.0000,-0.0001,-0.0000,1.0000,0.2420,-0.0007,0.0384
451407,Right,2,-0.0139,0.0101,0.5726,0.8196,-0.0112,0.0043,0.0338,-0.0173,0.1573,-0.0289,-0.1741,-0.0393,9.7834,-0.0001,0.0001,0.0004,1.0000,-0.0043,-0.0010,0.2446
451408,Left,2,0.0821,0.1167,-0.6121,0.7778,0.0110,0.0053,0.0016,-0.0331,-0.0709,-0.0944,-2.6823,-0.1964,9.3390,0.0001,0.0001,0.0000,1.0000,-0.0670,-0.0049,0.2335
451408,Pelvis,2,-0.0802,-0.6442,-0.0927,0.7550,0.0034,-0.0043,0.0001,-0.0127,0.0026,-0.0042,9.6846,-0.0166,1.5540,0.0000,-0.0001,0.0000,1.0000,0.2421,-0.0004,0.0389
451408,Right,2,-0.0139,0.0100,0.5730,0.8194,-0.0112,0.0043,0.0338,-0.0291,0.1509,-0.0328,-0.1831,-0.0313,9.7793,-0.0001,0.0001,0.0004,1.0000,-0.0046,-0.0008,0.2445
451409,Pelvis,2,-0.0802,-0.6442,-0.0927,0.7550,0.0031,-0.0048,-0.0016,0.0009,0.0005,0.0011,9.6920,-0.0155,1.5412,0.0000,-0.0001,-0.0000,1.0000,0.2423,-0.0004,0.0385
451409,Right,2,-0.0138,0.0098,0.5733,0.8192,-0.0096,0.0058,0.0344,-0.0257,0.1553,-0.0544,-0.1736,-0.0340,9.7579,-0.0001,0.0001,0.0004,1.0000,-0.0043,-0.0008,0.2439
451410,Pelvis,2,-0.0802,-0.6442,-0.0927,0.7550,0.0041,-0.0037,-0.0000,-0.0143,0.0030,-0.0133,9.6754,-0.0169,1.5540,0.0001,-0.0000,-0.0000,1.0000,0.2419,-0.0004,0.0389
451410,Right,2,-0.0139,0.0099,0.5736,0.8189,-0.0107,0.0056,0.0352,-0.0244,0.1444,-0.0417,-0.1861,-0.0397,9.7702,-0.0001,0.0001,0.0004,1.0000,-0.0046,-0.0010,0.2443
451411,Left,2,0.0823,0.1168,-0.6122,0.7777,0.0112,0.0061,0.0020,-0.0504,-0.0803,-0.0922,-2.6810,-0.2121,9.3415,0.0004,0.0002,0.0001,1.0000,-0.2009,-0.0162,0.7007
451411,Pelvis,2,-0.0802,-0.6442,-0.0927,0.7550,0.0011,-0.0043,-0.0026,-0.0044,0.0008,-0.0169,9.6734,-0.0166,1.5436,0.0000,-0.0001,-0.0000,1.0000,0.2418,-0.0004,0.0386
451411,Right,2,-0.0140,0.0099,0.5740,0.8187,-0.0093,0.0031,0.0342,-0.0219,0.1537,-0.0326,-0.1772,-0.0401,9.7796,-0.0001,0.0000,0.0004,1.0000,-0.0044,-0.0010,0.2445
451412,Left,2,0.0822,0.1168,-0.6123,0.7776,0.0099,0.0060,0.0008,-0.0433,-0.0845,-0.0945,-2.6744,-0.2095,9.3410,0.0001,0.0001,0.0000,1.0000,-0.0668,-0.0053,0.2335
451412,Pelvis,2,-0.0802,-0.6442,-0.0927,0.7550,0.0039,-0.0036,-0.0012,0.0004,0.0010,-0.0079,9.6830,-0.0151,1.5404,0.0000,-0.0000,-0.0000,1.0000,0.2421,-0.0004,0.0385
451412,Right,2,-0.0141,0.0098,0.5743,0.8185,-0.0112,0.0041,0.0326,-0.0310,0.1453,-0.0237,-0.1874,-0.0370,9.7882,-0.0001,0.0001,0.0004,1.0000,-0.0047,-0.0009,0.2447
451413,Pelvis,2,-0.0802,-0.6442,-0.0927,0.7550,0.0027,-0.0037,-0.0011,-0.0073,0.0036,-0.0042,9.6853,-0.0146,1.5491,0.0000,-0.0000,-0.0000,1.0000,0.2421,-0.0004,0.0387
451413,Right,2,-0.0141,0.0096,0.5746,0.8183,-0.0124,0.0047,0.0350,-0.0265,0.1515,-0.0236,-0.1790,-0.0414,9.7886,-0.0002,0.0001,0.0004,1.0000,-0.0045,-0.0010,0.2447
451414,Left,2,0.0823,0.1169,-0.6124,0.7775,0.0110,0.0058,0.0021,-0.0380,-0.0807,-0.0803,-2.6829,-0.2033,9.3535,0.0003,0.0001,0.0001,1.0000,-0.1341,-0.0103,0.4677
451414,Pelvis,2,-0.0802,-0.6442,-0.0927,0.7550,0.0043,-0.0041,-0.0023,-0.0230,-0.0129,-0.0078,9.6800,-0.0342,1.5597,0.0001,-0.0001,-0.0000,1.0000,0.2420,-0.0009,0.0390
451414,Right,2,-0.0143,0.0098,0.5750,0.8180,-0.0086,0.0067,0.0351,-0.0372,0.1606,-0.0403,-0.1771,-0.0298,9.7721,-0.0001,0.0001,0.0004,1.0000,-0.0044,-0.0007,0.2443
451415,Left,2,0.0823,0.1168,-0.6124,0.7776,0.0113,0.0056,0.0029,-0.0374,-0.0799,-0.0945,-2.6785,-0.2015,9.3400,0.0001,0.0001,0.0000,1.0000,-0.0669,-0.0051,0.2335
451415,Pelvis,2,-0.0802,-0.6442,-0.0927,0.7550,0.0020,-0.0037,-0.0016,-0.0160,-0.0032,0.0003,9.6887,-0.0230,1.5566,0.0000,-0.0000,-0.0000,1.0000,0.2422,-0.0006,0.0389
451415,Right,2,-0.0145,0.0098,0.5753,0.8178,-0.0112,0.0034,0.0322,-0.0333,0.1603,-0.0493,-0.1787,-0.0358,9.7631,-0.0001,0.0000,0.0004,1.0000,-0.0045,-0.0009,0.2441
451416,Pelvis,2,-0.0802,-0.6442,-0.0927,0.7550,0.0029,-0.0047,-0.0027,-0.0127,0.0065,-0.0006,9.6880,-0.0127,1.5557,0.0000,-0.0001,-0.0000,1.0000,0.2422,-0.0003,0.0389
451416,Right,2,-0.0145,0.0099,0.5757,0.8175,-0.0098,0.0045,0.0346,-0.0296,0.1586,-0.0275,-0.1809,-0.0397,9.7848,-0.0001,0.0001,0.0004,1.0000,-0.0045,-0.0010,0.2446
451417,Pelvis,2,-0.0802,-0.6442,-0.0927,0.7550,0.0020,-0.0043,-0.0009,-0.0029,0.0043,-0.0042,9.6860,-0.0123,1.5450,0.0000,-0.0001,-0.0000,1.0000,0.2421,-0.0003,0.0386
451417,Right,2,-0.0146,0.0099,0.5760,0.8173,-0.0113,0.0049,0.0342,-0.0448,0.1573,-0.0224,-0.1895,-0.0277,9.7898,-0.0001,0.0001,0.0004,1.0000,-0.0047,-0.0007,0.2447
451418,Left,2,0.0823,0.1169,-0.6126,0.7773,0.0115,0.0060,0.0016,-0.0545,-0.0711,-0.0873,-2.6937,-0.2157,9.3428,0.0004,0.0002,0.0001,1.0000,-0.2019,-0.0165,0.7007
451418,Pelvis,2,-0.0802,-0.6442,-0.0927,0.7550,0.0040,-0.0031,-0.0007,0.0048,-0.0073,-0.0070,9.6849,-0.0218,1.5346,0.0000,-0.0000,-0.0000,1.0000,0.2421,-0.0005,0.0384
451418,Right,2,-0.0147,0.0099,0.5764,0.8170,-0.0115,0.0025,0.0346,-0.0297,0.1721,-0.0312,-0.1716,-0.0377,9.7814,-0.0001,0.0000,0.0004,1.0000,-0.0043,-0.0009,0.2445
451419,Left,2,0.0823,0.1168,-0.6127,0.7773,0.0110,0.0069,0.0027,-0.0352,-0.0739,-0.0829,-2.6866,-0.1980,9.3498,0.0001,0.0001,0.0000,1.0000,-0.0671,-0.0050,0.2338
451419,Pelvis,2,-0.0802,-0.6442,-0.0927,0.7550,0.0024,-0.0042,-0.0027,-0.0094,0.0070,-0.0006,9.6884,-0.0113,1.5528,0.0000,-0.0001,-0.0000,1.0000,0.2422,-0.0003,0.0388
451419,Right,2,-0.0147,0.0100,0.5767,0.8167,-0.0083,0.0054,0.0358,-0.0350,0.1654,-0.0223,-0.1818,-0.0344,9.7901,-0.0001,0.0001,0.0004,1.0000,-0.0045,-0.0008,0.2448
451420,Left,2,0.0822,0.1168,-0.6128,0.7772,0.0099,0.0060,0.0008,-0.0430,-0.0584,-0.0872,-2.7004,-0.2036,9.3411,0.0001,0.0001,0.0000,1.0000,-0.0675,-0.0051,0.2335
451420,Pelvis,2,-0.0802,-0.6442,-0.0927,0.7550,0.0027,-0.0037,-0.0010,0.0004,0.0049,-0.0042,9.6864,-0.0109,1.5423,0.0000,-0.0000,-0.0000,1.0000,0.2422,-0.0003,0.0386
451420,Right,2,-0.0146,0.0099,0.5770,0.8165,-0.0113,0.0055,0.0346,-0.0456,0.1664,-0.0389,-0.1799,-0.0226,9.7737,-0.0001,0.0001,0.0004,1.0000,-0.0045,-0.0005,0.2443
451421,Left,2,0.0821,0.1167,-0.6129,0.7772,0.0103,0.0046,0.0036,-0.0536,-0.0711,-0.0988,-2.6858,-0.2172,9.3331,0.0001,0.0001,0.0000,1.0000,-0.0671,-0.0055,0.2333
451421,Pelvis,2,-0.0802,-0.6442,-0.0928,0.7550,0.0024,-0.0048,-0.0021,-0.0066,-0.0139,-0.0114,9.6790,-0.0308,1.5433,0.0000,-0.0001,-0.0000,1.0000,0.2420,-0.0008,0.0386
451421,Right,2,-0.0146,0.0101,0.5774,0.8163,-0.0103,0.0052,0.0345,-0.0324,0.1625,-0.0132,-0.1842,-0.0355,9.7991,-0.0001,0.0001,0.0004,1.0000,-0.0046,-0.0009,0.2450
451422,Left,2,0.0822,0.1167,-0.6129,0.7772,0.0117,0.0059,0.0022,-0.0430,-0.0686,-0.0934,-2.6882,-0.2064,9.3382,0.0001,0.0001,0.0000,1.0000,-0.0672,-0.0052,0.2335
451422,Pelvis,2,-0.0802,-0.6442,-0.0928,0.7550,0.0023,-0.0036,-0.0034,0.0223,0.0100,-0.0125,9.6815,-0.0002,1.5213,0.0000,-0.0000,-0.0000,1.0000,0.2420,-0.0000,0.0380
451422,Right,2,-0.0146,0.0101,0.5777,0.8160,-0.0097,0.0049,0.0338,-0.0145,0.1625,-0.0183,-0.1781,-0.0522,9.7940,-0.0001,0.0001,0.0004,1.0000,-0.0044,-0.0013,0.2449
451423,Left,2,0.0823,0.1166,-0.6129,0.7772,0.0109,0.0059,0.0018,-0.0436,-0.0672,-0.0934,-2.6896,-0.2036,9.3378,0.0001,0.0001,0.0000,1.0000,-0.0672,-0.0051,0.2334
451423,Pelvis,2,-0.0802,-0.6442,-0.0928,0.7550,0.0025,-0.0037,-0.0022,0.0118,0.0244,0.0029,9.6945,0.0115,1.5373,0.0000,-0.0000,-0.0000,1.0000,0.2424,0.0003,0.0384
451423,Right,2,-0.0147,0.0101,0.5780,0.8158,-0.0107,0.0044,0.0324,-0.0383,0.1757,-0.0515,-0.1725,-0.0264,9.7612,-0.0001,0.0001,0.0004,1.0000,-0.0043,-0.0006,0.2440
451424,Left,2,0.0822,0.1167,-0.6131,0.7770,0.0102,0.0069,0.0023,-0.0504,-0.0825,-0.0881,-2.6788,-0.2167,9.3463,0.0001,0.0001,0.0000,1.0000,-0.0670,-0.0055,0.2337
451424,Pelvis,2,-0.0802,-0.6442,-0.0928,0.7550,0.0031,-0.0048,-0.0016,0.0026,-0.0039,-0.0033,9.6880,-0.0181,1.5383,0.0000,-0.0001,-0.0000,1.0000,0.2422,-0.0005,0.0385
451424,Right,2,-0.0146,0.0099,0.5783,0.8156,-0.0103,0.0058,0.0349,-0.0351,0.1571,-0.0477,-0.1852,-0.0358,9.7645,-0.0001,0.0001,0.0004,1.0000,-0.0046,-0.0009,0.2441
451425,Pelvis,2,-0.0802,-0.6442,-0.0928,0.7550,0.0027,-0.0043,-0.0004,0.0037,-0.0037,-0.0033,9.6882,-0.0177,1.5372,0.0000,-0.0001,-0.0000,1.0000,0.2422,-0.0004,0.0384
451425,Right,2,-0.0146,0.0101,0.5787,0.8153,-0.0088,0.0060,0.0357,-0.0372,0.1726,-0.0425,-0.1749,-0.0273,9.7702,-0.0001,0.0001,0.0004,1.0000,-0.0044,-0.0007,0.2443
451426,Left,2,0.0823,0.1167,-0.6131,0.7770,0.0106,0.0066,0.0024,-0.0472,-0.0620,-0.0872,-2.6981,-0.2069,9.3418,0.0003,0.0002,0.0001,1.0000,-0.1348,-0.0105,0.4671
451426,Pelvis,2,-0.0802,-0.6442,-0.0928,0.7550,0.0043,-0.0047,-0.0017,-0.0230,0.0130,-0.0023,9.6845,-0.0081,1.5669,0.0001,-0.0001,-0.0000,1.0000,0.2421,-0.0002,0.0392
451426,Right,2,-0.0146,0.0102,0.5791,0.8151,-0.0099,0.0043,0.0345,-0.0308,0.1580,-0.0387,-0.1877,-0.0364,9.7735,-0.0001,0.0001,0.0004,1.0000,-0.0047,-0.0009,0.2443
451427,Left,2,0.0822,0.1168,-0.6132,0.7769,0.0115,0.0066,0.0018,-0.0444,-0.0840,-0.0827,-2.6780,-0.2126,9.3522,0.0001,0.0001,0.0000,1.0000,-0.0669,-0.0054,0.2338
451427,Pelvis,2,-0.0802,-0.6442,-0.0928,0.7550,0.0026,-0.0031,-0.0017,-0.0175,-0.0081,-0.0041,9.6843,-0.0271,1.5563,0.0000,-0.0000,-0.0000,1.0000,0.2421,-0.0007,0.0389
451427,Right,2,-0.0147,0.0100,0.5794,0.8149,-0.0095,0.0029,0.0341,-0.0310,0.1661,-0.0296,-0.1786,-0.0369,9.7829,-0.0001,0.0000,0.0004,1.0000,-0.0045,-0.0009,0.2446
451428,Left,2,0.0823,0.1168,-0.6133,0.7768,0.0123,0.0066,0.0022,-0.0258,-0.0792,-0.0721,-2.6820,-0.1935,9.3625,0.0002,0.0001,0.0000,1.0000,-0.0670,-0.0049,0.2341
451428,Pelvis,2,-0.0802,-0.6442,-0.0928,0.7550,0.0036,-0.0047,-0.0022,-0.0180,0.0016,-0.0140,9.6741,-0.0177,1.5576,0.0000,-0.0001,-0.0000,1.0000,0.2418,-0.0005,0.0390
451428,Right,2,-0.0147,0.0100,0.5797,0.8146,-0.0123,0.0069,0.0344,-0.0329,0.1660,-0.0206,-0.1795,-0.0357,9.7919,-0.0002,0.0001,0.0004,1.0000,-0.0045,-0.0009,0.2448
451429,Left,2,0.0823,0.1168,-0.6135,0.7767,0.0103,0.0057,0.0019,-0.0478,-0.0832,-0.0880,-2.6798,-0.2150,9.3462,0.0001,0.0001,0.0000,1.0000,-0.0670,-0.0054,0.2337
451429,Pelvis,2,-0.0802,-0.6442,-0.0928,0.7550,0.0037,-0.0036,-0.0023,-0.0094,0.0018,0.0040,9.6932,-0.0152,1.5523,0.0000,-0.0000,-0.0000,1.0000,0.2423,-0.0004,0.0388
451429,Right,2,-0.0147,0.0101,0.5801,0.8144,-0.0115,0.0042,0.0347,-0.0301,0.1649,-0.0423,-0.1797,-0.0369,9.7701,-0.0001,0.0001,0.0004,1.0000,-0.0045,-0.0009,0.2443
451430,Left,2,0.0824,0.1167,-0.6134,0.7767,0.0108,0.0054,0.0010,-0.0448,-0.0740,-0.0764,-2.6903,-0.2082,9.3552,0.0001,0.0001,0.0000,1.0000,-0.0672,-0.0052,0.2339
451430,Pelvis,2,-0.0802,-0.6442,-0.0928,0.7550,0.0016,-0.0032,-0.0004,-0.0083,0.0019,0.0040,9.6933,-0.0148,1.5514,0.0000,-0.0000,-0.0000,1.0000,0.2423,-0.0004,0.0388
451430,Right,2,-0.0147,0.0102,0.5804,0.8141,-0.0092,0.0053,0.0336,-0.0286,0.1778,-0.0242,-0.1706,-0.0339,9.7886,-0.0001,0.0001,0.0004,1.0000,-0.0042,-0.0008,0.2447
451431,Left,2,0.0824,0.1168,-0.6135,0.7767,0.0094,0.0069,0.0018,-0.0345,-0.0698,-0.0880,-2.6893,-0.1981,9.3437,0.0001,0.0001,0.0000,1.0000,-0.0672,-0.0050,0.2336
451431,Pelvis,2,-0.0800,-0.6441,-0.0926,0.7551,0.0037,-0.0053,-0.0016,-0.0082,0.0019,-0.0050,9.6840,-0.0153,1.5526,0.0000,-0.0001,-0.0000,1.0000,0.2421,-0.0004,0.0388
451431,Right,2,-0.0148,0.0102,0.5808,0.8139,-0.0110,0.0046,0.0346,-0.0312,0.1563,-0.0424,-0.1917,-0.0397,9.7697,-0.0001,0.0001,0.0004,1.0000,-0.0048,-0.0010,0.2442
451432,Left,2,0.0823,0.1168,-0.6136,0.7765,0.0107,0.0060,0.0012,-0.0420,-0.0755,-0.1048,-2.6804,-0.2080,9.3286,0.0001,0.0001,0.0000,1.0000,-0.0670,-0.0052,0.2332
451432,Pelvis,2,-0.0800,-0.6441,-0.0926,0.7551,0.0017,-0.0048,-0.0026,-0.0158,0.0044,-0.0014,9.6864,-0.0146,1.5609,0.0000,-0.0001,-0.0000,1.0000,0.2422,-0.0004,0.0390
451432,Right,2,-0.0146,0.0102,0.5812,0.8136,-0.0109,0.0059,0.0354,-0.0234,0.1727,-0.0241,-0.1732,-0.0388,9.7885,-0.0001,0.0001,0.0004,1.0000,-0.0043,-0.0009,0.2447
451433,Left,2,0.0823,0.1169,-0.6137,0.7765,0.0113,0.0056,0.0029,-0.0581,-0.0736,-0.0923,-2.6910,-0.2249,9.3382,0.0001,0.0001,0.0000,1.0000,-0.0673,-0.0057,0.2335
451433,Pelvis,2,-0.0800,-0.6441,-0.0926,0.7551,0.0039,-0.0036,-0.0012,0.0028,-0.0001,-0.0087,9.6822,-0.0143,1.5408,0.0000,-0.0000,-0.0000,1.0000,0.2421,-0.0004,0.0385
451433,Right,2,-0.0145,0.0104,0.5815,0.8133,-0.0104,0.0050,0.0344,-0.0229,0.1614,-0.0242,-0.1841,-0.0393,9.7881,-0.0001,0.0001,0.0004,1.0000,-0.0046,-0.0010,0.2447
451434,Left,2,0.0823,0.1170,-0.6138,0.7764,0.0117,0.0070,0.0005,-0.0451,-0.0997,-0.0772,-2.6692,-0.2216,9.3604,0.0001,0.0001,0.0000,1.0000,-0.0667,-0.0056,0.2340
451434,Pelvis,2,-0.0800,-0.6441,-0.0926,0.7551,0.0020,-0.0043,-0.0009,0.0105,-0.0117,-0.0114,9.6811,-0.0238,1.5303,0.0000,-0.0001,-0.0000,1.0000,0.2420,-0.0006,0.0383
451434,Right,2,-0.0145,0.0105,0.5819,0.8131,-0.0103,0.0062,0.0341,-0.0100,0.1780,-0.0458,-0.1652,-0.0440,9.7671,-0.0001,0.0001,0.0004,1.0000,-0.0041,-0.0011,0.2442
451435,Left,2,0.0823,0.1171,-0.6139,0.7763,0.0116,0.0054,0.0014,-0.0285,-0.0724,-0.1047,-2.6847,-0.1997,9.3275,0.0001,0.0001,0.0000,1.0000,-0.0671,-0.0050,0.2332
451435,Pelvis,2,-0.0800,-0.6441,-0.0926,0.7551,0.0035,-0.0052,-0.0027,-0.0109,-0.0045,0.0086,9.6973,-0.0219,1.5555,0.0000,-0.0001,-0.0000,1.0000,0.2424,-0.0006,0.0389
451435,Right,2,-0.0146,0.0105,0.5823,0.8128,-0.0105,0.0044,0.0350,-0.0217,0.1630,-0.0369,-0.1852,-0.0389,9.7753,-0.0001,0.0001,0.0004,1.0000,-0.0046,-0.0009,0.2444
451436,Left,2,0.0823,0.1171,-0.6139,0.7763,0.0114,0.0072,0.0020,-0.0337,-0.0730,-0.0931,-2.6886,-0.2046,9.3384,0.0001,0.0001,0.0000,1.0000,-0.0672,-0.0051,0.2335
451436,Pelvis,2,-0.0800,-0.6441,-0.0926,0.7551,0.0036,-0.0058,-0.0021,0.0077,-0.0090,0.0013,9.6931,-0.0215,1.5351,0.0000,-0.0001,-0.0000,1.0000,0.2423,-0.0005,0.0384
451436,Right,2,-0.0146,0.0107,0.5827,0.8125,-0.0107,0.0039,0.0357,-0.0255,0.1675,-0.0407,-0.1843,-0.0324,9.7716,-0.0001,0.0000,0.0004,1.0000,-0.0046,-0.0008,0.2443
451437,Left,2,0.0822,0.1172,-0.6140,0.7762,0.0115,0.0060,0.0016,-0.0267,-0.0928,-0.0718,-2.6749,-0.2051,9.3646,0.0001,0.0001,0.0000,1.0000,-0.0669,-0.0052,0.2341
451437,Pelvis,2,-0.0800,-0.6441,-0.0926,0.7551,0.0028,-0.0037,0.0001,0.0094,0.0101,-0.0096,9.6820,-0.0026,1.5363,0.0000,-0.0000,0.0000,1.0000,0.2420,-0.0001,0.0384
451437,Right,2,-0.0147,0.0106,0.5830,0.8123,-0.0093,0.0058,0.0340,-0.0237,0.1767,-0.0316,-0.1756,-0.0331,9.7811,-0.0001,0.0001,0.0004,1.0000,-0.0044,-0.0008,0.2445
451438,Left,2,0.0822,0.1173,-0.6142,0.7761,0.0115,0.0066,0.0018,-0.0403,-0.0813,-0.0815,-2.6874,-0.2186,9.3507,0.0001,0.0001,0.0000,1.0000,-0.0672,-0.0055,0.2338
451438,Pelvis,2,-0.0800,-0.6441,-0.0926,0.7551,0.0029,-0.0030,-0.0035,-0.0113,-0.0039,-0.0004,9.6883,-0.0212,1.5544,0.0000,-0.0000,-0.0000,1.0000,0.2422,-0.0005,0.0389
451438,Right,2,-0.0147,0.0107,0.5834,0.8120,-0.0101,0.0036,0.0350,-0.0044,0.1786,-0.0367,-0.1696,-0.0498,9.7760,-0.0001,0.0000,0.0004,1.0000,-0.0042,-0.0012,0.2444
451439,Left,2,0.0822,0.1173,-0.6142,0.7761,0.0104,0.0062,0.0027,-0.0234,-0.0743,-0.0877,-2.6877,-0.2001,9.3444,0.0001,0.0001,0.0000,1.0000,-0.0672,-0.0050,0.2336
451439,Pelvis,2,-0.0800,-0.6441,-0.0926,0.7551,0.0030,-0.0042,-0.0022,0.0073,-0.0084,-0.0078,9.6841,-0.0207,1.5345,0.0000,-0.0001,-0.0000,1.0000,0.2421,-0.0005,0.0384
451439,Right,2,-0.0148,0.0108,0.5837,0.8118,-0.0100,0.0048,0.0348,-0.0306,0.1836,-0.0264,-0.1755,-0.0251,9.7864,-0.0001,0.0001,0.0004,1.0000,-0.0044,-0.0006,0.2447
451440,Left,2,0.0821,0.1172,-0.6143,0.7760,0.0111,0.0057,0.0023,-0.0345,-0.0674,-0.0867,-2.6958,-0.2094,9.3428,0.0001,0.0001,0.0000,1.0000,-0.0674,-0.0053,0.2336
451440,Pelvis,2,-0.0800,-0.6441,-0.0926,0.7551,0.0033,-0.0031,-0.0012,0.0046,-0.0083,-0.0168,9.6748,-0.0211,1.5358,0.0000,-0.0000,-0.0000,1.0000,0.2419,-0.0005,0.0384
451440,Right,2,-0.0149,0.0108,0.5840,0.8115,-0.0121,0.0048,0.0346,-0.0270,0.1812,-0.0572,-0.1759,-0.0297,9.7556,-0.0002,0.0001,0.0004,1.0000,-0.0044,-0.0007,0.2439
451441,Pelvis,2,-0.0800,-0.6441,-0.0926,0.7551,0.0028,-0.0037,0.0001,-0.0042,-0.0033,0.0086,9.6982,-0.0187,1.5496,0.0000,-0.0000,0.0000,1.0000,0.2425,-0.0005,0.0388
451441,Right,2,-0.0149,0.0107,0.5844,0.8113,-0.0100,0.0048,0.0348,-0.0180,0.1743,-0.0316,-0.1803,-0.0427,9.7809,-0.0001,0.0001,0.0004,1.0000,-0.0045,-0.0010,0.2445
451442,Left,2,0.0821,0.1172,-0.6144,0.7759,0.0110,0.0064,0.0022,-0.0364,-0.0792,-0.0845,-2.6852,-0.2131,9.3483,0.0003,0.0002,0.0001,1.0000,-0.1342,-0.0108,0.4674
451442,Pelvis,2,-0.0800,-0.6441,-0.0926,0.7551,0.0031,-0.0048,-0.0016,0.0003,0.0039,-0.0140,9.6763,-0.0107,1.5435,0.0000,-0.0001,-0.0000,1.0000,0.2419,-0.0003,0.0386
451442,Right,2,-0.0150,0.0107,0.5847,0.8110,-0.0105,0.0049,0.0343,-0.0369,0.1732,-0.0392,-0.1870,-0.0254,9.7733,-0.0001,0.0001,0.0004,1.0000,-0.0047,-0.0006,0.2443
451443,Left,2,0.0822,0.1172,-0.6144,0.7759,0.0100,0.0042,0.0023,-0.0384,-0.0723,-0.0866,-2.6933,-0.2133,9.3436,0.0001,0.0001,0.0000,1.0000,-0.0673,-0.0054,0.2336
451443,Pelvis,2,-0.0800,-0.6441,-0.0926,0.7551,0.0039,-0.0042,-0.0005,0.0155,-0.0077,0.0012,9.6942,-0.0183,1.5285,0.0000,-0.0001,-0.0000,1.0000,0.2424,-0.0005,0.0382
451443,Right,2,-0.0150,0.0107,0.5851,0.8108,-0.0106,0.0056,0.0358,-0.0264,0.1773,-0.0263,-0.1804,-0.0350,9.7863,-0.0001,0.0001,0.0004,1.0000,-0.0045,-0.0008,0.2447
451444,Left,2,0.0822,0.1173,-0.6145,0.7758,0.0106,0.0078,0.0017,-0.0162,-0.0801,-0.0770,-2.6837,-0.1944,9.3569,0.0001,0.0001,0.0000,1.0000,-0.0671,-0.0049,0.2339
451444,Pelvis,2,-0.0800,-0.6441,-0.0926,0.7551,0.0024,-0.0048,-0.0021,-0.0101,0.0066,-0.0194,9.6694,-0.0106,1.5531,0.0000,-0.0001,-0.0000,1.0000,0.2417,-0.0003,0.0388
451444,Right,2,-0.0151,0.0107,0.5854,0.8105,-0.0096,0.0033,0.0344,-0.0380,0.1740,-0.0302,-0.1891,-0.0265,9.7823,-0.0001,0.0000,0.0004,1.0000,-0.0047,-0.0006,0.2446
451445,Left,2,0.0823,0.1173,-0.6146,0.7757,0.0115,0.0060,0.0016,-0.0277,-0.0755,-0.0928,-2.6883,-0.2042,9.3388,0.0001,0.0001,0.0000,1.0000,-0.0672,-0.0051,0.2335
451445,Pelvis,2,-0.0800,-0.6441,-0.0926,0.7551,0.0022,-0.0047,-0.0032,0.0002,-0.0026,0.0086,9.6989,-0.0169,1.5452,0.0000,-0.0001,-0.0000,1.0000,0.2425,-0.0004,0.0386
451446,Left,2,0.0823,0.1174,-0.6147,0.7757,0.0105,0.0067,0.0008,-0.0292,-0.0880,-0.0990,-2.6751,-0.2096,9.3362,0.0001,0.0001,0.0000,1.0000,-0.0669,-0.0053,0.2334
451446,Pelvis,2,-0.0800,-0.6441,-0.0926,0.7551,0.0039,-0.0036,-0.0012,0.0150,-0.0071,-0.0078,9.6852,-0.0174,1.5274,0.0000,-0.0000,-0.0000,1.0000,0.2421,-0.0004,0.0382
451446,Right,2,-0.0151,0.0109,0.5861,0.8100,-0.0100,0.0043,0.0334,-0.0300,0.1770,-0.0455,-0.1854,-0.0319,9.7670,-0.0003,0.0001,0.0008,1.0000,-0.0092,-0.0015,0.4884
451447,Left,2,0.0822,0.1173,-0.6147,0.7756,0.0111,0.0057,0.0023,-0.0161,-0.0748,-0.0990,-2.6833,-0.1951,9.3340,0.0001,0.0001,0.0000,1.0000,-0.0671,-0.0049,0.2334
451447,Pelvis,2,-0.0800,-0.6441,-0.0926,0.7551,0.0018,-0.0042,-0.0021,-0.0138,0.0001,-0.0057,9.6825,-0.0174,1.5572,0.0000,-0.0001,-0.0000,1.0000,0.2421,-0.0004,0.0389
451447,Right,2,-0.0151,0.0111,0.5865,0.8097,-0.0107,0.0043,0.0349,-0.0129,0.1873,-0.0172,-0.1747,-0.0427,9.7957,-0.0001,0.0001,0.0004,1.0000,-0.0044,-0.0010,0.2449
451448,Left,2,0.0822,0.1173,-0.6148,0.7755,0.0110,0.0069,0.0027,-0.0310,-0.0846,-0.0873,-2.6806,-0.2119,9.3467,0.0001,0.0001,0.0000,1.0000,-0.0670,-0.0053,0.2337
451448,Pelvis,2,-0.0800,-0.6441,-0.0926,0.7551,0.0032,-0.0053,-0.0009,0.0085,-0.0044,-0.0041,9.6878,-0.0163,1.5348,0.0000,-0.0001,-0.0000,1.0000,0.2422,-0.0004,0.0384
451448,Right,2,-0.0152,0.0111,0.5869,0.8095,-0.0085,0.0042,0.0340,-0.0122,0.1766,-0.0262,-0.1858,-0.0465,9.7862,-0.0001,0.0001,0.0004,1.0000,-0.0046,-0.0011,0.2447
451449,Left,2,0.0823,0.1173,-0.6149,0.7755,0.0116,0.0065,0.0024,-0.0399,-0.0621,-0.1139,-2.6962,-0.2140,9.3143,0.0001,0.0001,0.0000,1.0000,-0.0674,-0.0054,0.2329
451449,Pelvis,2,-0.0800,-0.6441,-0.0926,0.7551,0.0028,-0.0032,-0.0005,0.0096,-0.0042,-0.0041,9.6879,-0.0160,1.5338,0.0000,-0.0000,-0.0000,1.0000,0.2422,-0.0004,0.0384
451449,Right,2,-0.0151,0.0111,0.5872,0.8092,-0.0106,0.0048,0.0342,-0.0289,0.1835,-0.0247,-0.1823,-0.0274,9.7880,-0.0001,0.0001,0.0004,1.0000,-0.0045,-0.0007,0.2447
451450,Left,2,0.0822,0.1172,-0.6149,0.7755,0.0107,0.0055,0.0030,-0.0131,-0.0744,-0.1105,-2.6786,-0.1910,9.3235,0.0001,0.0001,0.0000,1.0000,-0.0669,-0.0048,0.2331
451450,Pelvis,2,-0.0800,-0.6441,-0.0926,0.7551,0.0022,-0.0047,-0.0032,0.0020,-0.0017,-0.0004,9.6903,-0.0153,1.5423,0.0000,-0.0001,-0.0000,1.0000,0.2423,-0.0004,0.0386
451450,Right,2,-0.0152,0.0110,0.5875,0.8090,-0.0098,0.0027,0.0350,-0.0136,0.1856,-0.0299,-0.1762,-0.0442,9.7829,-0.0001,0.0000,0.0004,1.0000,-0.0044,-0.0011,0.2446
451451,Left,2,0.0821,0.1172,-0.6150,0.7755,0.0107,0.0071,-0.0005,-0.0467,-0.0729,-0.0915,-2.6906,-0.2238,9.3391,0.0001,0.0001,-0.0000,1.0000,-0.0672,-0.0056,0.2335
451451,Pelvis,2,-0.0800,-0.6441,-0.0926,0.7551,0.0039,-0.0053,-0.0004,-0.0034,0.0104,0.0023,9.6917,-0.0049,1.5507,0.0000,-0.0001,-0.0000,1.0000,0.2423,-0.0001,0.0388
451451,Right,2,-0.0151,0.0110,0.5879,0.8087,-0.0106,0.0054,0.0346,-0.0149,0.1846,-0.0426,-0.1756,-0.0413,9.7702,-0.0001,0.0001,0.0004,1.0000,-0.0044,-0.0010,0.2443
451452,Left,2,0.0822,0.1173,-0.6150,0.7755,0.0107,0.0055,0.0030,-0.0170,-0.0804,-0.0935,-2.6785,-0.1973,9.3411,0.0001,0.0001,0.0000,1.0000,-0.0669,-0.0050,0.2335
451452,Pelvis,2,-0.0800,-0.6441,-0.0926,0.7551,0.0022,-0.0058,-0.0031,0.0179,-0.0060,-0.0168,9.6768,-0.0155,1.5230,0.0000,-0.0001,-0.0000,1.0000,0.2419,-0.0004,0.0381
451452,Right,2,-0.0151,0.0110,0.5882,0.8085,-0.0097,0.0045,0.0352,-0.0132,0.1831,-0.0425,-0.1768,-0.0436,9.7702,-0.0001,0.0001,0.0004,1.0000,-0.0044,-0.0011,0.2443
451453,Pelvis,2,-0.0800,-0.6441,-0.0926,0.7551,0.0031,-0.0027,0.0011,0.0065,-0.0035,-0.0221,9.6697,-0.0159,1.5337,0.0000,-0.0000,0.0000,1.0000,0.2417,-0.0004,0.0383
451453,Right,2,-0.0151,0.0110,0.5885,0.8083,-0.0096,0.0044,0.0341,-0.0258,0.1894,-0.0282,-0.1750,-0.0298,9.7847,-0.0001,0.0001,0.0004,1.0000,-0.0044,-0.0007,0.2446
451454,Left,2,0.0821,0.1173,-0.6150,0.7754,0.0103,0.0060,0.0020,-0.0262,-0.0799,-0.1013,-2.6787,-0.2056,9.3327,0.0003,0.0002,0.0000,1.0000,-0.1339,-0.0104,0.4667
451454,Pelvis,2,-0.0800,-0.6441,-0.0926,0.7551,0.0027,-0.0047,-0.0039,0.0064,-0.0009,-0.0004,9.6910,-0.0134,1.5379,0.0000,-0.0001,-0.0000,1.0000,0.2423,-0.0003,0.0385
451454,Right,2,-0.0152,0.0110,0.5888,0.8080,-0.0107,0.0047,0.0342,-0.0317,0.1714,-0.0374,-0.1957,-0.0315,9.7748,-0.0001,0.0001,0.0004,1.0000,-0.0049,-0.0008,0.2444
451455,Left,2,0.0822,0.1172,-0.6149,0.7755,0.0114,0.0061,0.0037,-0.0203,-0.0844,-0.0764,-2.6797,-0.2008,9.3585,0.0001,0.0001,0.0000,1.0000,-0.0670,-0.0051,0.2340
451455,Pelvis,2,-0.0800,-0.6441,-0.0926,0.7551,0.0036,-0.0047,-0.0022,-0.0137,0.0040,-0.0021,9.6861,-0.0132,1.5580,0.0000,-0.0001,-0.0000,1.0000,0.2422,-0.0003,0.0390
451455,Right,2,-0.0152,0.0110,0.5892,0.8078,-0.0098,0.0032,0.0343,-0.0221,0.1747,-0.0463,-0.1875,-0.0396,9.7661,-0.0001,0.0000,0.0004,1.0000,-0.0047,-0.0010,0.2442
451456,Left,2,0.0821,0.1171,-0.6149,0.7755,0.0109,0.0052,0.0016,-0.0242,-0.0943,-0.0994,-2.6626,-0.2066,9.3394,0.0001,0.0001,0.0000,1.0000,-0.0666,-0.0052,0.2335
451456,Pelvis,2,-0.0800,-0.6441,-0.0927,0.7551,0.0019,-0.0048,-0.0014,0.0027,-0.0100,-0.0085,9.6828,-0.0227,1.5377,0.0000,-0.0001,-0.0000,1.0000,0.2421,-0.0006,0.0385
451456,Right,2,-0.0153,0.0110,0.5895,0.8075,-0.0102,0.0052,0.0351,-0.0235,0.1882,-0.0500,-0.1770,-0.0351,9.7629,-0.0001,0.0001,0.0004,1.0000,-0.0044,-0.0008,0.2441
451457,Left,2,0.0820,0.1172,-0.6152,0.7753,0.0113,0.0056,0.0029,-0.0256,-0.0640,-0.0976,-2.6908,-0.2040,9.3330,0.0001,0.0001,0.0000,1.0000,-0.0673,-0.0051,0.2333
451457,Pelvis,2,-0.0800,-0.6441,-0.0927,0.7551,0.0029,-0.0047,-0.0027,0.0022,-0.0004,-0.0184,9.6726,-0.0133,1.5389,0.0000,-0.0001,-0.0000,1.0000,0.2418,-0.0003,0.0385
451457,Right,2,-0.0154,0.0112,0.5899,0.8073,-0.0101,0.0045,0.0335,-0.0290,0.1723,-0.0284,-0.1985,-0.0349,9.7838,-0.0001,0.0001,0.0004,1.0000,-0.0049,-0.0008,0.2446
451458,Left,2,0.0820,0.1173,-0.6152,0.7753,0.0111,0.0068,0.0006,-0.0304,-0.0728,-0.0806,-2.6893,-0.2127,9.3511,0.0001,0.0001,0.0000,1.0000,-0.0672,-0.0053,0.2338
451458,Pelvis,2,-0.0799,-0.6441,-0.0927,0.7550,0.0040,-0.0052,-0.0034,-0.0016,0.0022,-0.0057,9.6845,-0.0113,1.5449,0.0001,-0.0001,-0.0000,1.0000,0.2421,-0.0003,0.0386
451458,Right,2,-0.0154,0.0113,0.5903,0.8070,-0.0094,0.0067,0.0336,-0.0179,0.1783,-0.0373,-0.1908,-0.0428,9.7751,-0.0001,0.0001,0.0004,1.0000,-0.0047,-0.0010,0.2444
451459,Left,2,0.0820,0.1173,-0.6153,0.7752,0.0118,0.0063,0.0029,-0.0174,-0.0616,-0.0807,-2.6976,-0.1980,9.3488,0.0001,0.0001,0.0000,1.0000,-0.0674,-0.0050,0.2337
451459,Pelvis,2,-0.0800,-0.6441,-0.0927,0.7550,0.0027,-0.0043,-0.0004,0.0098,-0.0094,0.0005,9.6929,-0.0197,1.5320,0.0000,-0.0001,-0.0000,1.0000,0.2423,-0.0005,0.0383
451459,Right,2,-0.0155,0.0112,0.5906,0.8068,-0.0111,0.0017,0.0353,-0.0356,0.1999,-0.0485,-0.1759,-0.0208,9.7647,-0.0001,0.0000,0.0004,1.0000,-0.0044,-0.0005,0.2441
451460,Left,2,0.0819,0.1173,-0.6153,0.7752,0.0111,0.0051,0.0022,-0.0329,-0.0696,-0.0858,-2.6910,-0.2152,9.3451,0.0001,0.0001,0.0000,1.0000,-0.0673,-0.0054,0.2336
451460,Pelvis,2,-0.0800,-0.6441,-0.0927,0.7551,0.0027,-0.0026,-0.0012,-0.0016,-0.0069,-0.0048,9.6857,-0.0202,1.5429,0.0000,-0.0000,-0.0000,1.0000,0.2421,-0.0005,0.0386
451460,Right,2,-0.0156,0.0112,0.5909,0.8065,-0.0086,0.0053,0.0348,-0.0291,0.1839,-0.0538,-0.1889,-0.0333,9.7588,-0.0001,0.0001,0.0004,1.0000,-0.0047,-0.0008,0.2440
451461,Left,2,0.0819,0.1172,-0.6153,0.7752,0.0111,0.0051,0.0022,-0.0272,-0.0807,-0.0866,-2.6787,-0.2124,9.3479,0.0001,0.0001,0.0000,1.0000,-0.0670,-0.0053,0.2337
451461,Pelvis,2,-0.0800,-0.6441,-0.0927,0.7551,0.0034,-0.0047,-0.0034,-0.0032,0.0052,0.0069,9.6966,-0.0087,1.5494,0.0000,-0.0001,-0.0000,1.0000,0.2424,-0.0002,0.0387
451461,Right,2,-0.0155,0.0113,0.5913,0.8063,-0.0116,0.0047,0.0320,-0.0148,0.1758,-0.0282,-0.1936,-0.0461,9.7841,-0.0001,0.0001,0.0004,1.0000,-0.0048,-0.0011,0.2446
451462,Left,2,0.0818,0.1171,-0.6153,0.7752,0.0107,0.0066,0.0014,-0.0177,-0.0746,-0.0813,-2.6813,-0.2015,9.3528,0.0001,0.0001,0.0000,1.0000,-0.0670,-0.0051,0.2338
451462,Pelvis,2,-0.0800,-0.6441,-0.0927,0.7550,0.0027,-0.0043,-0.0004,-0.0021,0.0054,0.0069,9.6968,-0.0081,1.5483,0.0000,-0.0001,-0.0000,1.0000,0.2424,-0.0002,0.0387
451463,Left,2,0.0819,0.1172,-0.6152,0.7753,0.0104,0.0062,0.0026,-0.0136,-0.0665,-0.0867,-2.6883,-0.1952,9.3453,0.0001,0.0001,0.0000,1.0000,-0.0672,-0.0049,0.2336
451463,Pelvis,2,-0.0800,-0.6441,-0.0927,0.7550,0.0025,-0.0042,-0.0015,-0.0108,-0.0039,-0.0101,9.6790,-0.0194,1.5517,0.0000,-0.0001,-0.0000,1.0000,0.2420,-0.0005,0.0388
451463,Right,2,-0.0156,0.0114,0.5919,0.8058,-0.0099,0.0050,0.0342,-0.0241,0.1918,-0.0356,-0.1816,-0.0343,9.7773,-0.0002,0.0001,0.0009,1.0000,-0.0090,-0.0016,0.4889
451464,Left,2,0.0819,0.1170,-0.6152,0.7754,0.0115,0.0060,0.0016,-0.0249,-0.0719,-0.0865,-2.6830,-0.2044,9.3468,0.0001,0.0001,0.0000,1.0000,-0.0671,-0.0051,0.2337
451464,Pelvis,2,-0.0800,-0.6441,-0.0927,0.7550,0.0030,-0.0042,-0.0022,0.0181,-0.0203,-0.0112,9.6829,-0.0281,1.5199,0.0000,-0.0001,-0.0000,1.0000,0.2421,-0.0007,0.0380
451464,Right,2,-0.0156,0.0114,0.5922,0.8055,-0.0099,0.0037,0.0346,-0.0333,0.1865,-0.0394,-0.1906,-0.0266,9.7733,-0.0001,0.0000,0.0004,1.0000,-0.0048,-0.0006,0.2443
451465,Left,2,0.0819,0.1169,-0.6152,0.7753,0.0109,0.0058,0.0018,-0.0282,-0.0548,-0.1025,-2.6941,-0.2023,9.3269,0.0001,0.0001,0.0000,1.0000,-0.0673,-0.0051,0.2332
451465,Pelvis,2,-0.0800,-0.6441,-0.0927,0.7550,0.0032,-0.0042,-0.0010,0.0126,-0.0082,-0.0085,9.6843,-0.0177,1.5284,0.0000,-0.0001,-0.0000,1.0000,0.2421,-0.0004,0.0382
451465,Right,2,-0.0156,0.0114,0.5926,0.8052,-0.0094,0.0036,0.0351,-0.0178,0.1895,-0.0355,-0.1843,-0.0398,9.7772,-0.0001,0.0000,0.0004,1.0000,-0.0046,-0.0010,0.2444
451466,Left,2,0.0819,0.1170,-0.6153,0.7753,0.0111,0.0057,0.0023,-0.0280,-0.0704,-0.0917,-2.6845,-0.2071,9.3409,0.0001,0.0001,0.0000,1.0000,-0.0671,-0.0052,0.2335
451466,Pelvis,2,-0.0800,-0.6441,-0.0927,0.7551,0.0028,-0.0032,-0.0005,-0.0037,-0.0033,-0.0011,9.6889,-0.0170,1.5465,0.0000,-0.0000,-0.0000,1.0000,0.2422,-0.0004,0.0387
451466,Right,2,-0.0156,0.0113,0.5929,0.8050,-0.0100,0.0038,0.0357,-0.0206,0.2001,-0.0391,-0.1735,-0.0354,9.7740,-0.0001,0.0000,0.0004,1.0000,-0.0043,-0.0009,0.2444
451467,Left,2,0.0819,0.1170,-0.6153,0.7753,0.0102,0.0063,0.0021,-0.0292,-0.0536,-0.0909,-2.6994,-0.2045,9.3375,0.0001,0.0001,0.0000,1.0000,-0.0675,-0.0051,0.2334
451467,Pelvis,2,-0.0800,-0.6441,-0.0927,0.7551,0.0051,-0.0041,-0.0007,-0.0064,-0.0031,-0.0101,9.6796,-0.0177,1.5479,0.0001,-0.0001,-0.0000,1.0000,0.2420,-0.0004,0.0387
451467,Right,2,-0.0157,0.0113,0.5932,0.8048,-0.0105,0.0063,0.0332,-0.0336,0.1847,-0.0303,-0.1933,-0.0298,9.7823,-0.0001,0.0001,0.0004,1.0000,-0.0048,-0.0007,0.2446
451468,Pelvis,2,-0.0799,-0.6441,-0.0927,0.7550,0.0034,-0.0058,-0.0032,0.0007,0.0066,-0.0020,9.6883,-0.0064,1.5445,0.0000,-0.0001,-0.0000,1.0000,0.2422,-0.0002,0.0386
451468,Right,2,-0.0157,0.0113,0.5936,0.8046,-0.0101,0.0018,0.0344,-0.0216,0.1880,-0.0174,-0.1866,-0.0397,9.7953,-0.0001,0.0000,0.0004,1.0000,-0.0047,-0.0010,0.2449
451469,Left,2,0.0820,0.1169,-0.6154,0.7752,0.0121,0.0055,0.0023,-0.0384,-0.0657,-0.0880,-2.6920,-0.2141,9.3425,0.0003,0.0001,0.0001,1.0000,-0.1345,-0.0109,0.4671
451469,Pelvis,2,-0.0800,-0.6441,-0.0927,0.7550,0.0028,-0.0037,0.0001,-0.0167,-0.0004,-0.0154,9.6727,-0.0173,1.5573,0.0000,-0.0000,0.0000,1.0000,0.2418,-0.0004,0.0389
451469,Right,2,-0.0157,0.0113,0.5938,0.8044,-0.0106,0.0070,0.0347,-0.0198,0.1972,-0.0300,-0.1764,-0.0390,9.7830,-0.0001,0.0001,0.0004,1.0000,-0.0044,-0.0009,0.2446
451470,Left,2,0.0820,0.1170,-0.6154,0.7752,0.0107,0.0060,0.0012,-0.0269,-0.0642,-0.0969,-2.6888,-0.2041,9.3344,0.0001,0.0001,0.0000,1.0000,-0.0672,-0.0051,0.2334
451470,Pelvis,2,-0.0800,-0.6441,-0.0927,0.7551,0.0037,-0.0042,-0.0017,-0.0058,0.0093,0.0016,9.6909,-0.0054,1.5519,0.0000,-0.0001,-0.0000,1.0000,0.2423,-0.0001,0.0388
451470,Right,2,-0.0157,0.0114,0.5942,0.8041,-0.0086,0.0057,0.0340,-0.0301,0.1925,-0.0338,-0.1853,-0.0301,9.7790,-0.0001,0.0001,0.0004,1.0000,-0.0046,-0.0007,0.2445
451471,Pelvis,2,-0.0800,-0.6441,-0.0927,0.7551,0.0025,-0.0037,-0.0022,-0.0020,-0.0023,-0.0101,9.6803,-0.0156,1.5436,0.0000,-0.0000,-0.0000,1.0000,0.2420,-0.0004,0.0386
451471,Right,2,-0.0158,0.0113,0.5945,0.8039,-0.0104,0.0031,0.0336,-0.0360,0.1956,-0.0157,-0.1855,-0.0252,9.7972,-0.0001,0.0000,0.0004,1.0000,-0.0046,-0.0006,0.2449
451472,Left,2,0.0820,0.1170,-0.6154,0.7751,0.0110,0.0058,0.0020,-0.0285,-0.0626,-0.0910,-2.6921,-0.2039,9.3395,0.0003,0.0001,0.0001,1.0000,-0.1345,-0.0103,0.4670
451472,Pelvis,2,-0.0800,-0.6441,-0.0927,0.7550,0.0032,-0.0053,-0.0009,-0.0009,-0.0021,-0.0101,9.6805,-0.0152,1.5425,0.0000,-0.0001,-0.0000,1.0000,0.2420,-0.0004,0.0386
451472,Right,2,-0.0157,0.0115,0.5949,0.8036,-0.0104,0.0044,0.0345,-0.0286,0.1815,-0.0121,-0.1982,-0.0342,9.8003,-0.0001,0.0001,0.0004,1.0000,-0.0049,-0.0008,0.2450
451473,Left,2,0.0819,0.1171,-0.6154,0.7752,0.0104,0.0068,0.0028,-0.0187,-0.0577,-0.0968,-2.6930,-0.1961,9.3333,0.0001,0.0001,0.0000,1.0000,-0.0673,-0.0049,0.2333
451473,Pelvis,2,-0.0799,-0.6442,-0.0927,0.7550,0.0035,-0.0052,-0.0027,-0.0172,0.0028,-0.0027,9.6851,-0.0142,1.5603,0.0000,-0.0001,-0.0000,1.0000,0.2421,-0.0004,0.0390
451473,Right,2,-0.0156,0.0115,0.5952,0.8033,-0.0098,0.0041,0.0339,-0.0209,0.1993,-0.0464,-0.1771,-0.0340,9.7667,-0.0001,0.0001,0.0004,1.0000,-0.0044,-0.0008,0.2442
451474,Left,2,0.0819,0.1170,-0.6154,0.7751,0.0119,0.0068,0.0011,-0.0251,-0.0866,-0.0752,-2.6727,-0.2084,9.3617,0.0001,0.0001,0.0000,1.0000,-0.0668,-0.0052,0.2340
451474,Pelvis,2,-0.0800,-0.6441,-0.0927,0.7550,0.0006,-0.0037,-0.0026,0.0014,-0.0018,-0.0101,9.6808,-0.0139,1.5402,0.0000,-0.0000,-0.0000,1.0000,0.2420,-0.0004,0.0385
451474,Right,2,-0.0157,0.0115,0.5956,0.8031,-0.0109,0.0032,0.0331,-0.0354,0.1861,-0.0285,-0.1961,-0.0248,9.7841,-0.0001,0.0000,0.0004,1.0000,-0.0049,-0.0006,0.2446
451475,Left,2,0.0819,0.1170,-0.6155,0.7751,0.0102,0.0063,0.0021,-0.0269,-0.0703,-0.0912,-2.6840,-0.2064,9.3417,0.0001,0.0001,0.0000,1.0000,-0.0671,-0.0052,0.2335
451475,Pelvis,2,-0.0800,-0.6442,-0.0927,0.7550,0.0039,-0.0042,-0.0005,0.0085,0.0079,-0.0021,9.6895,-0.0028,1.5370,0.0000,-0.0001,-0.0000,1.0000,0.2422,-0.0001,0.0384
451475,Right,2,-0.0158,0.0116,0.5959,0.8028,-0.0109,0.0051,0.0344,-0.0237,0.2024,-0.0283,-0.1782,-0.0318,9.7849,-0.0001,0.0001,0.0004,1.0000,-0.0044,-0.0008,0.2446
451476,Pelvis,2,-0.0799,-0.6442,-0.0927,0.7550,0.0046,-0.0046,-0.0035,0.0014,-0.0108,-0.0092,9.6821,-0.0225,1.5381,0.0001,-0.0001,-0.0000,1.0000,0.2421,-0.0006,0.0385
451476,Right,2,-0.0158,0.0116,0.5962,0.8026,-0.0088,0.0064,0.0355,-0.0244,0.1909,-0.0374,-0.1895,-0.0353,9.7753,-0.0001,0.0001,0.0004,1.0000,-0.0047,-0.0009,0.2444
451477,Left,2,0.0820,0.1170,-0.6155,0.7751,0.0107,0.0060,0.0022,-0.0304,-0.0729,-0.0910,-2.6828,-0.2084,9.3422,0.0003,0.0002,0.0001,1.0000,-0.1341,-0.0106,0.4671
451477,Pelvis,2,-0.0799,-0.6442,-0.0927,0.7550,0.0024,-0.0048,-0.0021,0.0085,-0.0012,-0.0011,9.6908,-0.0110,1.5348,0.0000,-0.0001,-0.0000,1.0000,0.2423,-0.0003,0.0384
451477,Right,2,-0.0158,0.0116,0.5965,0.8024,-0.0109,0.0044,0.0340,-0.0082,0.2036,-0.0244,-0.1738,-0.0475,9.7887,-0.0001,0.0001,0.0004,1.0000,-0.0043,-0.0012,0.2447
451478,Left,2,0.0819,0.1169,-0.6155,0.7751,0.0109,0.0052,0.0016,-0.0183,-0.0761,-0.0919,-2.6747,-0.1985,9.3438,0.0001,0.0001,0.0000,1.0000,-0.0669,-0.0050,0.2336
451478,Pelvis,2,-0.0800,-0.6442,-0.0927,0.7550,0.0028,-0.0037,0.0001,-0.0165,0.0062,0.0100,9.6977,-0.0101,1.5623,0.0000,-0.0000,0.0000,1.0000,0.2424,-0.0003,0.0391
451478,Right,2,-0.0159,0.0116,0.5969,0.8021,-0.0103,0.0048,0.0338,-0.0338,0.1859,-0.0411,-0.1992,-0.0289,9.7713,-0.0001,0.0001,0.0004,1.0000,-0.0050,-0.0007,0.2443
451479,Left,2,0.0819,0.1170,-0.6156,0.7750,0.0108,0.0064,0.0019,-0.0252,-0.0632,-0.0963,-2.6883,-0.2040,9.3351,0.0001,0.0001,0.0000,1.0000,-0.0672,-0.0051,0.2334
451479,Pelvis,2,-0.0799,-0.6442,-0.0927,0.7550,0.0037,-0.0042,-0.0017,0.0047,-0.0102,-0.0092,9.6826,-0.0210,1.5350,0.0000,-0.0001,-0.0000,1.0000,0.2421,-0.0005,0.0384
451479,Right,2,-0.0160,0.0117,0.5972,0.8019,-0.0094,0.0046,0.0348,-0.0178,0.1996,-0.0282,-0.1833,-0.0410,9.7847,-0.0001,0.0001,0.0004,1.0000,-0.0046,-0.0010,0.2446
451480,Left,2,0.0819,0.1170,-0.6156,0.7750,0.0117,0.0058,0.0022,-0.0327,-0.0712,-0.0960,-2.6830,-0.2132,9.3368,0.0001,0.0001,0.0000,1.0000,-0.0671,-0.0054,0.2334
451480,Pelvis,2,-0.0799,-0.6442,-0.0927,0.7550,0.0032,-0.0042,-0.0010,0.0031,0.0018,0.0026,9.6935,-0.0097,1.5413,0.0000,-0.0001,-0.0000,1.0000,0.2423,-0.0002,0.0385
451480,Right,2,-0.0160,0.0117,0.5975,0.8016,-0.0099,0.0047,0.0343,-0.0206,0.2006,-0.0409,-0.1826,-0.0380,9.7721,-0.0001,0.0001,0.0004,1.0000,-0.0046,-0.0009,0.2443
451481,Left,2,0.0819,0.1171,-0.6156,0.7750,0.0101,0.0064,0.0015,-0.0139,-0.0669,-0.0856,-2.6869,-0.1942,9.3468,0.0001,0.0001,0.0000,1.0000,-0.0672,-0.0049,0.2337
451481,Pelvis,2,-0.0799,-0.6442,-0.0927,0.7550,0.0038,-0.0047,-0.0010,0.0178,-0.0028,-0.0138,9.6797,-0.0107,1.5235,0.0000,-0.0001,-0.0000,1.0000,0.2420,-0.0003,0.0381
451481,Right,2,-0.0160,0.0117,0.5978,0.8014,-0.0105,0.0036,0.0340,-0.0166,0.2104,-0.0318,-0.1737,-0.0391,9.7816,-0.0001,0.0000,0.0004,1.0000,-0.0043,-0.0009,0.2445
451482,Pelvis,2,-0.0799,-0.6442,-0.0927,0.7550,0.0032,-0.0042,-0.0010,-0.0094,-0.0049,-0.0017,9.6876,-0.0194,1.5509,0.0000,-0.0001,-0.0000,1.0000,0.2422,-0.0005,0.0388
451482,Right,2,-0.0161,0.0116,0.5981,0.8012,-0.0104,0.0048,0.0338,-0.0170,0.1871,-0.0590,-0.1951,-0.0474,9.7534,-0.0001,0.0001,0.0004,1.0000,-0.0049,-0.0012,0.2438
451483,Left,2,0.0820,0.1171,-0.6156,0.7750,0.0112,0.0070,0.0023,-0.0235,-0.0725,-0.0823,-2.6867,-0.2040,9.3503,0.0003,0.0002,0.0001,1.0000,-0.1343,-0.0103,0.4675
451483,Pelvis,2,-0.0799,-0.6442,-0.0927,0.7550,0.0035,-0.0041,-0.0028,-0.0034,-0.0071,-0.0144,9.6760,-0.0199,1.5426,0.0000,-0.0001,-0.0000,1.0000,0.2419,-0.0005,0.0386
451483,Right,2,-0.0161,0.0116,0.5983,0.8010,-0.0099,0.0047,0.0342,-0.0236,0.2001,-0.0228,-0.1850,-0.0380,9.7902,-0.0001,0.0001,0.0004,1.0000,-0.0046,-0.0009,0.2448
451484,Left,2,0.0820,0.1173,-0.6156,0.7749,0.0099,0.0048,0.0024,-0.0308,-0.0769,-0.0957,-2.6824,-0.2145,9.3373,0.0001,0.0001,0.0000,1.0000,-0.0670,-0.0054,0.2334
451484,Pelvis,2,-0.0799,-0.6442,-0.0927,0.7550,0.0039,-0.0036,-0.0012,-0.0181,-0.0116,0.0029,9.6911,-0.0277,1.5584,0.0000,-0.0000,-0.0000,1.0000,0.2423,-0.0007,0.0390
451484,Right,2,-0.0161,0.0116,0.5987,0.8008,-0.0098,0.0052,0.0336,-0.0237,0.1882,-0.0318,-0.1962,-0.0414,9.7806,-0.0001,0.0001,0.0004,1.0000,-0.0049,-0.0010,0.2445
451485,Left,2,0.0820,0.1174,-0.6157,0.7748,0.0104,0.0045,0.0015,-0.0171,-0.0746,-0.0737,-2.6886,-0.2031,9.3587,0.0001,0.0001,0.0000,1.0000,-0.0672,-0.0051,0.2340
451485,Pelvis,2,-0.0799,-0.6442,-0.0927,0.7550,0.0034,-0.0058,-0.0032,0.0130,0.0217,0.0007,9.6924,0.0124,1.5361,0.0000,-0.0001,-0.0000,1.0000,0.2423,0.0003,0.0384
451485,Right,2,-0.0161,0.0117,0.5990,0.8005,-0.0112,0.0031,0.0341,-0.0266,0.2025,-0.0264,-0.1849,-0.0339,9.7866,-0.0001,0.0000,0.0004,1.0000,-0.0046,-0.0008,0.2447
451486,Pelvis,2,-0.0799,-0.6442,-0.0927,0.7550,0.0026,-0.0037,-0.0010,-0.0263,0.0006,-0.0033,9.6833,-0.0174,1.5679,0.0000,-0.0000,-0.0000,1.0000,0.2421,-0.0004,0.0392
451487,Left,2,0.0820,0.1175,-0.6158,0.7748,0.0107,0.0062,0.0026,-0.0159,-0.0668,-0.0817,-2.6954,-0.1995,9.3484,0.0003,0.0002,0.0001,1.0000,-0.1347,-0.0101,0.4674
451487,Pelvis,2,-0.0799,-0.6442,-0.0927,0.7550,0.0034,-0.0042,0.0001,-0.0088,-0.0015,0.0110,9.7001,-0.0155,1.5529,0.0000,-0.0001,0.0000,1.0000,0.2425,-0.0004,0.0388
451487,Right,2,-0.0162,0.0118,0.5997,0.8000,-0.0097,0.0049,0.0347,-0.0260,0.2030,-0.0436,-0.1849,-0.0338,9.7694,-0.0002,0.0001,0.0009,1.0000,-0.0092,-0.0016,0.4885
451488,Left,2,0.0819,0.1176,-0.6159,0.7747,0.0102,0.0063,0.0021,-0.0098,-0.0776,-0.0850,-2.6835,-0.1996,9.3484,0.0001,0.0001,0.0000,1.0000,-0.0671,-0.0050,0.2337
451488,Pelvis,2,-0.0799,-0.6442,-0.0927,0.7550,0.0032,-0.0042,-0.0010,-0.0115,-0.0014,0.0020,9.6908,-0.0162,1.5541,0.0000,-0.0001,-0.0000,1.0000,0.2423,-0.0004,0.0389
451488,Right,2,-0.0162,0.0118,0.6000,0.7997,-0.0112,0.0037,0.0345,-0.0344,0.2083,-0.0337,-0.1835,-0.0233,9.7795,-0.0001,0.0000,0.0004,1.0000,-0.0046,-0.0006,0.2445
451489,Left,2,0.0820,0.1176,-0.6160,0.7746,0.0108,0.0064,0.0019,-0.0196,-0.0727,-0.0839,-2.6918,-0.2090,9.3469,0.0001,0.0001,0.0000,1.0000,-0.0673,-0.0053,0.2337
451489,Pelvis,2,-0.0799,-0.6442,-0.0927,0.7550,0.0042,-0.0041,-0.0023,-0.0181,-0.0012,-0.0160,9.6721,-0.0175,1.5577,0.0001,-0.0001,-0.0000,1.0000,0.2418,-0.0004,0.0390
451489,Right,2,-0.0163,0.0118,0.6003,0.7995,-0.0104,0.0060,0.0346,-0.0148,0.1977,-0.0354,-0.1899,-0.0469,9.7774,-0.0001,0.0001,0.0004,1.0000,-0.0047,-0.0011,0.2444
451490,Left,2,0.0818,0.1176,-0.6161,0.7745,0.0111,0.0057,0.0023,-0.0165,-0.0674,-0.1008,-2.6894,-0.2070,9.3301,0.0001,0.0001,0.0000,1.0000,-0.0672,-0.0052,0.2333
451490,Pelvis,2,-0.0799,-0.6442,-0.0927,0.7550,0.0033,-0.0048,-0.0004,0.0081,-0.0057,-0.0055,9.6867,-0.0156,1.5331,0.0000,-0.0001,-0.0000,1.0000,0.2422,-0.0004,0.0383
451490,Right,2,-0.0163,0.0119,0.6007,0.7992,-0.0101,0.0040,0.0349,-0.0256,0.2167,-0.0336,-0.1765,-0.0305,9.7799,-0.0001,0.0001,0.0004,1.0000,-0.0044,-0.0007,0.2445
451491,Left,2,0.0818,0.1175,-0.6160,0.7746,0.0129,0.0078,0.0030,-0.0144,-0.0647,-0.0839,-2.6948,-0.2033,9.3462,0.0002,0.0001,0.0000,1.0000,-0.0673,-0.0051,0.2337
451491,Pelvis,2,-0.0799,-0.6442,-0.0927,0.7550,0.0023,-0.0042,-0.0027,-0.0033,-0.0032,-0.0107,9.6796,-0.0159,1.5437,0.0000,-0.0001,-0.0000,1.0000,0.2420,-0.0004,0.0386
451491,Right,2,-0.0164,0.0119,0.6010,0.7990,-0.0100,0.0046,0.0342,-0.0269,0.2048,-0.0427,-0.1875,-0.0339,9.7703,-0.0001,0.0001,0.0004,1.0000,-0.0047,-0.0008,0.2443
451492,Left,2,0.0818,0.1175,-0.6161,0.7745,0.0116,0.0047,0.0013,-0.0177,-0.0774,-0.0898,-2.6816,-0.2085,9.3438,0.0001,0.0001,0.0000,1.0000,-0.0670,-0.0052,0.2336
451492,Pelvis,2,-0.0799,-0.6442,-0.0927,0.7550,0.0026,-0.0037,-0.0010,0.0077,0.0065,0.0063,9.6977,-0.0037,1.5383,0.0000,-0.0000,-0.0000,1.0000,0.2424,-0.0001,0.0385
451492,Right,2,-0.0164,0.0119,0.6013,0.7988,-0.0099,0.0051,0.0335,-0.0223,0.2138,-0.0335,-0.1788,-0.0351,9.7798,-0.0001,0.0001,0.0004,1.0000,-0.0045,-0.0008,0.2445
451493,Pelvis,2,-0.0799,-0.6442,-0.0927,0.7550,0.0022,-0.0047,-0.0032,-0.0120,-0.0099,-0.0061,9.6831,-0.0242,1.5512,0.0000,-0.0001,-0.0000,1.0000,0.2421,-0.0006,0.0388
451493,Right,2,-0.0164,0.0120,0.6016,0.7985,-0.0102,0.0040,0.0348,-0.0216,0.2025,-0.0426,-0.1898,-0.0385,9.7703,-0.0001,0.0000,0.0004,1.0000,-0.0047,-0.0009,0.2443
451494,Pelvis,2,-0.0799,-0.6442,-0.0927,0.7550,0.0044,-0.0041,-0.0012,-0.0000,-0.0026,-0.0107,9.6801,-0.0140,1.5407,0.0001,-0.0001,-0.0000,1.0000,0.2420,-0.0004,0.0385
451494,Right,2,-0.0164,0.0120,0.6020,0.7983,-0.0105,0.0040,0.0332,-0.0205,0.2245,-0.0371,-0.1690,-0.0335,9.7767,-0.0001,0.0000,0.0004,1.0000,-0.0042,-0.0008,0.2444
451495,Left,2,0.0818,0.1175,-0.6163,0.7744,0.0107,0.0057,0.0020,-0.0147,-0.0768,-0.0880,-2.6824,-0.2043,9.3456,0.0004,0.0002,0.0001,1.0000,-0.2010,-0.0156,0.7010
451495,Pelvis,2,-0.0799,-0.6442,-0.0927,0.7550,0.0019,-0.0037,-0.0015,-0.0098,-0.0095,-0.0060,9.6835,-0.0231,1.5492,0.0000,-0.0000,-0.0000,1.0000,0.2421,-0.0006,0.0387
451495,Right,2,-0.0163,0.0121,0.6023,0.7980,-0.0096,0.0057,0.0355,-0.0147,0.1990,-0.0208,-0.1935,-0.0450,9.7919,-0.0001,0.0001,0.0004,1.0000,-0.0048,-0.0011,0.2448
451496,Left,2,0.0817,0.1176,-0.6164,0.7743,0.0112,0.0050,0.0001,-0.0246,-0.0590,-0.0992,-2.6977,-0.2143,9.3291,0.0001,0.0001,0.0000,1.0000,-0.0674,-0.0054,0.2332
451496,Pelvis,2,-0.0799,-0.6442,-0.0927,0.7550,0.0018,-0.0042,-0.0020,-0.0174,-0.0069,-0.0023,9.6859,-0.0224,1.5578,0.0000,-0.0001,-0.0000,1.0000,0.2421,-0.0006,0.0390
451496,Right,2,-0.0163,0.0120,0.6026,0.7978,-0.0101,0.0038,0.0337,-0.0267,0.2035,-0.0371,-0.1903,-0.0331,9.7758,-0.0001,0.0000,0.0004,1.0000,-0.0047,-0.0008,0.2444
451497,Left,2,0.0818,0.1176,-0.6164,0.7743,0.0100,0.0064,0.0015,-0.0109,-0.0700,-0.0949,-2.6869,-0.2035,9.3370,0.0001,0.0001,0.0000,1.0000,-0.0672,-0.0051,0.2334
451497,Pelvis,2,-0.0799,-0.6442,-0.0927,0.7550,0.0026,-0.0037,-0.0010,0.0159,-0.0044,-0.0055,9.6878,-0.0119,1.5261,0.0000,-0.0000,-0.0000,1.0000,0.2422,-0.0003,0.0382
451497,Right,2,-0.0164,0.0120,0.6029,0.7976,-0.0096,0.0050,0.0351,-0.0335,0.2076,-0.0408,-0.1890,-0.0266,9.7723,-0.0001,0.0001,0.0004,1.0000,-0.0047,-0.0006,0.2443
451498,Left,2,0.0818,0.1176,-0.6164,0.7743,0.0110,0.0063,0.0025,-0.0027,-0.0830,-0.0619,-2.6826,-0.1994,9.3727,0.0001,0.0001,0.0000,1.0000,-0.0670,-0.0050,0.2343
451498,Pelvis,2,-0.0799,-0.6442,-0.0927,0.7550,0.0032,-0.0042,-0.0010,-0.0026,-0.0088,0.0029,9.6934,-0.0209,1.5441,0.0000,-0.0001,-0.0000,1.0000,0.2423,-0.0005,0.0386
451498,Right,2,-0.0164,0.0120,0.6032,0.7973,-0.0107,0.0053,0.0352,-0.0263,0.2148,-0.0407,-0.1808,-0.0314,9.7727,-0.0001,0.0001,0.0004,1.0000,-0.0045,-0.0008,0.2443
451499,Left,2,0.0818,0.1176,-0.6165,0.7742,0.0118,0.0074,0.0012,-0.0194,-0.0616,-0.0937,-2.6967,-0.2101,9.3352,0.0001,0.0001,0.0000,1.0000,-0.0674,-0.0053,0.2334
451499,Pelvis,2,-0.0799,-0.6442,-0.0927,0.7550,-0.0001,-0.0043,-0.0024,-0.0092,-0.0087,-0.0150,9.6746,-0.0222,1.5476,-0.0000,-0.0001,-0.0000,1.0000,0.2419,-0.0006,0.0387
451499,Right,2,-0.0164,0.0121,0.6035,0.7971,-0.0125,0.0027,0.0348,-0.0260,0.2040,-0.0190,-0.1927,-0.0334,9.7939,-0.0002,0.0000,0.0004,1.0000,-0.0048,-0.0008,0.2448
451500,Left,2,0.0819,0.1177,-0.6164,0.7743,0.0099,0.0048,0.0024,-0.0157,-0.0752,-0.1114,-2.6809,-0.2081,9.3215,0.0001,0.0001,0.0000,1.0000,-0.0670,-0.0052,0.2330
451500,Pelvis,2,-0.0799,-0.6442,-0.0927,0.7550,0.0038,-0.0047,-0.0010,0.0045,-0.0109,-0.0098,9.6820,-0.0210,1.5347,0.0000,-0.0001,-0.0000,1.0000,0.2420,-0.0005,0.0384
451500,Right,2,-0.0164,0.0121,0.6039,0.7968,-0.0091,0.0047,0.0344,-0.0257,0.2146,-0.0533,-0.1808,-0.0312,9.7600,-0.0001,0.0001,0.0004,1.0000,-0.0045,-0.0008,0.2440
451501,Left,2,0.0819,0.1177,-0.6164,0.7743,0.0106,0.0065,0.0013,-0.0026,-0.0650,-0.0948,-2.6927,-0.1929,9.3356,0.0001,0.0001,0.0000,1.0000,-0.0673,-0.0049,0.2334
451501,Pelvis,2,-0.0799,-0.6442,-0.0927,0.7550,0.0028,-0.0037,0.0001,-0.0074,0.0131,-0.0042,9.6848,-0.0009,1.5527,0.0000,-0.0000,0.0000,1.0000,0.2421,-0.0000,0.0388
451501,Right,2,-0.0163,0.0121,0.6041,0.7966,-0.0090,0.0046,0.0333,-0.0139,0.2057,-0.0278,-0.1859,-0.0439,9.7852,-0.0001,0.0001,0.0004,1.0000,-0.0046,-0.0011,0.2446
451502,Left,2,0.0819,0.1177,-0.6164,0.7743,0.0114,0.0072,0.0020,-0.0116,-0.0797,-0.0890,-2.6822,-0.2059,9.3445,0.0001,0.0001,0.0000,1.0000,-0.0670,-0.0052,0.2336
451502,Pelvis,2,-0.0799,-0.6442,-0.0927,0.7550,0.0035,-0.0041,-0.0028,-0.0124,0.0038,-0.0123,9.6764,-0.0111,1.5540,0.0000,-0.0001,-0.0000,1.0000,0.2419,-0.0003,0.0389
451502,Right,2,-0.0164,0.0120,0.6044,0.7964,-0.0103,0.0039,0.0348,-0.0288,0.2134,-0.0351,-0.1820,-0.0285,9.7782,-0.0001,0.0000,0.0004,1.0000,-0.0045,-0.0007,0.2445
451503,Pelvis,2,-0.0799,-0.6442,-0.0927,0.7550,0.0024,-0.0036,-0.0022,0.0052,0.0016,0.0020,9.6932,-0.0088,1.5391,0.0000,-0.0000,-0.0000,1.0000,0.2423,-0.0002,0.0385
451503,Right,2,-0.0164,0.0121,0.6048,0.7961,-0.0101,0.0050,0.0345,-0.0236,0.2006,-0.0315,-0.1951,-0.0371,9.7812,-0.0001,0.0001,0.0004,1.0000,-0.0049,-0.0009,0.2445
451504,Left,2,0.0820,0.1177,-0.6164,0.7743,0.0110,0.0057,0.0020,-0.0119,-0.0822,-0.0947,-2.6798,-0.2040,9.3393,0.0003,0.0001,0.0001,1.0000,-0.1339,-0.0103,0.4670
451504,Pelvis,2,-0.0799,-0.6442,-0.0928,0.7550,0.0036,-0.0047,-0.0022,-0.0020,-0.0171,-0.0051,9.6859,-0.0285,1.5403,0.0000,-0.0001,-0.0000,1.0000,0.2421,-0.0007,0.0385
451504,Right,2,-0.0165,0.0121,0.6050,0.7959,-0.0109,0.0058,0.0329,-0.0201,0.2097,-0.0224,-0.1865,-0.0386,9.7907,-0.0001,0.0001,0.0004,1.0000,-0.0046,-0.0009,0.2448
451505,Left,2,0.0819,0.1178,-0.6163,0.7743,0.0105,0.0066,0.0034,-0.0042,-0.0745,-0.0890,-2.6866,-0.1977,9.3434,0.0001,0.0001,0.0000,1.0000,-0.0671,-0.0050,0.2336
451505,Pelvis,2,-0.0799,-0.6442,-0.0928,0.7550,0.0021,-0.0037,-0.0004,-0.0025,-0.0075,-0.0150,9.6756,-0.0193,1.5416,0.0000,-0.0000,-0.0000,1.0000,0.2419,-0.0005,0.0386
451505,Right,2,-0.0164,0.0120,0.6053,0.7957,-0.0097,0.0043,0.0346,-0.0336,0.1920,-0.0352,-0.2046,-0.0306,9.7773,-0.0001,0.0001,0.0004,1.0000,-0.0051,-0.0007,0.2444
451506,Pelvis,2,-0.0799,-0.6442,-0.0927,0.7550,0.0033,-0.0037,-0.0005,0.0123,0.0022,0.0110,9.7032,-0.0065,1.5339,0.0000,-0.0000,-0.0000,1.0000,0.2426,-0.0002,0.0384
451506,Right,2,-0.0165,0.0121,0.6057,0.7954,-0.0096,0.0054,0.0343,-0.0125,0.2155,-0.0440,-0.1781,-0.0438,9.7694,-0.0001,0.0001,0.0004,1.0000,-0.0044,-0.0011,0.2442
451507,Left,2,0.0820,0.1179,-0.6164,0.7742,0.0115,0.0065,0.0021,-0.0042,-0.0935,-0.0753,-2.6754,-0.2028,9.3609,0.0003,0.0002,0.0001,1.0000,-0.1337,-0.0103,0.4681
451507,Pelvis,2,-0.0799,-0.6442,-0.0928,0.7550,0.0035,-0.0052,-0.0027,-0.0025,-0.0165,-0.0141,9.6769,-0.0283,1.5396,0.0000,-0.0001,-0.0000,1.0000,0.2419,-0.0007,0.0385
451507,Right,2,-0.0165,0.0121,0.6060,0.7952,-0.0114,0.0048,0.0353,-0.0331,0.2163,-0.0205,-0.1847,-0.0246,9.7928,-0.0001,0.0001,0.0004,1.0000,-0.0046,-0.0006,0.2448
451508,Left,2,0.0820,0.1179,-0.6164,0.7743,0.0106,0.0065,0.0013,0.0059,-0.0620,-0.0944,-2.6966,-0.1857,9.3350,0.0001,0.0001,0.0000,1.0000,-0.0674,-0.0047,0.2334
451508,Pelvis,2,-0.0799,-0.6442,-0.0928,0.7550,0.0024,-0.0048,-0.0020,-0.0176,0.0004,0.0141,9.7018,-0.0154,1.5623,0.0000,-0.0001,-0.0000,1.0000,0.2425,-0.0004,0.0391
451508,Right,2,-0.0165,0.0121,0.6063,0.7950,-0.0092,0.0034,0.0335,-0.0191,0.2191,-0.0385,-0.1773,-0.0364,9.7750,-0.0001,0.0000,0.0004,1.0000,-0.0044,-0.0009,0.2444
451509,Left,2,0.0820,0.1178,-0.6164,0.7743,0.0119,0.0056,0.0007,-0.0094,-0.0930,-0.0945,-2.6712,-0.2068,9.3421,0.0001,0.0001,0.0000,1.0000,-0.0668,-0.0052,0.2336
451509,Pelvis,2,-0.0799,-0.6442,-0.0928,0.7550,0.0035,-0.0035,-0.0035,0.0057,-0.0067,-0.0060,9.6857,-0.0161,1.5351,0.0000,-0.0000,-0.0000,1.0000,0.2421,-0.0004,0.0384
451509,Right,2,-0.0166,0.0122,0.6066,0.7947,-0.0103,0.0037,0.0336,-0.0265,0.2013,-0.0169,-0.1985,-0.0354,9.7958,-0.0001,0.0000,0.0004,1.0000,-0.0050,-0.0009,0.2449
451510,Left,2,0.0821,0.1178,-0.6163,0.7743,0.0109,0.0058,0.0017,-0.0116,-0.0780,-0.0937,-2.6860,-0.2041,9.3386,0.0001,0.0001,0.0000,1.0000,-0.0671,-0.0051,0.2335
451510,Pelvis,2,-0.0799,-0.6442,-0.0928,0.7550,0.0014,-0.0054,-0.0001,-0.0057,-0.0041,-0.0113,9.6787,-0.0163,1.5458,0.0000,-0.0001,-0.0000,1.0000,0.2420,-0.0004,0.0387
451510,Right,2,-0.0165,0.0122,0.6069,0.7945,-0.0113,0.0040,0.0337,-0.0115,0.2159,-0.0475,-0.1797,-0.0445,9.7658,-0.0001,0.0001,0.0004,1.0000,-0.0045,-0.0011,0.2441
451511,Left,2,0.0821,0.1178,-0.6163,0.7743,0.0099,0.0065,0.0009,-0.0232,-0.0733,-0.0925,-2.6943,-0.2136,9.3372,0.0001,0.0001,0.0000,1.0000,-0.0673,-0.0054,0.2334
451511,Pelvis,2,-0.0799,-0.6441,-0.0926,0.7551,0.0031,-0.0047,-0.0015,0.0097,-0.0021,0.0156,9.7073,-0.0132,1.5377,0.0000,-0.0001,-0.0000,1.0000,0.2427,-0.0003,0.0385
451511,Right,2,-0.0166,0.0122,0.6072,0.7943,-0.0113,0.0053,0.0346,-0.0162,0.2175,-0.0294,-0.1798,-0.0403,9.7840,-0.0001,0.0001,0.0004,1.0000,-0.0045,-0.0010,0.2446
451512,Pelvis,2,-0.0799,-0.6441,-0.0926,0.7551,0.0030,-0.0042,-0.0022,-0.0181,0.0029,-0.0038,9.6836,-0.0151,1.5625,0.0000,-0.0001,-0.0000,1.0000,0.2421,-0.0004,0.0391
451512,Right,2,-0.0166,0.0122,0.6075,0.7941,-0.0103,0.0043,0.0340,-0.0281,0.2126,-0.0331,-0.1879,-0.0314,9.7801,-0.0001,0.0001,0.0004,1.0000,-0.0047,-0.0008,0.2445
451513,Left,2,0.0822,0.1178,-0.6163,0.7743,0.0105,0.0060,0.0019,-0.0161,-0.0769,-0.0903,-2.6903,-0.2057,9.3408,0.0003,0.0002,0.0000,1.0000,-0.1344,-0.0104,0.4671
451513,Pelvis,2,-0.0799,-0.6441,-0.0926,0.7551,0.0021,-0.0037,-0.0004,-0.0170,0.0031,-0.0038,9.6838,-0.0146,1.5615,0.0000,-0.0000,-0.0000,1.0000,0.2421,-0.0004,0.0390
451513,Right,2,-0.0165,0.0122,0.6078,0.7938,-0.0115,0.0041,0.0348,-0.0097,0.2014,-0.0475,-0.1926,-0.0495,9.7653,-0.0001,0.0001,0.0004,1.0000,-0.0048,-0.0012,0.2441
451514,Left,2,0.0821,0.1178,-0.6163,0.7743,0.0098,0.0054,0.0026,-0.0145,-0.0803,-0.0932,-2.6851,-0.2059,9.3393,0.0001,0.0001,0.0000,1.0000,-0.0671,-0.0052,0.2335
451514,Pelvis,2,-0.0799,-0.6441,-0.0926,0.7551,0.0032,-0.0042,-0.0010,0.0054,-0.0015,-0.0023,9.6889,-0.0139,1.5393,0.0000,-0.0001,-0.0000,1.0000,0.2422,-0.0004,0.0385
451514,Right,2,-0.0165,0.0123,0.6081,0.7936,-0.0103,0.0049,0.0344,-0.0259,0.2118,-0.0457,-0.1880,-0.0310,9.7675,-0.0001,0.0001,0.0004,1.0000,-0.0047,-0.0007,0.2442
451515,Pelvis,2,-0.0799,-0.6441,-0.0925,0.7551,0.0037,-0.0053,-0.0015,-0.0038,0.0106,-0.0085,9.6809,-0.0044,1.5499,0.0000,-0.0001,-0.0000,1.0000,0.2420,-0.0001,0.0388
451515,Right,2,-0.0166,0.0123,0.6084,0.7933,-0.0103,0.0042,0.0340,-0.0223,0.2215,-0.0365,-0.1792,-0.0326,9.7770,-0.0001,0.0001,0.0004,1.0000,-0.0045,-0.0008,0.2444
451516,Left,2,0.0821,0.1178,-0.6163,0.7743,0.0110,0.0060,0.0024,-0.0089,-0.0816,-0.0963,-2.6831,-0.2001,9.3368,0.0003,0.0001,0.0001,1.0000,-0.1341,-0.0101,0.4669
451516,Pelvis,2,-0.0799,-0.6441,-0.0925,0.7551,0.0026,-0.0037,-0.0010,-0.0071,-0.0081,-0.0066,9.6830,-0.0234,1.5488,0.0000,-0.0000,-0.0000,1.0000,0.2421,-0.0006,0.0387
451516,Right,2,-0.0167,0.0123,0.6087,0.7931,-0.0103,0.0049,0.0344,-0.0183,0.2086,-0.0329,-0.1923,-0.0411,9.7800,-0.0001,0.0001,0.0004,1.0000,-0.0048,-0.0010,0.2445
451517,Left,2,0.0822,0.1178,-0.6162,0.7743,0.0119,0.0056,0.0007,-0.0111,-0.0825,-0.1045,-2.6799,-0.2023,9.3291,0.0001,0.0001,0.0000,1.0000,-0.0670,-0.0051,0.2332
451517,Pelvis,2,-0.0799,-0.6441,-0.0926,0.7551,0.0032,-0.0046,-0.0045,-0.0077,0.0015,-0.0165,9.6727,-0.0139,1.5501,0.0000,-0.0001,-0.0001,1.0000,0.2418,-0.0004,0.0388
451517,Right,2,-0.0167,0.0124,0.6090,0.7929,-0.0104,0.0036,0.0335,-0.0136,0.2184,-0.0238,-0.1835,-0.0427,9.7895,-0.0001,0.0000,0.0004,1.0000,-0.0046,-0.0010,0.2447
451518,Pelvis,2,-0.0799,-0.6441,-0.0926,0.7551,0.0029,-0.0026,-0.0000,0.0012,0.0018,0.0014,9.6918,-0.0113,1.5447,0.0000,-0.0000,-0.0000,1.0000,0.2423,-0.0003,0.0386
451518,Right,2,-0.0167,0.0123,0.6093,0.7927,-0.0109,0.0051,0.0350,-0.0345,0.2181,-0.0528,-0.1872,-0.0230,9.7605,-0.0001,0.0001,0.0004,1.0000,-0.0047,-0.0005,0.2440
451519,Left,2,0.0822,0.1178,-0.6163,0.7743,0.0113,0.0057,0.0022,-0.0211,-0.0920,-0.0898,-2.6785,-0.2133,9.3447,0.0003,0.0001,0.0001,1.0000,-0.1339,-0.0108,0.4672
451519,Pelvis,2,-0.0799,-0.6441,-0.0925,0.7551,0.0050,-0.0047,-0.0012,0.0110,-0.0004,-0.0023,9.6896,-0.0113,1.5343,0.0001,-0.0001,-0.0000,1.0000,0.2422,-0.0003,0.0384
451519,Right,2,-0.0168,0.0123,0.6096,0.7924,-0.0090,0.0044,0.0359,-0.0223,0.2330,-0.0309,-0.1711,-0.0325,9.7830,-0.0001,0.0001,0.0004,1.0000,-0.0043,-0.0008,0.2446
451520,Left,2,0.0822,0.1178,-0.6163,0.7743,0.0120,0.0062,0.0035,-0.0247,-0.0832,-0.0861,-2.6880,-0.2168,9.3457,0.0001,0.0001,0.0000,1.0000,-0.0672,-0.0055,0.2336
451520,Pelvis,2,-0.0799,-0.6441,-0.0925,0.7551,0.0027,-0.0043,-0.0004,-0.0026,-0.0073,-0.0066,9.6836,-0.0214,1.5450,0.0000,-0.0001,-0.0000,1.0000,0.2421,-0.0005,0.0386
451520,Right,2,-0.0168,0.0123,0.6099,0.7922,-0.0119,0.0054,0.0351,-0.0255,0.2239,-0.0309,-0.1818,-0.0323,9.7826,-0.0001,0.0001,0.0004,1.0000,-0.0045,-0.0008,0.2446
451521,Left,2,0.0822,0.1178,-0.6163,0.7743,0.0112,0.0062,0.0031,0.0041,-0.0888,-0.0884,-2.6759,-0.1899,9.3474,0.0001,0.0001,0.0000,1.0000,-0.0669,-0.0048,0.2337
451521,Pelvis,2,-0.0799,-0.6441,-0.0925,0.7551,0.0027,-0.0026,-0.0012,-0.0015,-0.0071,-0.0066,9.6837,-0.0211,1.5442,0.0000,-0.0000,-0.0000,1.0000,0.2421,-0.0005,0.0386
451521,Right,2,-0.0169,0.0124,0.6102,0.7920,-0.0099,0.0047,0.0349,-0.0189,0.2326,-0.0309,-0.1736,-0.0374,9.7830,-0.0001,0.0001,0.0004,1.0000,-0.0043,-0.0009,0.2446
451522,Left,2,0.0822,0.1178,-0.6163,0.7743,0.0122,0.0048,0.0011,-0.0065,-0.0833,-0.0872,-2.6840,-0.1991,9.3461,0.0002,0.0001,0.0000,1.0000,-0.0671,-0.0050,0.2337
451522,Pelvis,2,-0.0799,-0.6441,-0.0925,0.7551,0.0036,-0.0047,-0.0022,0.0018,0.0026,-0.0075,9.6829,-0.0108,1.5433,0.0000,-0.0001,-0.0000,1.0000,0.2421,-0.0003,0.0386
451522,Right,2,-0.0170,0.0124,0.6105,0.7917,-0.0095,0.0039,0.0349,-0.0236,0.2356,-0.0127,-0.1736,-0.0329,9.8012,-0.0001,0.0000,0.0004,1.0000,-0.0043,-0.0008,0.2450
451523,Left,2,0.0821,0.1179,-0.6164,0.7743,0.0101,0.0075,0.0024,0.0054,-0.0784,-0.0821,-2.6867,-0.1881,9.3508,0.0001,0.0001,0.0000,1.0000,-0.0671,-0.0047,0.2338
451523,Pelvis,2,-0.0799,-0.6441,-0.0925,0.7551,0.0026,-0.0031,-0.0017,-0.0080,-0.0043,-0.0028,9.6863,-0.0197,1.5519,0.0000,-0.0000,-0.0000,1.0000,0.2422,-0.0005,0.0388
451523,Right,2,-0.0169,0.0125,0.6108,0.7915,-0.0104,0.0041,0.0339,-0.0077,0.2268,-0.0489,-0.1768,-0.0487,9.7647,-0.0001,0.0001,0.0004,1.0000,-0.0044,-0.0012,0.2441
451524,Left,2,0.0821,0.1178,-0.6163,0.7743,0.0118,0.0068,0.0011,-0.0151,-0.0944,-0.0981,-2.6711,-0.2101,9.3383,0.0001,0.0001,0.0000,1.0000,-0.0668,-0.0053,0.2335
451524,Pelvis,2,-0.0799,-0.6441,-0.0926,0.7551,0.0024,-0.0036,-0.0022,0.0166,0.0006,-0.0023,9.6904,-0.0090,1.5298,0.0000,-0.0000,-0.0000,1.0000,0.2423,-0.0002,0.0383
451524,Right,2,-0.0170,0.0124,0.6111,0.7913,-0.0093,0.0057,0.0351,-0.0394,0.2222,-0.0382,-0.1904,-0.0213,9.7752,-0.0001,0.0001,0.0004,1.0000,-0.0047,-0.0005,0.2444
451525,Left,2,0.0822,0.1178,-0.6163,0.7743,0.0117,0.0069,0.0031,-0.0312,-0.0742,-0.1130,-2.6891,-0.2201,9.3173,0.0001,0.0001,0.0000,1.0000,-0.0672,-0.0055,0.2329
451525,Pelvis,2,-0.0798,-0.6441,-0.0926,0.7551,0.0034,-0.0047,-0.0033,-0.0096,-0.0039,-0.0118,9.6772,-0.0193,1.5523,0.0000,-0.0001,-0.0000,1.0000,0.2419,-0.0005,0.0388
451525,Right,2,-0.0171,0.0125,0.6114,0.7911,-0.0103,0.0047,0.0332,-0.0253,0.2264,-0.0345,-0.1850,-0.0350,9.7790,-0.0001,0.0001,0.0004,1.0000,-0.0046,-0.0008,0.2445
451526,Left,2,0.0821,0.1179,-0.6163,0.7743,0.0105,0.0060,0.0006,-0.0041,-0.0964,-0.1043,-2.6662,-0.2007,9.3334,0.0001,0.0001,0.0000,1.0000,-0.0666,-0.0050,0.2333
451526,Pelvis,2,-0.0799,-0.6441,-0.0925,0.7551,0.0035,-0.0031,0.0000,-0.0133,-0.0012,0.0009,9.6890,-0.0176,1.5586,0.0000,-0.0000,0.0000,1.0000,0.2422,-0.0004,0.0390
451526,Right,2,-0.0172,0.0126,0.6117,0.7908,-0.0095,0.0045,0.0353,-0.0341,0.2329,-0.0290,-0.1829,-0.0251,9.7847,-0.0001,0.0001,0.0004,1.0000,-0.0046,-0.0006,0.2446
451527,Pelvis,2,-0.0798,-0.6441,-0.0925,0.7551,0.0037,-0.0041,-0.0017,0.0113,0.0036,0.0014,9.6931,-0.0071,1.5364,0.0000,-0.0001,-0.0000,1.0000,0.2423,-0.0002,0.0384
451527,Right,2,-0.0173,0.0126,0.6120,0.7906,-0.0098,0.0052,0.0342,-0.0243,0.2387,-0.0380,-0.1753,-0.0334,9.7760,-0.0001,0.0001,0.0004,1.0000,-0.0044,-0.0008,0.2444
451528,Pelvis,2,-0.0799,-0.6441,-0.0925,0.7551,0.0027,-0.0043,-0.0004,-0.0045,-0.0127,-0.0019,9.6880,-0.0269,1.5472,0.0000,-0.0001,-0.0000,1.0000,0.2422,-0.0007,0.0387
451528,Right,2,-0.0173,0.0125,0.6123,0.7904,-0.0100,0.0040,0.0344,-0.0246,0.2266,-0.0254,-0.1879,-0.0383,9.7881,-0.0001,0.0000,0.0004,1.0000,-0.0047,-0.0009,0.2447
451529,Left,2,0.0822,0.1180,-0.6163,0.7742,0.0114,0.0052,0.0025,-0.0179,-0.0764,-0.0946,-2.6930,-0.2083,9.3355,0.0004,0.0002,0.0001,1.0000,-0.2018,-0.0159,0.7002
451529,Pelvis,2,-0.0799,-0.6441,-0.0925,0.7551,0.0030,-0.0042,-0.0022,-0.0012,-0.0030,-0.0028,9.6872,-0.0167,1.5462,0.0000,-0.0001,-0.0000,1.0000,0.2422,-0.0004,0.0387
451529,Right,2,-0.0173,0.0125,0.6126,0.7901,-0.0099,0.0032,0.0328,-0.0222,0.2241,-0.0253,-0.1888,-0.0406,9.7880,-0.0001,0.0000,0.0004,1.0000,-0.0047,-0.0010,0.2447
