PacketId,Role,StatusWord,Qx,Qy,Qz,Qw,Gx,Gy,Gz,FreeAx,FreeAy,FreeAz,Ax,Ay,Az,DQx,DQy,DQz,DQw,DVx,DVy,DVz
535,Right,0,-0.0083,0.0109,0.4841,0.8749,0.0024,0.0031,0.0037,0.0000,0.0000,-0.0825,-0.2648,-0.0383,9.7265,0.0000,0.0000,0.0000,1.0000,-0.0066,-0.0010,0.2432
535,Pelvis,0,-0.1201,-0.6464,-0.1428,0.7398,0.0024,0.0006,0.0018,-0.0000,-0.0000,-0.0053,9.7168,0.0678,1.3283,0.0000,0.0000,0.0000,1.0000,0.2429,0.0017,0.0332
536,Right,0,-0.0083,0.0110,0.4841,0.8749,0.0012,0.0031,0.0043,-0.0060,-0.0083,-0.0724,-0.2753,-0.0378,9.7363,0.0000,0.0000,0.0001,1.0000,-0.0069,-0.0009,0.2434
536,Left,0,0.0062,0.0136,-0.3577,0.9337,0.0116,0.0021,0.0064,-0.0000,-0.0000,9.5904,-0.2890,0.0205,9.6972,0.0003,0.0001,0.0002,1.0000,-0.0144,0.0009,0.4849
536,Pelvis,0,-0.1201,-0.6464,-0.1428,0.7398,0.0012,0.0006,0.0018,-0.0063,-0.0083,-0.0247,9.6972,0.0576,1.3285,0.0000,0.0000,0.0000,1.0000,0.2424,0.0014,0.0332
537,Right,0,-0.0083,0.0110,0.4842,0.8749,0.0018,0.0031,0.0037,-0.0112,-0.0164,-0.0722,-0.2858,-0.0374,9.7363,0.0000,0.0000,0.0000,1.0000,-0.0071,-0.0009,0.2434
537,Left,0,0.0063,0.0135,-0.3576,0.9337,0.0134,0.0018,0.0067,-0.0041,0.0048,-0.1208,-0.2947,0.0201,9.6874,0.0002,0.0000,0.0001,1.0000,-0.0074,0.0005,0.2422
537,Pelvis,0,-0.1200,-0.6464,-0.1428,0.7399,0.0031,0.0024,0.0018,-0.0041,-0.0108,-0.0054,9.7167,0.0573,1.3289,0.0000,0.0000,0.0000,1.0000,0.2429,0.0014,0.0332
538,Right,0,-0.0083,0.0111,0.4842,0.8748,0.0024,0.0037,0.0037,-0.0008,0.0002,-0.0727,-0.2671,-0.0369,9.7362,0.0000,0.0000,0.0000,1.0000,-0.0067,-0.0009,0.2434
538,Left,0,0.0065,0.0135,-0.3576,0.9338,0.0128,0.0024,0.0067,0.0095,0.0055,-0.1210,-0.2854,0.0331,9.6874,0.0002,0.0000,0.0001,1.0000,-0.0071,0.0008,0.2422
538,Pelvis,0,-0.1200,-0.6464,-0.1427,0.7399,0.0018,0.0012,0.0012,0.0073,-0.0049,-0.0163,9.7069,0.0667,1.3195,0.0000,0.0000,0.0000,1.0000,0.2427,0.0017,0.0330
539,Right,0,-0.0083,0.0111,0.4843,0.8748,0.0012,0.0043,0.0043,-0.0007,0.0005,-0.0629,-0.2681,-0.0364,9.7460,0.0000,0.0001,0.0001,1.0000,-0.0067,-0.0009,0.2436
539,Pelvis,0,-0.1199,-0.6464,-0.1428,0.7399,0.0024,-0.0006,0.0018,-0.0085,-0.0008,0.0057,9.7264,0.0664,1.3391,0.0000,-0.0000,0.0000,1.0000,0.2432,0.0017,0.0335
540,Right,0,-0.0083,0.0112,0.4843,0.8748,0.0024,0.0037,0.0055,-0.0141,-0.0026,-0.0627,-0.2788,-0.0261,9.7460,0.0000,0.0000,0.0001,1.0000,-0.0070,-0.0007,0.2436
540,Left,0,0.0068,0.0134,-0.3574,0.9338,0.0116,0.0009,0.0067,-0.0110,0.0042,-0.1109,-0.3006,0.0229,9.6972,0.0003,0.0000,0.0002,1.0000,-0.0150,0.0010,0.4849
540,Pelvis,0,-0.1198,-0.6464,-0.1428,0.7399,0.0024,0.0012,0.0006,0.0251,-0.0148,-0.0190,9.7069,0.0662,1.3001,0.0000,0.0000,0.0000,1.0000,0.2427,0.0017,0.0325
541,Left,0,0.0069,0.0134,-0.3573,0.9339,0.0134,0.0012,0.0079,-0.0098,-0.0165,-0.1113,-0.2863,0.0128,9.6972,0.0002,0.0000,0.0001,1.0000,-0.0072,0.0003,0.2424
541,Pelvis,0,-0.1198,-0.6464,-0.1428,0.7399,0.0012,0.0012,0.0018,-0.0075,0.0069,-0.0136,9.7068,0.0758,1.3395,0.0000,0.0000,0.0000,1.0000,0.2427,0.0019,0.0335
542,Right,0,-0.0083,0.0113,0.4844,0.8747,0.0027,0.0040,0.0043,-0.0141,-0.0026,-0.0627,-0.2802,-0.0251,9.7459,0.0001,0.0001,0.0001,1.0000,-0.0140,-0.0013,0.4873
542,Left,0,0.0071,0.0133,-0.3572,0.9339,0.0116,0.0018,0.0067,-0.0103,-0.0029,-0.1012,-0.2964,0.0257,9.7069,0.0001,0.0000,0.0001,1.0000,-0.0074,0.0006,0.2427
542,Pelvis,0,-0.1197,-0.6463,-0.1428,0.7399,0.0024,0.0018,0.0012,-0.0010,-0.0069,-0.0053,9.7165,0.0657,1.3301,0.0000,0.0000,0.0000,1.0000,0.2429,0.0016,0.0332
543,Right,0,-0.0083,0.0114,0.4845,0.8747,0.0024,0.0043,0.0043,-0.0002,0.0008,-0.0532,-0.2720,-0.0339,9.7557,0.0000,0.0001,0.0001,1.0000,-0.0068,-0.0009,0.2439
543,Left,0,0.0073,0.0133,-0.3572,0.9339,0.0128,0.0030,0.0055,-0.0307,-0.0107,-0.1107,-0.3068,0.0091,9.6972,0.0002,0.0000,0.0001,1.0000,-0.0077,0.0002,0.2424
543,Pelvis,0,-0.1197,-0.6463,-0.1427,0.7400,0.0024,0.0006,0.0012,-0.0136,-0.0130,-0.0041,9.7165,0.0557,1.3402,0.0000,0.0000,0.0000,1.0000,0.2429,0.0014,0.0335
544,Right,0,-0.0083,0.0115,0.4845,0.8747,0.0018,0.0037,0.0037,-0.0054,-0.0077,-0.0627,-0.2827,-0.0333,9.7459,0.0000,0.0000,0.0000,1.0000,-0.0071,-0.0008,0.2436
544,Left,0,0.0074,0.0133,-0.3571,0.9339,0.0110,0.0024,0.0067,-0.0095,-0.0164,-0.1113,-0.2879,0.0218,9.6971,0.0001,0.0000,0.0001,1.0000,-0.0072,0.0005,0.2424
544,Pelvis,0,-0.1196,-0.6463,-0.1427,0.7400,0.0024,0.0006,0.0018,0.0204,-0.0070,-0.0079,9.7165,0.0749,1.3110,0.0000,0.0000,0.0000,1.0000,0.2429,0.0019,0.0328
545,Right,0,-0.0083,0.0115,0.4845,0.8747,0.0024,0.0049,0.0043,-0.0187,-0.0107,-0.0625,-0.2935,-0.0230,9.7458,0.0000,0.0001,0.0001,1.0000,-0.0073,-0.0006,0.2436
545,Left,0,0.0075,0.0133,-0.3570,0.9340,0.0110,0.0018,0.0061,-0.0032,-0.0086,-0.1308,-0.2884,0.0342,9.6775,0.0001,0.0000,0.0001,1.0000,-0.0072,0.0008,0.2419
545,Pelvis,0,-0.1196,-0.6463,-0.1427,0.7400,0.0031,0.0012,0.0006,0.0169,-0.0158,-0.0080,9.7165,0.0650,1.3112,0.0000,0.0000,0.0000,1.0000,0.2429,0.0016,0.0328
546,Left,0,0.0077,0.0132,-0.3570,0.9340,0.0134,0.0012,0.0061,-0.0292,-0.0243,-0.1013,-0.2986,0.0080,9.7069,0.0002,0.0000,0.0001,1.0000,-0.0075,0.0002,0.2427
546,Pelvis,0,-0.1195,-0.6463,-0.1427,0.7400,0.0018,0.0012,0.0006,-0.0047,-0.0193,-0.0054,9.7164,0.0551,1.3311,0.0000,0.0000,0.0000,1.0000,0.2429,0.0014,0.0333
547,Right,0,-0.0083,0.0116,0.4846,0.8746,0.0012,0.0043,0.0046,-0.0025,-0.0036,-0.0726,-0.2805,-0.0321,9.7360,0.0000,0.0001,0.0001,1.0000,-0.0140,-0.0016,0.4868
547,Left,0,0.0078,0.0132,-0.3569,0.9340,0.0122,0.0018,0.0055,-0.0081,-0.0164,-0.0820,-0.2892,0.0308,9.7263,0.0002,0.0000,0.0001,1.0000,-0.0072,0.0007,0.2432
547,Pelvis,0,-0.1195,-0.6463,-0.1427,0.7400,0.0006,0.0012,0.0012,-0.0010,-0.0100,-0.0053,9.7164,0.0647,1.3313,0.0000,0.0000,0.0000,1.0000,0.2429,0.0016,0.0333
548,Right,0,-0.0083,0.0117,0.4847,0.8746,0.0024,0.0024,0.0043,0.0091,-0.0039,-0.0531,-0.2770,-0.0413,9.7555,0.0000,0.0000,0.0001,1.0000,-0.0069,-0.0010,0.2439
548,Left,0,0.0079,0.0132,-0.3568,0.9340,0.0110,0.0012,0.0067,-0.0208,-0.0306,-0.0820,-0.2896,0.0141,9.7264,0.0001,0.0000,0.0001,1.0000,-0.0072,0.0003,0.2432
548,Pelvis,0,-0.1195,-0.6463,-0.1426,0.7400,0.0037,0.0012,0.0031,0.0151,-0.0164,-0.0176,9.7066,0.0643,1.3121,0.0000,0.0000,0.0000,1.0000,0.2427,0.0016,0.0328
549,Right,0,-0.0083,0.0118,0.4847,0.8745,0.0037,0.0037,0.0043,0.0007,0.0010,-0.0727,-0.2777,-0.0307,9.7360,0.0000,0.0000,0.0001,1.0000,-0.0069,-0.0008,0.2434
549,Left,0,0.0080,0.0132,-0.3568,0.9341,0.0116,0.0018,0.0061,-0.0204,-0.0299,-0.0918,-0.2900,0.0169,9.7166,0.0001,0.0000,0.0001,1.0000,-0.0072,0.0004,0.2429
549,Pelvis,0,-0.1194,-0.6463,-0.1426,0.7400,0.0024,0.0000,0.0018,-0.0110,-0.0078,-0.0040,9.7163,0.0638,1.3415,0.0000,0.0000,0.0000,1.0000,0.2429,0.0016,0.0335
550,Right,0,-0.0083,0.0118,0.4848,0.8745,0.0018,0.0031,0.0043,0.0007,0.0010,-0.0825,-0.2785,-0.0301,9.7262,0.0000,0.0000,0.0001,1.0000,-0.0070,-0.0008,0.2432
550,Pelvis,0,-0.1194,-0.6463,-0.1426,0.7400,0.0024,0.0012,0.0012,0.0088,-0.0050,-0.0162,9.7066,0.0733,1.3221,0.0000,0.0000,0.0000,1.0000,0.2427,0.0018,0.0330
551,Right,0,-0.0083,0.0119,0.4848,0.8745,0.0024,0.0043,0.0049,0.0009,0.0015,-0.0629,-0.2794,-0.0295,9.7457,0.0000,0.0001,0.0001,1.0000,-0.0070,-0.0007,0.2436
551,Left,0,0.0083,0.0131,-0.3566,0.9341,0.0128,0.0015,0.0067,-0.0270,-0.0296,-0.1014,-0.2954,0.0165,9.7069,0.0003,0.0000,0.0002,1.0000,-0.0148,0.0007,0.4853
551,Pelvis,0,-0.1194,-0.6463,-0.1425,0.7401,0.0031,0.0006,0.0018,0.0144,-0.0176,-0.0176,9.7065,0.0632,1.3126,0.0000,0.0000,0.0000,1.0000,0.2427,0.0016,0.0328
552,Right,0,-0.0083,0.0119,0.4849,0.8745,0.0024,0.0031,0.0049,0.0277,0.0076,-0.0634,-0.2608,-0.0484,9.7457,0.0000,0.0000,0.0001,1.0000,-0.0065,-0.0012,0.2436
552,Left,0,0.0083,0.0131,-0.3565,0.9342,0.0116,0.0031,0.0061,-0.0250,-0.0348,-0.0918,-0.2913,0.0163,9.7166,0.0001,0.0000,0.0001,1.0000,-0.0073,0.0004,0.2429
552,Pelvis,0,-0.1193,-0.6463,-0.1425,0.7401,0.0018,0.0018,0.0012,0.0005,-0.0021,-0.0052,9.7163,0.0727,1.3324,0.0000,0.0000,0.0000,1.0000,0.2429,0.0018,0.0333
553,Right,0,-0.0083,0.0120,0.4849,0.8744,0.0024,0.0037,0.0043,0.0088,-0.0040,-0.0824,-0.2811,-0.0380,9.7261,0.0000,0.0000,0.0001,1.0000,-0.0070,-0.0010,0.2432
553,Left,0,0.0084,0.0131,-0.3565,0.9342,0.0116,0.0024,0.0073,-0.0243,-0.0338,-0.1015,-0.2920,0.0191,9.7068,0.0001,0.0000,0.0001,1.0000,-0.0073,0.0004,0.2427
554,Right,0,-0.0083,0.0120,0.4850,0.8744,0.0018,0.0024,0.0043,0.0008,0.0019,-0.0532,-0.2819,-0.0277,9.7554,0.0000,0.0000,0.0001,1.0000,-0.0070,-0.0007,0.2439
554,Pelvis,0,-0.1193,-0.6463,-0.1424,0.7401,0.0021,0.0018,0.0009,0.0023,-0.0121,-0.0108,9.7113,0.0627,1.3282,0.0001,0.0000,0.0000,1.0000,0.4856,0.0031,0.0664
555,Right,0,-0.0083,0.0121,0.4850,0.8744,0.0024,0.0043,0.0031,0.0035,-0.0126,-0.0919,-0.2924,-0.0369,9.7163,0.0000,0.0001,0.0000,1.0000,-0.0073,-0.0009,0.2429
555,Left,0,0.0087,0.0131,-0.3563,0.9342,0.0122,0.0012,0.0061,-0.0302,-0.0332,-0.0965,-0.2975,0.0187,9.7117,0.0003,0.0000,0.0002,1.0000,-0.0149,0.0008,0.4856
555,Pelvis,0,-0.1193,-0.6463,-0.1424,0.7402,0.0024,0.0006,0.0031,-0.0030,-0.0099,-0.0150,9.7063,0.0622,1.3336,0.0000,0.0000,0.0000,1.0000,0.2427,0.0016,0.0333
556,Right,0,-0.0083,0.0122,0.4851,0.8744,0.0030,0.0018,0.0049,0.0115,0.0188,-0.0440,-0.2640,-0.0265,9.7652,0.0000,0.0000,0.0001,1.0000,-0.0066,-0.0007,0.2441
556,Left,0,0.0087,0.0131,-0.3562,0.9343,0.0128,0.0006,0.0073,-0.0208,-0.0446,-0.1018,-0.2832,0.0183,9.7069,0.0002,0.0000,0.0001,1.0000,-0.0071,0.0004,0.2427
556,Pelvis,0,-0.1193,-0.6463,-0.1423,0.7402,0.0006,0.0018,0.0024,0.0105,-0.0047,-0.0066,9.7161,0.0713,1.3241,0.0000,0.0000,0.0000,1.0000,0.2429,0.0018,0.0331
557,Right,0,-0.0083,0.0122,0.4851,0.8743,0.0018,0.0043,0.0049,0.0139,0.0044,-0.0729,-0.2744,-0.0356,9.7358,0.0000,0.0001,0.0001,1.0000,-0.0068,-0.0009,0.2434
557,Left,0,0.0087,0.0131,-0.3561,0.9343,0.0122,0.0012,0.0079,-0.0269,-0.0370,-0.0820,-0.2932,0.0216,9.7264,0.0002,0.0000,0.0001,1.0000,-0.0073,0.0005,0.2432
557,Pelvis,0,-0.1193,-0.6463,-0.1423,0.7402,0.0031,-0.0006,0.0012,0.0071,-0.0137,-0.0066,9.7160,0.0612,1.3243,0.0000,-0.0000,0.0000,1.0000,0.2429,0.0015,0.0331
558,Right,0,-0.0083,0.0122,0.4852,0.8743,0.0024,0.0024,0.0043,0.0058,0.0096,-0.0730,-0.2752,-0.0253,9.7358,0.0000,0.0000,0.0001,1.0000,-0.0069,-0.0006,0.2434
558,Pelvis,0,-0.1193,-0.6462,-0.1423,0.7402,0.0012,0.0018,0.0012,0.0059,-0.0130,-0.0163,9.7063,0.0610,1.3244,0.0000,0.0000,0.0000,1.0000,0.2427,0.0015,0.0331
559,Right,0,-0.0083,0.0123,0.4852,0.8743,0.0024,0.0031,0.0043,0.0051,0.0093,-0.0925,-0.2759,-0.0247,9.7162,0.0000,0.0000,0.0001,1.0000,-0.0069,-0.0006,0.2429
559,Left,0,0.0090,0.0130,-0.3560,0.9344,0.0113,0.0018,0.0067,-0.0297,-0.0391,-0.1064,-0.2938,0.0208,9.7020,0.0003,0.0000,0.0002,1.0000,-0.0147,0.0009,0.4851
559,Pelvis,0,-0.1192,-0.6463,-0.1422,0.7402,0.0024,0.0000,0.0018,0.0013,-0.0237,-0.0164,9.7062,0.0509,1.3247,0.0000,0.0000,0.0000,1.0000,0.2427,0.0013,0.0331
560,Right,0,-0.0083,0.0123,0.4853,0.8742,0.0018,0.0037,0.0043,0.0106,0.0182,-0.0635,-0.2670,-0.0241,9.7455,0.0000,0.0000,0.0001,1.0000,-0.0067,-0.0006,0.2436
560,Left,0,0.0089,0.0130,-0.3559,0.9344,0.0122,0.0006,0.0073,-0.0310,-0.0400,-0.1112,-0.2943,0.0202,9.6971,0.0002,0.0000,0.0001,1.0000,-0.0074,0.0005,0.2424
560,Pelvis,0,-0.1192,-0.6463,-0.1422,0.7402,0.0024,0.0012,0.0018,-0.0092,0.0017,-0.0136,9.7062,0.0701,1.3443,0.0000,0.0000,0.0000,1.0000,0.2427,0.0018,0.0336
561,Right,0,-0.0083,0.0123,0.4853,0.8742,0.0024,0.0031,0.0055,0.0133,0.0046,-0.0534,-0.2776,-0.0333,9.7553,0.0000,0.0000,0.0001,1.0000,-0.0069,-0.0008,0.2439
561,Left,0,0.0090,0.0130,-0.3558,0.9344,0.0122,0.0000,0.0067,-0.0365,-0.0459,-0.1015,-0.2944,0.0135,9.7069,0.0002,0.0000,0.0001,1.0000,-0.0074,0.0003,0.2427
561,Pelvis,0,-0.1192,-0.6463,-0.1422,0.7402,0.0018,0.0006,0.0006,0.0063,-0.0146,-0.0066,9.7159,0.0600,1.3250,0.0000,0.0000,0.0000,1.0000,0.2429,0.0015,0.0331
562,Right,0,-0.0083,0.0124,0.4854,0.8742,0.0024,0.0037,0.0037,0.0077,-0.0038,-0.0531,-0.2882,-0.0326,9.7552,0.0000,0.0000,0.0000,1.0000,-0.0072,-0.0008,0.2439
562,Left,0,0.0091,0.0130,-0.3558,0.9344,0.0128,0.0012,0.0049,-0.0298,-0.0230,-0.1207,-0.3042,0.0360,9.6872,0.0002,0.0000,0.0001,1.0000,-0.0076,0.0009,0.2422
562,Pelvis,0,-0.1192,-0.6463,-0.1421,0.7402,0.0024,0.0000,0.0018,0.0082,-0.0050,-0.0162,9.7062,0.0696,1.3251,0.0000,0.0000,0.0000,1.0000,0.2427,0.0017,0.0331
563,Right,0,-0.0083,0.0124,0.4854,0.8742,0.0018,0.0024,0.0049,0.0040,0.0097,-0.0632,-0.2791,-0.0224,9.7455,0.0000,0.0000,0.0001,1.0000,-0.0070,-0.0006,0.2436
563,Pelvis,0,-0.1191,-0.6463,-0.1421,0.7402,0.0024,0.0018,0.0018,-0.0111,0.0012,-0.0136,9.7061,0.0693,1.3448,0.0000,0.0000,0.0000,1.0000,0.2427,0.0017,0.0336
564,Right,0,-0.0083,0.0124,0.4855,0.8741,0.0024,0.0037,0.0055,0.0119,0.0039,-0.0729,-0.2799,-0.0316,9.7357,0.0000,0.0000,0.0001,1.0000,-0.0070,-0.0008,0.2434
564,Left,0,0.0092,0.0130,-0.3557,0.9345,0.0113,0.0024,0.0064,-0.0304,-0.0391,-0.1063,-0.2953,0.0258,9.7020,0.0003,0.0001,0.0002,1.0000,-0.0147,0.0012,0.4851
564,Pelvis,0,-0.1190,-0.6463,-0.1421,0.7402,0.0024,0.0012,0.0018,0.0085,-0.0074,0.0031,9.7256,0.0688,1.3257,0.0000,0.0000,0.0000,1.0000,0.2431,0.0017,0.0331
565,Right,0,-0.0083,0.0124,0.4855,0.8741,0.0024,0.0037,0.0055,0.0378,0.0096,-0.0734,-0.2613,-0.0506,9.7358,0.0000,0.0000,0.0001,1.0000,-0.0065,-0.0013,0.2434
565,Left,0,0.0092,0.0130,-0.3556,0.9345,0.0128,-0.0006,0.0073,-0.0245,-0.0453,-0.1212,-0.2860,0.0251,9.6873,0.0002,-0.0000,0.0001,1.0000,-0.0072,0.0006,0.2422
565,Pelvis,0,-0.1190,-0.6464,-0.1420,0.7402,0.0024,0.0012,-0.0006,0.0021,-0.0153,-0.0163,9.7061,0.0590,1.3260,0.0000,0.0000,-0.0000,1.0000,0.2427,0.0015,0.0331
566,Right,0,-0.0083,0.0125,0.4856,0.8741,0.0024,0.0037,0.0049,0.0105,0.0036,-0.0534,-0.2817,-0.0303,9.7552,0.0000,0.0000,0.0001,1.0000,-0.0070,-0.0008,0.2439
566,Left,0,0.0092,0.0130,-0.3555,0.9345,0.0122,0.0030,0.0049,-0.0302,-0.0374,-0.1014,-0.2961,0.0284,9.7068,0.0002,0.0000,0.0001,1.0000,-0.0074,0.0007,0.2427
566,Pelvis,0,-0.1190,-0.6464,-0.1420,0.7402,0.0018,0.0006,0.0006,-0.0059,-0.0118,-0.0053,9.7158,0.0591,1.3359,0.0000,0.0000,0.0000,1.0000,0.2429,0.0015,0.0334
567,Right,0,-0.0083,0.0125,0.4856,0.8740,0.0024,0.0037,0.0049,0.0062,0.0161,-0.0830,-0.2727,-0.0200,9.7259,0.0000,0.0000,0.0001,1.0000,-0.0068,-0.0005,0.2431
567,Left,0,0.0092,0.0129,-0.3555,0.9346,0.0128,0.0018,0.0073,-0.0358,-0.0422,-0.1111,-0.2967,0.0216,9.6972,0.0002,0.0000,0.0001,1.0000,-0.0074,0.0005,0.2424
567,Pelvis,0,-0.1190,-0.6464,-0.1419,0.7402,0.0018,0.0012,0.0024,0.0011,-0.0146,-0.0163,9.7060,0.0588,1.3264,0.0000,0.0000,0.0000,1.0000,0.2427,0.0015,0.0332
568,Right,0,-0.0083,0.0124,0.4857,0.8740,0.0018,0.0031,0.0049,0.0272,0.0141,-0.0636,-0.2639,-0.0390,9.7454,0.0000,0.0000,0.0001,1.0000,-0.0066,-0.0010,0.2436
568,Left,0,0.0093,0.0129,-0.3554,0.9346,0.0128,0.0018,0.0073,-0.0346,-0.0401,-0.1111,-0.2972,0.0248,9.6971,0.0002,0.0000,0.0001,1.0000,-0.0074,0.0006,0.2424
568,Pelvis,0,-0.1190,-0.6464,-0.1419,0.7402,0.0012,0.0012,0.0018,-0.0047,-0.0019,-0.0149,9.7060,0.0681,1.3364,0.0000,0.0000,0.0000,1.0000,0.2426,0.0017,0.0334
569,Right,0,-0.0082,0.0125,0.4857,0.8740,0.0024,0.0037,0.0043,0.0220,0.0049,-0.0829,-0.2745,-0.0384,9.7259,0.0000,0.0000,0.0001,1.0000,-0.0069,-0.0010,0.2431
569,Left,0,0.0094,0.0129,-0.3553,0.9346,0.0122,0.0018,0.0061,-0.0258,-0.0463,-0.0919,-0.2879,0.0280,9.7167,0.0002,0.0000,0.0001,1.0000,-0.0072,0.0007,0.2429
569,Pelvis,0,-0.1190,-0.6464,-0.1419,0.7402,0.0031,0.0006,0.0018,-0.0050,-0.0018,-0.0149,9.7059,0.0677,1.3366,0.0000,0.0000,0.0000,1.0000,0.2426,0.0017,0.0334
570,Right,0,-0.0083,0.0125,0.4858,0.8740,0.0024,0.0043,0.0043,0.0075,0.0029,-0.0632,-0.2852,-0.0280,9.7453,0.0000,0.0001,0.0001,1.0000,-0.0071,-0.0007,0.2436
570,Left,0,0.0094,0.0130,-0.3553,0.9346,0.0116,0.0024,0.0073,-0.0304,-0.0509,-0.1016,-0.2884,0.0211,9.7070,0.0001,0.0000,0.0001,1.0000,-0.0072,0.0005,0.2427
570,Pelvis,0,-0.1190,-0.6464,-0.1418,0.7402,0.0018,0.0006,0.0012,0.0053,0.0046,-0.0258,9.6962,0.0772,1.3270,0.0000,0.0000,0.0000,1.0000,0.2424,0.0019,0.0332
571,Right,0,-0.0083,0.0126,0.4858,0.8739,0.0018,0.0037,0.0049,0.0070,0.0029,-0.0632,-0.2862,-0.0274,9.7453,0.0000,0.0000,0.0001,1.0000,-0.0071,-0.0007,0.2436
571,Left,0,0.0094,0.0129,-0.3552,0.9346,0.0122,0.0018,0.0055,-0.0433,-0.0499,-0.1110,-0.2988,0.0142,9.6973,0.0002,0.0000,0.0001,1.0000,-0.0075,0.0003,0.2424
571,Pelvis,0,-0.1190,-0.6465,-0.1418,0.7401,0.0031,0.0012,0.0024,-0.0002,-0.0133,-0.0066,9.7157,0.0573,1.3273,0.0000,0.0000,0.0000,1.0000,0.2429,0.0014,0.0332
572,Right,0,-0.0084,0.0125,0.4859,0.8739,0.0012,0.0037,0.0067,0.0190,0.0061,-0.0634,-0.2774,-0.0368,9.7453,0.0000,0.0000,0.0001,1.0000,-0.0069,-0.0009,0.2436
572,Left,0,0.0094,0.0130,-0.3552,0.9347,0.0110,0.0024,0.0067,-0.0411,-0.0478,-0.0817,-0.2993,0.0174,9.7266,0.0001,0.0000,0.0001,1.0000,-0.0075,0.0004,0.2432
572,Pelvis,0,-0.1191,-0.6464,-0.1417,0.7402,0.0024,0.0024,0.0006,-0.0009,-0.0111,-0.0163,9.7058,0.0570,1.3277,0.0000,0.0000,0.0000,1.0000,0.2426,0.0014,0.0332
573,Right,0,-0.0084,0.0126,0.4859,0.8739,0.0031,0.0030,0.0037,0.0291,0.0230,-0.0639,-0.2587,-0.0363,9.7454,0.0000,0.0000,0.0000,1.0000,-0.0065,-0.0009,0.2436
573,Left,0,0.0094,0.0130,-0.3552,0.9347,0.0122,0.0012,0.0055,-0.0398,-0.0457,-0.1012,-0.2997,0.0201,9.7070,0.0002,0.0000,0.0001,1.0000,-0.0075,0.0005,0.2427
573,Pelvis,0,-0.1191,-0.6464,-0.1416,0.7402,0.0031,0.0006,0.0024,0.0051,-0.0025,-0.0066,9.7156,0.0665,1.3281,0.0000,0.0000,0.0000,1.0000,0.2429,0.0017,0.0332
574,Right,0,-0.0084,0.0126,0.4860,0.8738,0.0024,0.0037,0.0049,0.0233,0.0145,-0.0539,-0.2693,-0.0356,9.7551,0.0000,0.0000,0.0001,1.0000,-0.0067,-0.0009,0.2439
574,Left,0,0.0095,0.0129,-0.3551,0.9347,0.0128,0.0012,0.0073,-0.0391,-0.0433,-0.1207,-0.3000,0.0229,9.6875,0.0002,0.0000,0.0001,1.0000,-0.0075,0.0005,0.2422
574,Pelvis,0,-0.1191,-0.6464,-0.1416,0.7402,0.0024,0.0012,0.0012,-0.0037,0.0021,-0.0052,9.7155,0.0662,1.3380,0.0000,0.0000,0.0000,1.0000,0.2429,0.0017,0.0334
575,Right,0,-0.0084,0.0126,0.4860,0.8738,0.0018,0.0037,0.0055,0.0085,0.0106,-0.0537,-0.2799,-0.0252,9.7550,0.0000,0.0000,0.0001,1.0000,-0.0070,-0.0006,0.2439
575,Left,0,0.0094,0.0129,-0.3550,0.9347,0.0116,0.0006,0.0067,-0.0444,-0.0479,-0.1109,-0.3003,0.0163,9.6973,0.0001,0.0000,0.0001,1.0000,-0.0075,0.0004,0.2424
575,Pelvis,0,-0.1190,-0.6464,-0.1415,0.7402,0.0037,0.0012,0.0018,0.0024,-0.0021,-0.0162,9.7057,0.0659,1.3286,0.0000,0.0000,0.0000,1.0000,0.2426,0.0017,0.0332
576,Right,0,-0.0084,0.0125,0.4861,0.8738,0.0012,0.0037,0.0043,0.0207,0.0127,-0.0636,-0.2710,-0.0346,9.7453,0.0000,0.0000,0.0001,1.0000,-0.0068,-0.0009,0.2436
576,Left,0,0.0094,0.0129,-0.3549,0.9347,0.0116,0.0012,0.0067,-0.0295,-0.0445,-0.1112,-0.2907,0.0288,9.6972,0.0001,0.0000,0.0001,1.0000,-0.0073,0.0007,0.2424
576,Pelvis,0,-0.1190,-0.6465,-0.1415,0.7402,0.0031,0.0012,0.0012,0.0042,-0.0034,0.0031,9.7252,0.0656,1.3289,0.0000,0.0000,0.0000,1.0000,0.2431,0.0016,0.0332
577,Right,0,-0.0084,0.0125,0.4862,0.8737,0.0030,0.0024,0.0043,0.0151,0.0258,-0.0542,-0.2620,-0.0243,9.7550,0.0000,0.0000,0.0001,1.0000,-0.0065,-0.0006,0.2439
577,Left,0,0.0094,0.0128,-0.3549,0.9348,0.0110,0.0018,0.0061,-0.0408,-0.0557,-0.0916,-0.2912,0.0123,9.7170,0.0001,0.0000,0.0001,1.0000,-0.0073,0.0003,0.2429
577,Pelvis,0,-0.1190,-0.6465,-0.1415,0.7402,0.0018,0.0012,0.0012,-0.0030,0.0105,-0.0052,9.7154,0.0752,1.3389,0.0000,0.0000,0.0000,1.0000,0.2429,0.0019,0.0335
578,Right,0,-0.0083,0.0125,0.4862,0.8737,0.0024,0.0031,0.0037,0.0127,0.0028,-0.0634,-0.2822,-0.0333,9.7452,0.0000,0.0000,0.0000,1.0000,-0.0070,-0.0008,0.2436
578,Left,0,0.0094,0.0128,-0.3548,0.9348,0.0116,0.0018,0.0067,-0.0335,-0.0469,-0.0916,-0.2916,0.0249,9.7168,0.0001,0.0000,0.0001,1.0000,-0.0073,0.0006,0.2429
578,Pelvis,0,-0.1189,-0.6465,-0.1414,0.7402,0.0024,0.0006,0.0024,0.0008,-0.0017,-0.0162,9.7056,0.0650,1.3294,0.0000,0.0000,0.0000,1.0000,0.2426,0.0016,0.0332
579,Right,0,-0.0083,0.0125,0.4863,0.8737,0.0024,0.0043,0.0055,0.0265,0.0059,-0.0636,-0.2734,-0.0425,9.7452,0.0000,0.0001,0.0001,1.0000,-0.0068,-0.0011,0.2436
579,Left,0,0.0095,0.0128,-0.3548,0.9348,0.0128,0.0024,0.0049,-0.0461,-0.0466,-0.1108,-0.3019,0.0179,9.6974,0.0002,0.0000,0.0001,1.0000,-0.0075,0.0004,0.2424
579,Pelvis,0,-0.1188,-0.6465,-0.1414,0.7402,0.0024,0.0018,0.0006,0.0026,-0.0039,0.0031,9.7251,0.0647,1.3297,0.0000,0.0000,0.0000,1.0000,0.2431,0.0016,0.0332
580,Right,0,-0.0084,0.0126,0.4863,0.8737,0.0031,0.0043,0.0049,0.0087,0.0171,-0.0539,-0.2744,-0.0223,9.7549,0.0000,0.0001,0.0001,1.0000,-0.0068,-0.0006,0.2439
580,Left,0,0.0095,0.0129,-0.3548,0.9348,0.0122,0.0012,0.0067,-0.0363,-0.0508,-0.0915,-0.2926,0.0212,9.7169,0.0002,0.0000,0.0001,1.0000,-0.0073,0.0005,0.2429
580,Pelvis,0,-0.1189,-0.6465,-0.1413,0.7402,0.0024,0.0012,0.0018,-0.0189,0.0052,-0.0136,9.7055,0.0646,1.3495,0.0000,0.0000,0.0000,1.0000,0.2426,0.0016,0.0337
581,Right,0,-0.0084,0.0126,0.4864,0.8736,0.0012,0.0049,0.0043,0.0216,0.0189,-0.0736,-0.2657,-0.0316,9.7354,0.0000,0.0001,0.0001,1.0000,-0.0066,-0.0008,0.2434
581,Left,0,0.0096,0.0128,-0.3547,0.9349,0.0116,0.0031,0.0085,-0.0211,-0.0621,-0.0921,-0.2736,0.0240,9.7169,0.0001,0.0000,0.0001,1.0000,-0.0068,0.0006,0.2429
581,Pelvis,0,-0.1189,-0.6465,-0.1413,0.7403,0.0031,0.0006,0.0012,0.0129,0.0037,-0.0175,9.7055,0.0740,1.3204,0.0000,0.0000,0.0000,1.0000,0.2426,0.0019,0.0330
582,Pelvis,0,-0.1188,-0.6465,-0.1413,0.7403,0.0006,0.0018,0.0006,0.0089,-0.0056,-0.0175,9.7055,0.0641,1.3208,0.0000,0.0000,0.0000,1.0000,0.2426,0.0016,0.0330
583,Right,0,-0.0085,0.0125,0.4864,0.8736,0.0024,0.0034,0.0055,0.0173,0.0092,-0.0587,-0.2770,-0.0356,9.7500,0.0001,0.0001,0.0001,1.0000,-0.0138,-0.0018,0.4875
583,Left,0,0.0095,0.0128,-0.3546,0.9349,0.0122,0.0012,0.0070,-0.0394,-0.0517,-0.1061,-0.2939,0.0186,9.7024,0.0003,0.0000,0.0002,1.0000,-0.0147,0.0008,0.4851
583,Pelvis,0,-0.1189,-0.6465,-0.1412,0.7402,0.0018,0.0012,0.0024,0.0029,0.0075,-0.0065,9.7152,0.0735,1.3309,0.0000,0.0000,0.0000,1.0000,0.2429,0.0018,0.0333
584,Right,0,-0.0085,0.0125,0.4865,0.8736,0.0030,0.0030,0.0049,0.0330,0.0098,-0.0735,-0.2684,-0.0493,9.7354,0.0000,0.0000,0.0001,1.0000,-0.0067,-0.0012,0.2434
584,Left,0,0.0095,0.0129,-0.3546,0.9349,0.0116,0.0030,0.0055,-0.0351,-0.0613,-0.1111,-0.2848,0.0132,9.6976,0.0001,0.0000,0.0001,1.0000,-0.0071,0.0003,0.2424
584,Pelvis,0,-0.1188,-0.6466,-0.1412,0.7401,0.0024,-0.0000,0.0012,0.0005,0.0080,-0.0065,9.7152,0.0731,1.3310,0.0000,-0.0000,0.0000,1.0000,0.2429,0.0018,0.0333
585,Right,0,-0.0084,0.0127,0.4865,0.8735,0.0024,0.0037,0.0049,0.0138,0.0112,-0.0636,-0.2789,-0.0290,9.7451,0.0000,0.0000,0.0001,1.0000,-0.0070,-0.0007,0.2436
585,Left,0,0.0097,0.0129,-0.3545,0.9349,0.0116,0.0018,0.0061,-0.0293,-0.0413,-0.1110,-0.2950,0.0356,9.6973,0.0001,0.0000,0.0001,1.0000,-0.0074,0.0009,0.2424
585,Pelvis,0,-0.1188,-0.6466,-0.1411,0.7401,0.0031,-0.0000,0.0012,0.0108,0.0042,0.0019,9.7250,0.0729,1.3213,0.0000,-0.0000,0.0000,1.0000,0.2431,0.0018,0.0330
586,Right,0,-0.0085,0.0128,0.4866,0.8735,0.0012,0.0024,0.0049,0.0277,0.0157,-0.0638,-0.2700,-0.0383,9.7451,0.0000,0.0000,0.0001,1.0000,-0.0067,-0.0010,0.2436
586,Pelvis,0,-0.1188,-0.6466,-0.1411,0.7402,0.0018,0.0024,0.0012,-0.0143,-0.0064,-0.0053,9.7151,0.0532,1.3411,0.0000,0.0000,0.0000,1.0000,0.2429,0.0013,0.0335
587,Right,0,-0.0085,0.0128,0.4866,0.8735,0.0018,0.0049,0.0037,0.0195,0.0204,-0.0541,-0.2709,-0.0281,9.7548,0.0000,0.0001,0.0000,1.0000,-0.0068,-0.0007,0.2439
587,Left,0,0.0098,0.0130,-0.3545,0.9349,0.0119,0.0009,0.0070,-0.0382,-0.0547,-0.1060,-0.2956,0.0205,9.7024,0.0003,0.0000,0.0002,1.0000,-0.0148,0.0009,0.4851
587,Pelvis,0,-0.1188,-0.6466,-0.1411,0.7402,0.0018,0.0012,0.0012,0.0020,0.0084,0.0032,9.7249,0.0725,1.3318,0.0000,0.0000,0.0000,1.0000,0.2431,0.0018,0.0333
588,Right,0,-0.0084,0.0129,0.4867,0.8734,0.0024,0.0024,0.0055,0.0359,0.0084,-0.0833,-0.2717,-0.0472,9.7256,0.0000,0.0000,0.0001,1.0000,-0.0068,-0.0012,0.2431
588,Left,0,0.0098,0.0130,-0.3544,0.9350,0.0122,0.0012,0.0055,-0.0365,-0.0515,-0.0913,-0.2960,0.0252,9.7171,0.0002,0.0000,0.0001,1.0000,-0.0074,0.0006,0.2429
588,Pelvis,0,-0.1190,-0.6466,-0.1410,0.7402,0.0024,0.0012,0.0031,-0.0063,-0.0071,-0.0066,9.7150,0.0525,1.3321,0.0000,0.0000,0.0000,1.0000,0.2429,0.0013,0.0333
589,Right,0,-0.0083,0.0128,0.4868,0.8734,0.0024,0.0037,0.0043,0.0209,0.0035,-0.0733,-0.2822,-0.0367,9.7352,0.0000,0.0000,0.0001,1.0000,-0.0070,-0.0009,0.2434
589,Left,0,0.0097,0.0129,-0.3543,0.9350,0.0110,0.0012,0.0079,-0.0361,-0.0473,-0.1010,-0.2963,0.0279,9.7073,0.0001,0.0000,0.0001,1.0000,-0.0074,0.0007,0.2427
589,Pelvis,0,-0.1190,-0.6465,-0.1409,0.7403,0.0031,-0.0006,0.0012,0.0015,0.0028,0.0031,9.7248,0.0618,1.3322,0.0000,-0.0000,0.0000,1.0000,0.2431,0.0015,0.0333
590,Right,0,-0.0083,0.0128,0.4869,0.8733,0.0030,0.0024,0.0049,0.0346,0.0058,-0.0638,-0.2733,-0.0458,9.7451,0.0000,0.0000,0.0001,1.0000,-0.0068,-0.0012,0.2436
590,Left,0,0.0097,0.0128,-0.3542,0.9350,0.0116,0.0018,0.0067,-0.0554,-0.0534,-0.0908,-0.3066,0.0114,9.7173,0.0001,0.0000,0.0001,1.0000,-0.0077,0.0003,0.2429
590,Pelvis,0,-0.1191,-0.6465,-0.1409,0.7403,0.0012,0.0006,0.0012,0.0027,0.0133,-0.0162,9.7053,0.0714,1.3321,0.0000,0.0000,0.0000,1.0000,0.2426,0.0018,0.0333
591,Right,0,-0.0083,0.0129,0.4869,0.8733,0.0018,0.0037,0.0049,0.0185,0.0179,-0.0736,-0.2739,-0.0257,9.7352,0.0000,0.0000,0.0001,1.0000,-0.0068,-0.0006,0.2434
591,Left,0,0.0098,0.0129,-0.3542,0.9350,0.0122,0.0024,0.0067,-0.0255,-0.0514,-0.1013,-0.2874,0.0336,9.7073,0.0002,0.0000,0.0001,1.0000,-0.0072,0.0008,0.2427
591,Pelvis,0,-0.1190,-0.6465,-0.1409,0.7403,0.0024,0.0012,0.0012,0.0003,0.0038,-0.0066,9.7150,0.0614,1.3324,0.0000,0.0000,0.0000,1.0000,0.2429,0.0015,0.0333
592,Right,0,-0.0082,0.0129,0.4870,0.8733,0.0024,0.0037,0.0049,0.0133,0.0075,-0.0734,-0.2846,-0.0251,9.7351,0.0000,0.0000,0.0001,1.0000,-0.0071,-0.0006,0.2434
592,Left,0,0.0099,0.0128,-0.3541,0.9351,0.0116,0.0000,0.0067,-0.0393,-0.0497,-0.1009,-0.2976,0.0268,9.7074,0.0001,0.0000,0.0001,1.0000,-0.0074,0.0006,0.2427
592,Pelvis,0,-0.1191,-0.6465,-0.1408,0.7403,0.0018,0.0006,0.0018,-0.0005,0.0052,-0.0066,9.7150,0.0611,1.3326,0.0000,0.0000,0.0000,1.0000,0.2429,0.0015,0.0333
593,Right,0,-0.0083,0.0129,0.4870,0.8733,0.0024,0.0037,0.0049,0.0257,0.0106,-0.0638,-0.2758,-0.0342,9.7450,0.0000,0.0000,0.0001,1.0000,-0.0069,-0.0009,0.2436
593,Left,0,0.0098,0.0128,-0.3541,0.9351,0.0122,0.0006,0.0067,-0.0494,-0.0755,-0.0911,-0.2882,0.0006,9.7177,0.0002,0.0000,0.0001,1.0000,-0.0072,-0.0000,0.2429
593,Pelvis,0,-0.1191,-0.6465,-0.1408,0.7403,0.0024,-0.0000,0.0012,0.0000,0.0052,-0.0066,9.7150,0.0608,1.3327,0.0000,-0.0000,0.0000,1.0000,0.2429,0.0015,0.0333
594,Right,0,-0.0082,0.0130,0.4871,0.8732,0.0024,0.0031,0.0055,0.0351,0.0053,-0.0638,-0.2767,-0.0434,9.7450,0.0000,0.0000,0.0001,1.0000,-0.0069,-0.0011,0.2436
594,Left,0,0.0099,0.0129,-0.3540,0.9351,0.0116,-0.0000,0.0061,-0.0487,-0.0607,-0.1105,-0.2979,0.0130,9.6980,0.0001,-0.0000,0.0001,1.0000,-0.0074,0.0003,0.2424
594,Pelvis,0,-0.1192,-0.6465,-0.1407,0.7403,0.0024,0.0012,0.0018,-0.0048,-0.0014,-0.0163,9.7052,0.0507,1.3328,0.0000,0.0000,0.0000,1.0000,0.2426,0.0013,0.0333
595,Right,0,-0.0083,0.0130,0.4871,0.8732,0.0018,0.0037,0.0049,0.0168,0.0158,-0.0639,-0.2774,-0.0233,9.7449,0.0000,0.0000,0.0001,1.0000,-0.0069,-0.0006,0.2436
595,Left,0,0.0098,0.0129,-0.3540,0.9351,0.0122,0.0018,0.0055,-0.0399,-0.0502,-0.1008,-0.2980,0.0259,9.7075,0.0002,0.0000,0.0001,1.0000,-0.0074,0.0006,0.2427
595,Pelvis,0,-0.1191,-0.6465,-0.1407,0.7403,0.0018,0.0012,0.0012,0.0020,0.0149,-0.0162,9.7052,0.0700,1.3330,0.0000,0.0000,0.0000,1.0000,0.2426,0.0018,0.0333
596,Right,0,-0.0083,0.0130,0.4871,0.8732,0.0018,0.0043,0.0037,0.0225,0.0108,-0.0638,-0.2784,-0.0326,9.7449,0.0000,0.0001,0.0000,1.0000,-0.0069,-0.0008,0.2436
596,Left,0,0.0097,0.0129,-0.3541,0.9351,0.0128,0.0018,0.0049,-0.0369,-0.0595,-0.1009,-0.2888,0.0191,9.7077,0.0002,0.0000,0.0001,1.0000,-0.0072,0.0004,0.2427
596,Pelvis,0,-0.1189,-0.6465,-0.1407,0.7403,0.0024,0.0012,0.0006,0.0020,0.0119,-0.0065,9.7149,0.0698,1.3334,0.0000,0.0000,0.0000,1.0000,0.2429,0.0017,0.0333
597,Right,0,-0.0084,0.0129,0.4872,0.8732,0.0012,0.0037,0.0043,0.0295,0.0060,-0.0540,-0.2795,-0.0419,9.7547,0.0000,0.0000,0.0001,1.0000,-0.0070,-0.0011,0.2439
597,Left,0,0.0097,0.0129,-0.3541,0.9351,0.0116,0.0018,0.0073,-0.0418,-0.0502,-0.1006,-0.2990,0.0222,9.7077,0.0001,0.0000,0.0001,1.0000,-0.0075,0.0005,0.2427
597,Pelvis,0,-0.1188,-0.6466,-0.1406,0.7403,0.0024,0.0000,0.0031,0.0105,0.0079,-0.0078,9.7149,0.0694,1.3237,0.0000,0.0000,0.0000,1.0000,0.2429,0.0017,0.0331
598,Right,0,-0.0084,0.0130,0.4872,0.8731,0.0018,0.0024,0.0055,0.0401,0.0228,-0.0642,-0.2607,-0.0417,9.7450,0.0000,0.0000,0.0001,1.0000,-0.0065,-0.0010,0.2436
598,Left,0,0.0097,0.0130,-0.3541,0.9351,0.0134,-0.0000,0.0055,-0.0379,-0.0480,-0.1006,-0.2992,0.0253,9.7077,0.0002,-0.0000,0.0001,1.0000,-0.0075,0.0006,0.2427
598,Pelvis,0,-0.1187,-0.6466,-0.1407,0.7403,0.0012,0.0006,-0.0000,-0.0037,0.0002,-0.0066,9.7148,0.0594,1.3336,0.0000,0.0000,-0.0000,1.0000,0.2429,0.0015,0.0333
599,Right,0,-0.0084,0.0130,0.4873,0.8731,0.0030,0.0018,0.0037,0.0351,0.0360,-0.0743,-0.2513,-0.0314,9.7352,0.0000,0.0000,0.0000,1.0000,-0.0063,-0.0008,0.2434
599,Left,0,0.0096,0.0130,-0.3541,0.9351,0.0122,0.0012,0.0061,-0.0352,-0.0580,-0.1105,-0.2897,0.0184,9.6981,0.0002,0.0000,0.0001,1.0000,-0.0072,0.0004,0.2425
599,Pelvis,0,-0.1186,-0.6466,-0.1406,0.7403,0.0024,0.0006,0.0012,-0.0059,0.0003,-0.0162,9.7051,0.0593,1.3337,0.0000,0.0000,0.0000,1.0000,0.2426,0.0015,0.0333
600,Right,0,-0.0085,0.0129,0.4873,0.8731,0.0030,0.0037,0.0055,0.0169,0.0111,-0.0735,-0.2813,-0.0304,9.7350,0.0000,0.0000,0.0001,1.0000,-0.0070,-0.0008,0.2434
600,Left,0,0.0095,0.0130,-0.3541,0.9351,0.0116,0.0006,0.0067,-0.0323,-0.0540,-0.1007,-0.2899,0.0215,9.7079,0.0001,0.0000,0.0001,1.0000,-0.0072,0.0005,0.2427
600,Pelvis,0,-0.1186,-0.6466,-0.1406,0.7403,0.0006,0.0000,0.0012,0.0079,0.0056,-0.0078,9.7149,0.0688,1.3240,0.0000,0.0000,0.0000,1.0000,0.2429,0.0017,0.0331
601,Right,0,-0.0084,0.0130,0.4874,0.8730,0.0024,0.0037,0.0049,0.0397,0.0071,-0.0737,-0.2726,-0.0493,9.7352,0.0000,0.0000,0.0001,1.0000,-0.0068,-0.0012,0.2434
601,Left,0,0.0096,0.0129,-0.3540,0.9351,0.0128,0.0012,0.0061,-0.0469,-0.0399,-0.1001,-0.3097,0.0247,9.7078,0.0002,0.0000,0.0001,1.0000,-0.0077,0.0006,0.2427
601,Pelvis,0,-0.1187,-0.6466,-0.1406,0.7403,0.0018,-0.0000,0.0012,0.0024,0.0195,-0.0161,9.7051,0.0783,1.3337,0.0000,-0.0000,0.0000,1.0000,0.2426,0.0020,0.0333
602,Right,0,-0.0085,0.0130,0.4874,0.8730,0.0018,0.0024,0.0055,0.0198,-0.0022,-0.0635,-0.2928,-0.0388,9.7447,0.0000,0.0000,0.0001,1.0000,-0.0073,-0.0010,0.2436
602,Left,0,0.0096,0.0130,-0.3540,0.9351,0.0128,0.0006,0.0061,-0.0429,-0.0504,-0.1100,-0.3002,0.0178,9.6982,0.0002,0.0000,0.0001,1.0000,-0.0075,0.0004,0.2425
602,Pelvis,0,-0.1188,-0.6466,-0.1405,0.7403,0.0018,0.0000,0.0024,0.0014,0.0106,0.0032,9.7246,0.0681,1.3338,0.0000,0.0000,0.0000,1.0000,0.2431,0.0017,0.0333
603,Right,0,-0.0085,0.0130,0.4875,0.8730,0.0018,0.0037,0.0061,0.0300,0.0143,-0.0542,-0.2741,-0.0384,9.7546,0.0000,0.0000,0.0001,1.0000,-0.0068,-0.0010,0.2439
603,Left,0,0.0096,0.0130,-0.3540,0.9351,0.0122,0.0018,0.0079,-0.0413,-0.0618,-0.1102,-0.2908,0.0110,9.6984,0.0002,0.0000,0.0001,1.0000,-0.0073,0.0002,0.2425
603,Pelvis,0,-0.1188,-0.6466,-0.1404,0.7403,0.0024,0.0018,0.0018,0.0047,0.0001,-0.0079,9.7148,0.0579,1.3243,0.0000,0.0000,0.0000,1.0000,0.2429,0.0015,0.0331
604,Pelvis,0,-0.1189,-0.6466,-0.1404,0.7403,0.0030,-0.0006,0.0012,0.0075,0.0109,-0.0175,9.7051,0.0674,1.3244,0.0000,-0.0000,0.0000,1.0000,0.2426,0.0017,0.0331
605,Right,0,-0.0085,0.0132,0.4875,0.8730,0.0021,0.0052,0.0040,0.0245,0.0133,-0.0736,-0.2806,-0.0328,9.7350,0.0001,0.0001,0.0001,1.0000,-0.0140,-0.0017,0.4868
605,Left,0,0.0097,0.0130,-0.3539,0.9351,0.0113,0.0015,0.0058,-0.0349,-0.0583,-0.1004,-0.2914,0.0204,9.7081,0.0003,0.0000,0.0001,1.0000,-0.0146,0.0009,0.4854
605,Pelvis,0,-0.1189,-0.6466,-0.1403,0.7403,0.0006,0.0018,0.0024,0.0015,0.0142,0.0032,9.7246,0.0670,1.3343,0.0000,0.0000,0.0000,1.0000,0.2431,0.0017,0.0334
607,Right,0,-0.0084,0.0134,0.4877,0.8729,0.0024,0.0037,0.0046,0.0320,0.0137,-0.0786,-0.2778,-0.0365,9.7301,0.0001,0.0001,0.0001,1.0000,-0.0138,-0.0019,0.4865
607,Left,0,0.0098,0.0131,-0.3538,0.9352,0.0128,0.0015,0.0061,-0.0417,-0.0591,-0.1050,-0.2971,0.0165,9.7034,0.0003,0.0000,0.0002,1.0000,-0.0148,0.0007,0.4852
607,Pelvis,0,-0.1188,-0.6467,-0.1403,0.7403,0.0021,0.0006,0.0021,-0.0003,0.0069,-0.0168,9.7050,0.0614,1.3298,0.0001,0.0000,0.0001,1.0000,0.4852,0.0031,0.0665
608,Right,0,-0.0085,0.0132,0.4877,0.8729,0.0037,0.0043,0.0049,0.0409,0.0171,-0.0544,-0.2697,-0.0452,9.7546,0.0000,0.0001,0.0001,1.0000,-0.0067,-0.0011,0.2439
608,Left,0,0.0096,0.0131,-0.3538,0.9352,0.0122,0.0024,0.0067,-0.0301,-0.0640,-0.1004,-0.2832,0.0162,9.7084,0.0002,0.0000,0.0001,1.0000,-0.0071,0.0004,0.2427
608,Pelvis,0,-0.1188,-0.6466,-0.1402,0.7404,0.0024,0.0012,0.0012,0.0075,0.0008,0.0018,9.7245,0.0559,1.3252,0.0000,0.0000,0.0000,1.0000,0.2431,0.0014,0.0331
609,Right,0,-0.0082,0.0129,0.4879,0.8727,0.0037,0.0037,0.0043,0.0159,0.0108,-0.0835,-0.2801,-0.0248,9.7251,0.0000,0.0000,0.0001,1.0000,-0.0070,-0.0006,0.2431
609,Left,0,0.0095,0.0127,-0.3536,0.9353,0.0110,0.0018,0.0061,-0.0484,-0.0451,-0.0901,-0.3033,0.0196,9.7181,0.0001,0.0000,0.0001,1.0000,-0.0076,0.0005,0.2430
609,Pelvis,0,-0.1188,-0.6465,-0.1402,0.7405,0.0024,0.0012,0.0018,0.0046,0.0220,-0.0161,9.7049,0.0753,1.3352,0.0000,0.0000,0.0000,1.0000,0.2426,0.0019,0.0334
610,Right,0,-0.0082,0.0128,0.4880,0.8727,0.0018,0.0043,0.0037,0.0168,-0.0048,-0.0832,-0.2909,-0.0338,9.7251,0.0000,0.0001,0.0000,1.0000,-0.0073,-0.0009,0.2431
610,Left,0,0.0095,0.0126,-0.3535,0.9353,0.0122,0.0006,0.0073,-0.0421,-0.0338,-0.1098,-0.3034,0.0317,9.6983,0.0002,0.0000,0.0001,1.0000,-0.0076,0.0008,0.2425
610,Pelvis,0,-0.1187,-0.6465,-0.1402,0.7404,0.0006,0.0018,0.0030,-0.0187,0.0196,-0.0135,9.7048,0.0650,1.3551,0.0000,0.0000,0.0000,1.0000,0.2426,0.0016,0.0339
611,Right,0,-0.0082,0.0129,0.4880,0.8727,0.0024,0.0031,0.0055,0.0300,-0.0002,-0.0541,-0.2823,-0.0429,9.7544,0.0000,0.0000,0.0001,1.0000,-0.0070,-0.0011,0.2439
611,Left,0,0.0094,0.0127,-0.3535,0.9353,0.0110,0.0018,0.0055,-0.0379,-0.0457,-0.1099,-0.2940,0.0247,9.6985,0.0001,0.0000,0.0001,1.0000,-0.0073,0.0006,0.2425
611,Pelvis,0,-0.1187,-0.6466,-0.1401,0.7404,0.0031,0.0012,0.0012,0.0031,0.0203,-0.0064,9.7146,0.0742,1.3359,0.0000,0.0000,0.0000,1.0000,0.2429,0.0019,0.0334
612,Right,0,-0.0082,0.0128,0.4881,0.8726,0.0006,0.0043,0.0049,0.0251,0.0116,-0.0642,-0.2733,-0.0329,9.7447,0.0000,0.0001,0.0001,1.0000,-0.0068,-0.0008,0.2436
612,Left,0,0.0093,0.0127,-0.3535,0.9353,0.0122,0.0012,0.0067,-0.0352,-0.0546,-0.1197,-0.2847,0.0175,9.6890,0.0002,0.0000,0.0001,1.0000,-0.0071,0.0004,0.2422
612,Pelvis,0,-0.1186,-0.6466,-0.1401,0.7404,0.0012,0.0012,0.0006,0.0047,-0.0012,-0.0079,9.7145,0.0545,1.3265,0.0000,0.0000,0.0000,1.0000,0.2429,0.0014,0.0332
613,Right,0,-0.0083,0.0128,0.4881,0.8726,0.0030,0.0018,0.0049,0.0232,0.0123,-0.0739,-0.2740,-0.0325,9.7349,0.0000,0.0000,0.0001,1.0000,-0.0068,-0.0008,0.2434
613,Left,0,0.0093,0.0127,-0.3535,0.9353,0.0134,0.0024,0.0055,-0.0265,-0.0440,-0.1296,-0.2850,0.0301,9.6790,0.0002,0.0000,0.0001,1.0000,-0.0071,0.0007,0.2420
613,Pelvis,0,-0.1186,-0.6465,-0.1401,0.7405,0.0006,0.0006,0.0012,0.0088,0.0078,-0.0078,9.7145,0.0641,1.3267,0.0000,0.0000,0.0000,1.0000,0.2429,0.0016,0.0332
614,Right,0,-0.0082,0.0128,0.4882,0.8726,0.0018,0.0043,0.0049,0.0315,0.0054,-0.0739,-0.2748,-0.0416,9.7349,0.0000,0.0001,0.0001,1.0000,-0.0069,-0.0010,0.2434
614,Left,0,0.0093,0.0127,-0.3534,0.9353,0.0116,0.0006,0.0079,-0.0528,-0.0435,-0.1092,-0.3052,0.0144,9.6989,0.0001,0.0000,0.0001,1.0000,-0.0076,0.0003,0.2425
614,Pelvis,0,-0.1186,-0.6466,-0.1401,0.7404,0.0024,-0.0006,0.0018,0.0022,0.0198,-0.0064,9.7145,0.0736,1.3364,0.0000,-0.0000,0.0000,1.0000,0.2429,0.0018,0.0334
615,Right,0,-0.0083,0.0129,0.4882,0.8726,0.0012,0.0049,0.0037,0.0330,0.0279,-0.0744,-0.2563,-0.0316,9.7350,0.0000,0.0001,0.0000,1.0000,-0.0064,-0.0008,0.2434
615,Left,0,0.0093,0.0128,-0.3535,0.9353,0.0128,0.0024,0.0061,-0.0352,-0.0411,-0.0901,-0.2958,0.0275,9.7182,0.0002,0.0000,0.0001,1.0000,-0.0074,0.0006,0.2430
615,Pelvis,0,-0.1194,-0.6465,-0.1422,0.7400,0.0024,0.0012,0.0012,-0.0088,-0.0022,-0.0161,9.7047,0.0636,1.3365,0.0000,0.0000,0.0000,1.0000,0.2426,0.0016,0.0334
616,Right,2,-0.0084,0.0131,0.4882,0.8726,0.0024,0.0043,0.0043,0.0374,0.0191,-0.0643,-0.2674,-0.0408,9.7447,0.0000,0.0001,0.0001,1.0000,-0.0067,-0.0010,0.2436
616,Left,0,0.0094,0.0130,-0.3536,0.9353,0.0128,0.0018,0.0067,-0.0298,-0.0550,-0.1097,-0.2866,0.0203,9.6989,0.0002,0.0000,0.0001,1.0000,-0.0072,0.0005,0.2425
616,Pelvis,2,-0.1194,-0.6464,-0.1421,0.7400,0.0018,0.0012,0.0018,0.0114,-0.0106,0.0006,9.7243,0.0631,1.3173,0.0000,0.0000,0.0000,1.0000,0.2431,0.0016,0.0329
617,Right,2,-0.0085,0.0133,0.4882,0.8726,0.0012,0.0037,0.0043,0.0252,0.0176,-0.0642,-0.2780,-0.0304,9.7446,0.0000,0.0000,0.0001,1.0000,-0.0069,-0.0008,0.2436
617,Left,2,0.0095,0.0132,-0.3536,0.9353,0.0128,0.0018,0.0061,-0.0329,-0.0480,-0.0997,-0.2968,0.0239,9.7086,0.0002,0.0000,0.0001,1.0000,-0.0074,0.0006,0.2427
617,Pelvis,2,-0.1194,-0.6464,-0.1421,0.7400,0.0024,0.0012,0.0024,0.0046,0.0024,-0.0077,9.7145,0.0725,1.3273,0.0000,0.0000,0.0000,1.0000,0.2429,0.0018,0.0332
618,Right,2,-0.0086,0.0134,0.4881,0.8726,0.0012,0.0037,0.0049,0.0396,0.0238,-0.0741,-0.2692,-0.0400,9.7349,0.0000,0.0000,0.0001,1.0000,-0.0067,-0.0010,0.2434
618,Left,2,0.0094,0.0134,-0.3537,0.9352,0.0116,0.0018,0.0061,-0.0273,-0.0469,-0.1094,-0.2972,0.0266,9.6989,0.0001,0.0000,0.0001,1.0000,-0.0074,0.0006,0.2425
618,Pelvis,2,-0.1194,-0.6464,-0.1421,0.7400,0.0037,0.0018,0.0012,-0.0005,-0.0062,-0.0175,9.7046,0.0624,1.3277,0.0000,0.0000,0.0000,1.0000,0.2426,0.0016,0.0332
619,Right,2,-0.0085,0.0134,0.4883,0.8726,0.0031,0.0037,0.0049,0.0213,0.0108,-0.0444,-0.2897,-0.0294,9.7640,0.0000,0.0000,0.0001,1.0000,-0.0072,-0.0007,0.2441
619,Left,2,0.0094,0.0134,-0.3536,0.9353,0.0128,0.0024,0.0073,-0.0325,-0.0508,-0.1092,-0.2979,0.0199,9.6991,0.0002,0.0000,0.0001,1.0000,-0.0074,0.0005,0.2425
619,Pelvis,2,-0.1194,-0.6464,-0.1421,0.7400,0.0012,-0.0006,0.0031,-0.0051,0.0057,-0.0064,9.7144,0.0718,1.3376,0.0000,-0.0000,0.0000,1.0000,0.2429,0.0018,0.0334
620,Right,2,-0.0083,0.0135,0.4884,0.8725,0.0024,0.0024,0.0043,0.0193,0.0198,-0.0740,-0.2804,-0.0191,9.7347,0.0000,0.0000,0.0001,1.0000,-0.0070,-0.0005,0.2434
620,Left,2,0.0095,0.0133,-0.3535,0.9353,0.0122,0.0012,0.0055,-0.0168,-0.0619,-0.1000,-0.2788,0.0229,9.7089,0.0002,0.0000,0.0001,1.0000,-0.0070,0.0005,0.2427
620,Pelvis,2,-0.1194,-0.6464,-0.1421,0.7400,0.0006,0.0018,0.0012,0.0024,0.0026,-0.0174,9.7046,0.0713,1.3280,0.0000,0.0000,0.0000,1.0000,0.2426,0.0018,0.0332
621,Right,2,-0.0084,0.0134,0.4884,0.8725,0.0012,0.0037,0.0055,0.0387,0.0194,-0.0546,-0.2717,-0.0382,9.7544,0.0000,0.0000,0.0001,1.0000,-0.0068,-0.0010,0.2439
621,Left,2,0.0094,0.0134,-0.3535,0.9353,0.0128,0.0006,0.0061,-0.0278,-0.0585,-0.1092,-0.2889,0.0161,9.6993,0.0002,0.0000,0.0001,1.0000,-0.0072,0.0004,0.2425
621,Pelvis,2,-0.1194,-0.6464,-0.1421,0.7400,0.0024,0.0012,0.0018,0.0010,-0.0079,0.0019,9.7241,0.0611,1.3284,0.0000,0.0000,0.0000,1.0000,0.2431,0.0015,0.0332
622,Right,2,-0.0084,0.0136,0.4884,0.8724,0.0018,0.0037,0.0037,0.0327,0.0243,-0.0644,-0.2724,-0.0281,9.7445,0.0000,0.0000,0.0000,1.0000,-0.0068,-0.0007,0.2436
622,Left,2,0.0095,0.0134,-0.3535,0.9353,0.0116,0.0018,0.0061,-0.0335,-0.0522,-0.1090,-0.2990,0.0193,9.6993,0.0001,0.0000,0.0001,1.0000,-0.0075,0.0004,0.2425
622,Pelvis,2,-0.1194,-0.6464,-0.1421,0.7401,0.0018,0.0012,0.0024,-0.0276,0.0033,-0.0039,9.7142,0.0608,1.3580,0.0000,0.0000,0.0000,1.0000,0.2429,0.0015,0.0339
623,Right,2,-0.0085,0.0137,0.4884,0.8724,0.0024,0.0037,0.0049,0.0409,0.0214,-0.0643,-0.2734,-0.0373,9.7445,0.0000,0.0000,0.0001,1.0000,-0.0068,-0.0009,0.2436
623,Left,2,0.0095,0.0135,-0.3535,0.9353,0.0116,0.0018,0.0073,-0.0081,-0.0566,-0.0999,-0.2798,0.0319,9.7088,0.0001,0.0000,0.0001,1.0000,-0.0070,0.0008,0.2427
623,Pelvis,2,-0.1194,-0.6464,-0.1421,0.7400,0.0018,-0.0000,0.0012,0.0070,-0.0106,-0.0188,9.7045,0.0603,1.3191,0.0000,-0.0000,0.0000,1.0000,0.2426,0.0015,0.0330
624,Right,2,-0.0087,0.0138,0.4884,0.8725,0.0018,0.0037,0.0049,0.0321,0.0304,-0.0742,-0.2742,-0.0270,9.7347,0.0000,0.0000,0.0001,1.0000,-0.0068,-0.0007,0.2434
624,Left,2,0.0094,0.0138,-0.3536,0.9352,0.0128,0.0018,0.0067,-0.0360,-0.0494,-0.0987,-0.3098,0.0158,9.7092,0.0002,0.0000,0.0001,1.0000,-0.0077,0.0004,0.2427
624,Pelvis,2,-0.1194,-0.6464,-0.1420,0.7401,0.0024,0.0012,0.0018,-0.0113,-0.0036,-0.0162,9.7045,0.0601,1.3387,0.0000,0.0000,0.0000,1.0000,0.2426,0.0015,0.0335
625,Right,2,-0.0087,0.0137,0.4885,0.8724,0.0018,0.0037,0.0049,0.0340,0.0382,-0.0744,-0.2653,-0.0266,9.7348,0.0000,0.0000,0.0001,1.0000,-0.0066,-0.0007,0.2434
625,Left,2,0.0093,0.0138,-0.3536,0.9352,0.0128,0.0012,0.0061,-0.0269,-0.0503,-0.1184,-0.3003,0.0183,9.6897,0.0002,0.0000,0.0001,1.0000,-0.0075,0.0004,0.2422
625,Pelvis,2,-0.1194,-0.6464,-0.1420,0.7401,0.0031,0.0018,0.0024,-0.0080,0.0053,-0.0161,9.7044,0.0694,1.3390,0.0000,0.0000,0.0000,1.0000,0.2426,0.0017,0.0335
626,Right,2,-0.0088,0.0138,0.4885,0.8724,0.0012,0.0024,0.0049,0.0204,0.0362,-0.0547,-0.2758,-0.0163,9.7541,0.0000,0.0000,0.0001,1.0000,-0.0069,-0.0004,0.2439
626,Left,2,0.0093,0.0138,-0.3536,0.9353,0.0122,0.0024,0.0061,-0.0250,-0.0483,-0.1184,-0.3008,0.0213,9.6897,0.0002,0.0000,0.0001,1.0000,-0.0075,0.0005,0.2422
626,Pelvis,2,-0.1194,-0.6464,-0.1420,0.7401,0.0018,0.0024,0.0024,-0.0071,0.0045,-0.0064,9.7141,0.0689,1.3396,0.0000,0.0000,0.0000,1.0000,0.2429,0.0017,0.0335
627,Left,2,0.0093,0.0138,-0.3536,0.9353,0.0122,0.0018,0.0067,-0.0085,-0.0587,-0.1092,-0.2818,0.0243,9.6995,0.0002,0.0000,0.0001,1.0000,-0.0070,0.0006,0.2425
627,Pelvis,2,-0.1194,-0.6464,-0.1420,0.7401,0.0024,0.0018,0.0006,0.0178,0.0154,-0.0088,9.7142,0.0880,1.3205,0.0000,0.0000,0.0000,1.0000,0.2429,0.0022,0.0330
628,Right,2,-0.0088,0.0139,0.4886,0.8724,0.0028,0.0043,0.0046,0.0298,0.0244,-0.0643,-0.2822,-0.0300,9.7444,0.0001,0.0001,0.0001,1.0000,-0.0141,-0.0015,0.4872
628,Left,2,0.0092,0.0138,-0.3535,0.9353,0.0116,0.0030,0.0049,-0.0197,-0.0558,-0.0892,-0.2923,0.0182,9.7193,0.0001,0.0000,0.0001,1.0000,-0.0073,0.0004,0.2430
628,Pelvis,2,-0.1194,-0.6464,-0.1420,0.7401,0.0018,0.0006,0.0024,0.0067,-0.0120,-0.0091,9.7140,0.0584,1.3209,0.0000,0.0000,0.0000,1.0000,0.2429,0.0015,0.0330
629,Right,2,-0.0087,0.0138,0.4887,0.8723,0.0024,0.0037,0.0055,0.0349,0.0242,-0.0546,-0.2789,-0.0339,9.7542,0.0000,0.0000,0.0001,1.0000,-0.0070,-0.0009,0.2439
629,Left,2,0.0092,0.0138,-0.3535,0.9353,0.0122,0.0012,0.0067,-0.0194,-0.0523,-0.1087,-0.2928,0.0206,9.6997,0.0002,0.0000,0.0001,1.0000,-0.0073,0.0005,0.2425
629,Pelvis,2,-0.1194,-0.6464,-0.1420,0.7401,0.0024,0.0000,0.0031,0.0064,-0.0122,-0.0091,9.7140,0.0578,1.3210,0.0000,0.0000,0.0000,1.0000,0.2429,0.0015,0.0330
630,Right,2,-0.0085,0.0137,0.4888,0.8722,0.0024,0.0037,0.0043,0.0313,0.0329,-0.0841,-0.2697,-0.0238,9.7249,0.0000,0.0000,0.0001,1.0000,-0.0067,-0.0006,0.2431
630,Left,2,0.0092,0.0136,-0.3533,0.9354,0.0128,0.0018,0.0055,-0.0276,-0.0426,-0.0889,-0.3030,0.0244,9.7192,0.0002,0.0000,0.0001,1.0000,-0.0076,0.0006,0.2430
630,Pelvis,2,-0.1194,-0.6464,-0.1420,0.7401,0.0018,0.0024,0.0006,0.0120,-0.0044,0.0104,9.7336,0.0671,1.3213,0.0000,0.0000,0.0000,1.0000,0.2433,0.0017,0.0330
631,Left,2,0.0094,0.0136,-0.3533,0.9354,0.0116,0.0012,0.0073,-0.0126,-0.0563,-0.1187,-0.2837,0.0262,9.6900,0.0001,0.0000,0.0001,1.0000,-0.0071,0.0006,0.2422
631,Pelvis,2,-0.1193,-0.6464,-0.1419,0.7401,0.0024,0.0018,0.0012,0.0105,-0.0041,0.0007,9.7237,0.0670,1.3218,0.0000,0.0000,0.0000,1.0000,0.2431,0.0017,0.0330
632,Right,2,-0.0085,0.0140,0.4889,0.8722,0.0018,0.0040,0.0046,0.0448,0.0221,-0.0595,-0.2763,-0.0375,9.7493,0.0000,0.0001,0.0001,1.0000,-0.0138,-0.0019,0.4875
632,Left,2,0.0092,0.0137,-0.3533,0.9353,0.0116,0.0018,0.0055,-0.0355,-0.0521,-0.1079,-0.3040,0.0102,9.7002,0.0001,0.0000,0.0001,1.0000,-0.0076,0.0002,0.2425
632,Pelvis,2,-0.1194,-0.6464,-0.1419,0.7401,0.0018,-0.0006,0.0024,-0.0126,-0.0056,-0.0065,9.7139,0.0570,1.3415,0.0000,-0.0000,0.0000,1.0000,0.2428,0.0014,0.0335
633,Right,2,-0.0085,0.0139,0.4890,0.8721,0.0018,0.0031,0.0055,0.0393,0.0277,-0.0743,-0.2726,-0.0320,9.7346,0.0000,0.0000,0.0001,1.0000,-0.0068,-0.0008,0.2434
633,Left,2,0.0091,0.0137,-0.3533,0.9354,0.0128,0.0006,0.0067,-0.0201,-0.0469,-0.1181,-0.2943,0.0225,9.6902,0.0002,0.0000,0.0001,1.0000,-0.0074,0.0005,0.2423
633,Pelvis,2,-0.1194,-0.6464,-0.1419,0.7401,0.0024,0.0024,0.0012,0.0087,-0.0038,-0.0090,9.7139,0.0663,1.3221,0.0000,0.0000,0.0000,1.0000,0.2428,0.0017,0.0330
634,Pelvis,2,-0.1193,-0.6464,-0.1419,0.7401,0.0031,0.0012,0.0018,-0.0096,0.0032,-0.0064,9.7138,0.0661,1.3421,0.0000,0.0000,0.0000,1.0000,0.2428,0.0017,0.0335
635,Right,2,-0.0087,0.0140,0.4890,0.8721,0.0027,0.0031,0.0052,0.0314,0.0293,-0.0596,-0.2787,-0.0260,9.7492,0.0001,0.0001,0.0001,1.0000,-0.0139,-0.0013,0.4875
635,Left,2,0.0089,0.0138,-0.3534,0.9353,0.0116,0.0015,0.0058,-0.0243,-0.0469,-0.0982,-0.2998,0.0178,9.7100,0.0003,0.0000,0.0001,1.0000,-0.0150,0.0007,0.4855
635,Pelvis,2,-0.1193,-0.6464,-0.1419,0.7401,0.0012,0.0031,0.0006,-0.0093,-0.0182,-0.0176,9.7039,0.0464,1.3329,0.0000,0.0000,0.0000,1.0000,0.2426,0.0012,0.0333
636,Right,2,-0.0085,0.0137,0.4892,0.8720,0.0025,0.0049,0.0043,0.0304,0.0386,-0.0746,-0.2652,-0.0204,9.7346,0.0000,0.0001,0.0001,1.0000,-0.0066,-0.0005,0.2434
636,Left,2,0.0088,0.0136,-0.3532,0.9354,0.0116,0.0018,0.0061,-0.0286,-0.0355,-0.1176,-0.3052,0.0216,9.6904,0.0001,0.0000,0.0001,1.0000,-0.0076,0.0005,0.2423
636,Pelvis,2,-0.1193,-0.6464,-0.1419,0.7401,0.0024,0.0012,0.0018,-0.0012,-0.0008,-0.0077,9.7137,0.0656,1.3333,0.0000,0.0000,0.0000,1.0000,0.2428,0.0016,0.0333
637,Right,2,-0.0084,0.0137,0.4893,0.8720,0.0012,0.0024,0.0043,0.0340,0.0231,-0.0743,-0.2760,-0.0296,9.7345,0.0000,0.0000,0.0001,1.0000,-0.0069,-0.0007,0.2434
637,Left,2,0.0088,0.0136,-0.3531,0.9354,0.0116,0.0018,0.0049,-0.0054,-0.0535,-0.1184,-0.2764,0.0240,9.6905,0.0001,0.0000,0.0001,1.0000,-0.0069,0.0006,0.2423
637,Pelvis,2,-0.1193,-0.6464,-0.1419,0.7401,0.0030,-0.0006,0.0024,0.0010,0.0087,-0.0173,9.7040,0.0750,1.3333,0.0000,-0.0000,0.0000,1.0000,0.2426,0.0019,0.0333
638,Right,2,-0.0083,0.0136,0.4894,0.8719,0.0006,0.0037,0.0055,0.0404,0.0133,-0.0644,-0.2769,-0.0390,9.7443,0.0000,0.0000,0.0001,1.0000,-0.0069,-0.0010,0.2436
638,Left,2,0.0088,0.0134,-0.3530,0.9355,0.0122,0.0012,0.0073,-0.0280,-0.0426,-0.0981,-0.2965,0.0181,9.7102,0.0002,0.0000,0.0001,1.0000,-0.0074,0.0004,0.2428
638,Pelvis,2,-0.1193,-0.6464,-0.1419,0.7402,0.0012,0.0024,0.0006,-0.0054,-0.0103,-0.0078,9.7136,0.0551,1.3337,0.0000,0.0000,0.0000,1.0000,0.2428,0.0014,0.0333
639,Right,2,-0.0083,0.0137,0.4895,0.8719,0.0031,0.0030,0.0043,0.0472,0.0227,-0.0549,-0.2681,-0.0386,9.7542,0.0000,0.0000,0.0001,1.0000,-0.0067,-0.0010,0.2439
639,Left,2,0.0089,0.0135,-0.3530,0.9355,0.0122,0.0018,0.0067,-0.0328,-0.0499,-0.1173,-0.2970,0.0107,9.6910,0.0002,0.0000,0.0001,1.0000,-0.0074,0.0002,0.2423
639,Pelvis,2,-0.1192,-0.6464,-0.1418,0.7402,0.0024,-0.0000,0.0012,0.0081,-0.0056,0.0007,9.7234,0.0646,1.3242,0.0000,-0.0000,0.0000,1.0000,0.2431,0.0016,0.0331
640,Right,2,-0.0083,0.0138,0.4895,0.8719,0.0024,0.0037,0.0043,0.0388,0.0278,-0.0647,-0.2687,-0.0282,9.7443,0.0000,0.0000,0.0001,1.0000,-0.0067,-0.0007,0.2436
640,Left,2,0.0089,0.0135,-0.3530,0.9355,0.0122,0.0018,0.0061,-0.0218,-0.0548,-0.0883,-0.2878,0.0145,9.7203,0.0002,0.0000,0.0001,1.0000,-0.0072,0.0003,0.2430
640,Pelvis,2,-0.1192,-0.6464,-0.1418,0.7402,0.0024,0.0012,0.0012,-0.0078,0.0110,-0.0063,9.7136,0.0744,1.3438,0.0000,0.0000,0.0000,1.0000,0.2428,0.0019,0.0336
641,Right,2,-0.0082,0.0138,0.4896,0.8718,0.0018,0.0031,0.0055,0.0503,0.0068,-0.0741,-0.2794,-0.0471,9.7346,0.0000,0.0000,0.0001,1.0000,-0.0070,-0.0012,0.2434
641,Left,2,0.0089,0.0135,-0.3528,0.9355,0.0122,0.0006,0.0061,-0.0220,-0.0383,-0.0883,-0.2977,0.0274,9.7199,0.0002,0.0000,0.0001,1.0000,-0.0074,0.0006,0.2430
641,Pelvis,2,-0.1192,-0.6464,-0.1418,0.7402,0.0018,0.0006,0.0006,-0.0027,-0.0018,-0.0077,9.7136,0.0644,1.3343,0.0000,0.0000,0.0000,1.0000,0.2428,0.0016,0.0334
643,Pelvis,2,-0.1192,-0.6464,-0.1418,0.7402,0.0018,0.0012,0.0015,0.0066,-0.0058,-0.0041,9.7184,0.0639,1.3249,0.0000,0.0000,0.0000,1.0000,0.4859,0.0032,0.0662
644,Right,2,-0.0082,0.0139,0.4898,0.8717,0.0020,0.0039,0.0049,0.0370,0.0231,-0.0647,-0.2746,-0.0266,9.7442,0.0001,0.0001,0.0002,1.0000,-0.0205,-0.0021,0.7308
644,Left,2,0.0090,0.0135,-0.3528,0.9356,0.0118,0.0018,0.0065,-0.0241,-0.0495,-0.1109,-0.2920,0.0194,9.6976,0.0004,0.0001,0.0002,1.0000,-0.0219,0.0011,0.7273
644,Pelvis,2,-0.1192,-0.6464,-0.1418,0.7402,0.0024,0.0012,0.0006,-0.0036,-0.0023,-0.0077,9.7135,0.0637,1.3351,0.0000,0.0000,0.0000,1.0000,0.2428,0.0016,0.0334
645,Pelvis,2,-0.1192,-0.6464,-0.1418,0.7402,0.0012,0.0012,0.0018,0.0076,0.0036,-0.0186,9.7037,0.0732,1.3255,0.0000,0.0000,0.0000,1.0000,0.2426,0.0018,0.0331
646,Right,2,-0.0082,0.0140,0.4898,0.8717,0.0021,0.0031,0.0049,0.0486,0.0254,-0.0599,-0.2688,-0.0351,9.7492,0.0001,0.0001,0.0001,1.0000,-0.0134,-0.0018,0.4875
646,Left,2,0.0089,0.0137,-0.3528,0.9356,0.0116,0.0027,0.0058,-0.0179,-0.0568,-0.1123,-0.2854,0.0151,9.6963,0.0003,0.0001,0.0001,1.0000,-0.0142,0.0006,0.4848
646,Pelvis,2,-0.1192,-0.6464,-0.1418,0.7402,0.0043,0.0012,0.0012,0.0138,-0.0098,-0.0103,9.7135,0.0631,1.3161,0.0001,0.0000,0.0000,1.0000,0.2428,0.0016,0.0329
647,Right,2,-0.0081,0.0138,0.4900,0.8716,0.0018,0.0037,0.0055,0.0479,0.0258,-0.0551,-0.2651,-0.0343,9.7541,0.0000,0.0000,0.0001,1.0000,-0.0066,-0.0009,0.2439
647,Left,2,0.0088,0.0135,-0.3526,0.9356,0.0116,0.0012,0.0067,-0.0184,-0.0432,-0.1074,-0.2910,0.0245,9.7010,0.0001,0.0000,0.0001,1.0000,-0.0073,0.0006,0.2425
647,Pelvis,2,-0.1192,-0.6464,-0.1418,0.7402,0.0018,0.0018,0.0024,-0.0009,0.0062,-0.0076,9.7134,0.0726,1.3360,0.0000,0.0000,0.0000,1.0000,0.2428,0.0018,0.0334
648,Right,2,-0.0082,0.0139,0.4900,0.8716,0.0024,0.0043,0.0049,0.0483,0.0263,-0.0746,-0.2659,-0.0339,9.7345,0.0000,0.0001,0.0001,1.0000,-0.0066,-0.0009,0.2434
648,Left,2,0.0089,0.0135,-0.3526,0.9356,0.0128,0.0006,0.0061,-0.0224,-0.0495,-0.0974,-0.2915,0.0181,9.7111,0.0002,0.0000,0.0001,1.0000,-0.0073,0.0004,0.2428
648,Pelvis,2,-0.1192,-0.6464,-0.1418,0.7402,0.0024,0.0006,0.0012,-0.0001,0.0055,0.0021,9.7231,0.0722,1.3363,0.0000,0.0000,0.0000,1.0000,0.2431,0.0018,0.0334
649,Right,2,-0.0083,0.0138,0.4900,0.8716,0.0024,0.0031,0.0049,0.0390,0.0191,-0.0646,-0.2767,-0.0330,9.7442,0.0000,0.0000,0.0001,1.0000,-0.0069,-0.0008,0.2436
649,Pelvis,2,-0.1192,-0.6464,-0.1418,0.7402,0.0018,-0.0000,0.0012,0.0038,-0.0068,-0.0090,9.7133,0.0622,1.3266,0.0000,-0.0000,0.0000,1.0000,0.2428,0.0016,0.0332
650,Right,2,-0.0083,0.0137,0.4900,0.8716,0.0018,0.0037,0.0037,0.0455,0.0135,-0.0743,-0.2775,-0.0423,9.7345,0.0000,0.0000,0.0000,1.0000,-0.0069,-0.0011,0.2434
650,Left,2,0.0088,0.0136,-0.3526,0.9356,0.0116,0.0015,0.0073,-0.0153,-0.0543,-0.1024,-0.2822,0.0173,9.7064,0.0003,0.0000,0.0002,1.0000,-0.0141,0.0007,0.4853
650,Pelvis,2,-0.1192,-0.6464,-0.1418,0.7402,0.0018,0.0006,0.0006,0.0024,-0.0064,-0.0187,9.7036,0.0620,1.3267,0.0000,0.0000,0.0000,1.0000,0.2426,0.0016,0.0332
651,Right,2,-0.0084,0.0137,0.4901,0.8715,0.0018,0.0037,0.0049,0.0261,0.0248,-0.0647,-0.2782,-0.0222,9.7441,0.0000,0.0000,0.0001,1.0000,-0.0069,-0.0006,0.2436
651,Left,2,0.0086,0.0136,-0.3527,0.9356,0.0122,0.0018,0.0055,-0.0219,-0.0443,-0.1166,-0.2926,0.0164,9.6918,0.0002,0.0000,0.0001,1.0000,-0.0073,0.0004,0.2423
651,Pelvis,2,-0.1191,-0.6464,-0.1417,0.7402,0.0031,0.0012,0.0024,0.0032,-0.0072,-0.0090,9.7133,0.0617,1.3269,0.0000,0.0000,0.0000,1.0000,0.2428,0.0015,0.0332
652,Right,2,-0.0085,0.0139,0.4901,0.8715,0.0018,0.0031,0.0061,0.0371,0.0221,-0.0744,-0.2791,-0.0316,9.7344,0.0000,0.0000,0.0001,1.0000,-0.0070,-0.0008,0.2434
652,Left,2,0.0087,0.0137,-0.3527,0.9356,0.0110,0.0025,0.0067,-0.0037,-0.0575,-0.1073,-0.2736,0.0193,9.7017,0.0001,0.0000,0.0001,1.0000,-0.0068,0.0004,0.2425
652,Pelvis,2,-0.1191,-0.6464,-0.1417,0.7402,0.0024,0.0012,0.0018,0.0076,0.0012,0.0008,9.7231,0.0710,1.3272,0.0000,0.0000,0.0000,1.0000,0.2431,0.0018,0.0332
653,Right,2,-0.0085,0.0137,0.4901,0.8715,0.0025,0.0049,0.0043,0.0367,0.0288,-0.0453,-0.2706,-0.0310,9.7637,0.0000,0.0001,0.0001,1.0000,-0.0068,-0.0008,0.2441
653,Left,2,0.0085,0.0135,-0.3526,0.9356,0.0134,0.0012,0.0067,-0.0104,-0.0427,-0.0973,-0.2839,0.0228,9.7114,0.0002,0.0000,0.0001,1.0000,-0.0071,0.0005,0.2428
653,Pelvis,2,-0.1191,-0.6464,-0.1417,0.7402,0.0018,0.0018,0.0012,0.0230,-0.0050,-0.0212,9.7035,0.0707,1.3080,0.0000,0.0000,0.0000,1.0000,0.2426,0.0018,0.0327
654,Right,2,-0.0087,0.0139,0.4901,0.8715,0.0025,0.0043,0.0037,0.0294,0.0374,-0.0649,-0.2714,-0.0207,9.7441,0.0000,0.0001,0.0000,1.0000,-0.0068,-0.0005,0.2436
655,Right,2,-0.0086,0.0140,0.4902,0.8715,0.0018,0.0031,0.0049,0.0350,0.0233,-0.0451,-0.2824,-0.0297,9.7636,0.0000,0.0000,0.0001,1.0000,-0.0071,-0.0007,0.2441
655,Pelvis,2,-0.1191,-0.6464,-0.1417,0.7402,0.0018,0.0003,0.0009,0.0013,0.0032,-0.0082,9.7132,0.0705,1.3327,0.0000,0.0000,0.0000,1.0000,0.4857,0.0035,0.0666
656,Right,2,-0.0086,0.0141,0.4902,0.8715,0.0018,0.0037,0.0055,0.0455,0.0403,-0.0553,-0.2636,-0.0295,9.7540,0.0000,0.0000,0.0001,1.0000,-0.0066,-0.0007,0.2439
656,Left,2,0.0085,0.0138,-0.3527,0.9356,0.0118,0.0018,0.0061,-0.0197,-0.0382,-0.1065,-0.2978,0.0222,9.7017,0.0004,0.0001,0.0002,1.0000,-0.0223,0.0013,0.7276
656,Pelvis,2,-0.1191,-0.6464,-0.1417,0.7402,0.0012,0.0018,0.0024,-0.0021,-0.0170,-0.0091,9.7131,0.0505,1.3282,0.0000,0.0000,0.0000,1.0000,0.2428,0.0013,0.0332
657,Right,2,-0.0088,0.0141,0.4902,0.8715,0.0012,0.0031,0.0043,0.0385,0.0343,-0.0648,-0.2741,-0.0291,9.7441,0.0000,0.0000,0.0001,1.0000,-0.0068,-0.0007,0.2436
657,Left,2,0.0084,0.0139,-0.3528,0.9356,0.0110,0.0018,0.0061,-0.0184,-0.0420,-0.1061,-0.2957,0.0149,9.7022,0.0001,0.0000,0.0001,1.0000,-0.0074,0.0003,0.2426
657,Pelvis,2,-0.1191,-0.6464,-0.1417,0.7402,0.0024,0.0006,0.0024,0.0048,0.0009,-0.0089,9.7131,0.0695,1.3284,0.0000,0.0000,0.0000,1.0000,0.2428,0.0017,0.0332
658,Right,2,-0.0087,0.0142,0.4902,0.8714,0.0012,0.0037,0.0030,0.0266,0.0302,-0.0647,-0.2845,-0.0188,9.7439,0.0000,0.0000,0.0000,1.0000,-0.0071,-0.0005,0.2436
658,Left,2,0.0085,0.0139,-0.3527,0.9356,0.0128,0.0024,0.0061,-0.0115,-0.0342,-0.1162,-0.2959,0.0272,9.6920,0.0002,0.0000,0.0001,1.0000,-0.0074,0.0006,0.2423
658,Pelvis,2,-0.1191,-0.6464,-0.1417,0.7402,0.0037,-0.0000,0.0012,0.0045,0.0008,-0.0089,9.7131,0.0692,1.3285,0.0000,-0.0000,0.0000,1.0000,0.2428,0.0017,0.0332
659,Right,2,-0.0086,0.0142,0.4903,0.8714,0.0018,0.0024,0.0037,0.0393,0.0323,-0.0453,-0.2759,-0.0282,9.7636,0.0000,0.0000,0.0000,1.0000,-0.0069,-0.0007,0.2441
659,Left,2,0.0085,0.0138,-0.3526,0.9356,0.0122,0.0006,0.0055,-0.0318,-0.0390,-0.1055,-0.3065,0.0113,9.7025,0.0002,0.0000,0.0001,1.0000,-0.0077,0.0002,0.2426
659,Pelvis,2,-0.1191,-0.6464,-0.1417,0.7402,0.0024,-0.0006,0.0006,0.0054,-0.0000,0.0008,9.7229,0.0690,1.3284,0.0000,-0.0000,0.0000,1.0000,0.2431,0.0017,0.0332
660,Right,2,-0.0087,0.0142,0.4903,0.8714,0.0030,0.0031,0.0061,0.0431,0.0404,-0.0748,-0.2664,-0.0279,9.7344,0.0000,0.0000,0.0001,1.0000,-0.0067,-0.0007,0.2434
660,Left,2,0.0085,0.0138,-0.3526,0.9356,0.0122,0.0024,0.0067,-0.0285,-0.0501,-0.1054,-0.2973,0.0044,9.7029,0.0002,0.0000,0.0001,1.0000,-0.0074,0.0001,0.2426
661,Right,2,-0.0087,0.0140,0.4904,0.8713,0.0018,0.0043,0.0049,0.0472,0.0330,-0.0649,-0.2676,-0.0370,9.7442,0.0000,0.0001,0.0001,1.0000,-0.0067,-0.0009,0.2436
661,Left,2,0.0083,0.0137,-0.3525,0.9357,0.0122,0.0012,0.0067,-0.0212,-0.0367,-0.0960,-0.2976,0.0175,9.7122,0.0002,0.0000,0.0001,1.0000,-0.0074,0.0004,0.2428
661,Pelvis,2,-0.1191,-0.6464,-0.1417,0.7402,0.0012,0.0018,0.0012,0.0053,-0.0108,-0.0048,9.7179,0.0589,1.3240,0.0000,0.0000,0.0000,1.0000,0.4859,0.0030,0.0662
662,Right,2,-0.0087,0.0141,0.4905,0.8713,0.0037,0.0030,0.0049,0.0396,0.0037,-0.0837,-0.2977,-0.0457,9.7244,0.0000,0.0000,0.0001,1.0000,-0.0074,-0.0012,0.2431
662,Left,2,0.0083,0.0138,-0.3526,0.9356,0.0110,0.0012,0.0061,-0.0176,-0.0346,-0.0959,-0.2979,0.0204,9.7122,0.0001,0.0000,0.0001,1.0000,-0.0074,0.0005,0.2428
662,Pelvis,2,-0.1191,-0.6464,-0.1416,0.7402,0.0024,0.0000,0.0018,-0.0112,0.0162,-0.0062,9.7130,0.0782,1.3487,0.0000,0.0000,0.0000,1.0000,0.2428,0.0020,0.0337
663,Right,2,-0.0087,0.0138,0.4906,0.8712,0.0012,0.0031,0.0055,0.0401,0.0102,-0.0546,-0.2890,-0.0451,9.7538,0.0000,0.0000,0.0001,1.0000,-0.0072,-0.0011,0.2438
663,Left,2,0.0082,0.0136,-0.3525,0.9357,0.0104,0.0019,0.0073,-0.0269,-0.0219,-0.1152,-0.3079,0.0225,9.6926,0.0001,0.0000,0.0001,1.0000,-0.0077,0.0005,0.2423
663,Pelvis,2,-0.1191,-0.6465,-0.1416,0.7402,0.0024,-0.0000,0.0000,0.0017,0.0004,-0.0186,9.7033,0.0682,1.3292,0.0000,-0.0000,0.0000,1.0000,0.2426,0.0017,0.0332
664,Right,2,-0.0087,0.0137,0.4907,0.8712,0.0030,0.0037,0.0061,0.0236,0.0404,-0.0651,-0.2698,-0.0156,9.7440,0.0000,0.0000,0.0001,1.0000,-0.0067,-0.0004,0.2436
664,Left,2,0.0082,0.0135,-0.3524,0.9357,0.0122,0.0024,0.0061,-0.0052,-0.0243,-0.0965,-0.2888,0.0354,9.7119,0.0002,0.0000,0.0001,1.0000,-0.0072,0.0008,0.2428
664,Pelvis,2,-0.1191,-0.6465,-0.1417,0.7402,0.0018,0.0006,0.0012,-0.0028,0.0123,-0.0075,9.7131,0.0779,1.3390,0.0000,0.0000,0.0000,1.0000,0.2428,0.0020,0.0335
665,Right,2,-0.0087,0.0138,0.4907,0.8712,0.0018,0.0049,0.0049,0.0294,0.0130,-0.0547,-0.2907,-0.0341,9.7536,0.0000,0.0001,0.0001,1.0000,-0.0073,-0.0009,0.2438
665,Left,2,0.0082,0.0134,-0.3523,0.9357,0.0122,0.0024,0.0055,-0.0246,-0.0433,-0.1052,-0.2900,0.0087,9.7032,0.0002,0.0000,0.0001,1.0000,-0.0072,0.0002,0.2426
665,Pelvis,2,-0.1191,-0.6465,-0.1416,0.7402,0.0018,0.0012,0.0018,0.0023,-0.0006,-0.0089,9.7130,0.0678,1.3295,0.0000,0.0000,0.0000,1.0000,0.2428,0.0017,0.0332
666,Right,2,-0.0087,0.0137,0.4908,0.8711,0.0031,0.0037,0.0043,0.0317,0.0190,-0.0842,-0.2817,-0.0338,9.7244,0.0000,0.0000,0.0001,1.0000,-0.0070,-0.0009,0.2431
666,Left,2,0.0081,0.0133,-0.3523,0.9358,0.0110,0.0006,0.0067,-0.0122,-0.0242,-0.1254,-0.2898,0.0303,9.6829,0.0001,0.0000,0.0001,1.0000,-0.0072,0.0007,0.2421
666,Pelvis,2,-0.1190,-0.6465,-0.1416,0.7402,0.0031,0.0006,0.0012,0.0019,-0.0007,-0.0089,9.7130,0.0675,1.3297,0.0000,0.0000,0.0000,1.0000,0.2428,0.0017,0.0332
667,Right,2,-0.0085,0.0137,0.4910,0.8710,0.0018,0.0037,0.0061,0.0461,0.0193,-0.0843,-0.2730,-0.0431,9.7246,0.0000,0.0000,0.0001,1.0000,-0.0068,-0.0011,0.2431
667,Left,2,0.0082,0.0132,-0.3521,0.9358,0.0140,0.0012,0.0073,-0.0252,-0.0376,-0.1052,-0.2906,0.0147,9.7032,0.0002,0.0000,0.0001,1.0000,-0.0073,0.0003,0.2426
667,Pelvis,2,-0.1190,-0.6465,-0.1416,0.7402,0.0012,0.0006,0.0018,-0.0110,-0.0064,-0.0077,9.7129,0.0575,1.3397,0.0000,0.0000,0.0000,1.0000,0.2428,0.0014,0.0335
668,Left,2,0.0081,0.0131,-0.3521,0.9358,0.0104,0.0018,0.0049,-0.0322,-0.0271,-0.1050,-0.3007,0.0179,9.7031,0.0001,0.0000,0.0001,1.0000,-0.0075,0.0004,0.2426
668,Pelvis,2,-0.1190,-0.6465,-0.1416,0.7402,0.0024,-0.0000,0.0006,0.0049,0.0079,-0.0088,9.7130,0.0767,1.3298,0.0000,-0.0000,0.0000,1.0000,0.2428,0.0019,0.0332
669,Right,2,-0.0085,0.0136,0.4911,0.8710,0.0021,0.0040,0.0052,0.0359,0.0238,-0.0502,-0.2746,-0.0323,9.7587,0.0001,0.0001,0.0001,1.0000,-0.0137,-0.0016,0.4879
669,Left,2,0.0082,0.0131,-0.3520,0.9359,0.0134,0.0012,0.0055,-0.0397,-0.0186,-0.1242,-0.3107,0.0202,9.6835,0.0002,0.0000,0.0001,1.0000,-0.0078,0.0005,0.2421
669,Pelvis,2,-0.1190,-0.6465,-0.1416,0.7402,0.0006,0.0006,0.0012,0.0010,-0.0014,-0.0089,9.7129,0.0668,1.3300,0.0000,0.0000,0.0000,1.0000,0.2428,0.0017,0.0332
670,Right,2,-0.0085,0.0134,0.4912,0.8709,0.0018,0.0037,0.0055,0.0413,0.0377,-0.0750,-0.2562,-0.0320,9.7345,0.0000,0.0000,0.0001,1.0000,-0.0064,-0.0008,0.2434
670,Left,2,0.0080,0.0130,-0.3520,0.9359,0.0116,0.0012,0.0073,-0.0361,-0.0258,-0.1046,-0.3016,0.0141,9.7035,0.0001,0.0000,0.0001,1.0000,-0.0075,0.0003,0.2426
670,Pelvis,2,-0.1190,-0.6465,-0.1416,0.7402,0.0031,0.0018,0.0006,0.0042,0.0075,-0.0088,9.7130,0.0764,1.3302,0.0000,0.0000,0.0000,1.0000,0.2428,0.0019,0.0332
671,Right,2,-0.0083,0.0134,0.4914,0.8708,0.0012,0.0043,0.0049,0.0361,0.0242,-0.0650,-0.2671,-0.0314,9.7441,0.0000,0.0001,0.0001,1.0000,-0.0067,-0.0008,0.2436
671,Left,2,0.0080,0.0128,-0.3517,0.9360,0.0122,0.0024,0.0049,-0.0252,-0.0220,-0.1052,-0.2920,0.0266,9.7031,0.0002,0.0000,0.0001,1.0000,-0.0073,0.0006,0.2426
671,Pelvis,2,-0.1190,-0.6465,-0.1416,0.7402,0.0018,0.0006,0.0024,0.0014,-0.0023,0.0008,9.7226,0.0663,1.3306,0.0000,0.0000,0.0000,1.0000,0.2431,0.0017,0.0333
672,Right,2,-0.0082,0.0136,0.4915,0.8708,0.0024,0.0043,0.0049,0.0477,0.0187,-0.0845,-0.2681,-0.0408,9.7246,0.0000,0.0001,0.0001,1.0000,-0.0067,-0.0010,0.2431
672,Pelvis,2,-0.1190,-0.6465,-0.1416,0.7402,0.0018,0.0006,0.0006,0.0168,-0.0085,-0.0211,9.7031,0.0659,1.3112,0.0000,0.0000,0.0000,1.0000,0.2426,0.0016,0.0328
673,Right,2,-0.0083,0.0137,0.4914,0.8708,0.0030,0.0037,0.0055,0.0343,0.0189,-0.0648,-0.2789,-0.0300,9.7439,0.0000,0.0000,0.0001,1.0000,-0.0070,-0.0008,0.2436
673,Left,2,0.0083,0.0128,-0.3516,0.9360,0.0122,0.0015,0.0058,-0.0410,-0.0274,-0.1044,-0.3028,0.0167,9.7037,0.0003,0.0000,0.0001,1.0000,-0.0151,0.0007,0.4852
673,Pelvis,2,-0.1190,-0.6465,-0.1416,0.7402,0.0018,0.0012,0.0012,0.0008,-0.0027,0.0008,9.7226,0.0658,1.3310,0.0000,0.0000,0.0000,1.0000,0.2431,0.0016,0.0333
674,Right,2,-0.0085,0.0138,0.4914,0.8708,0.0012,0.0031,0.0043,0.0441,0.0374,-0.0652,-0.2602,-0.0298,9.7441,0.0000,0.0000,0.0001,1.0000,-0.0065,-0.0007,0.2436
674,Left,2,0.0082,0.0130,-0.3517,0.9360,0.0122,0.0018,0.0055,-0.0245,-0.0255,-0.1048,-0.2935,0.0259,9.7035,0.0002,0.0000,0.0001,1.0000,-0.0073,0.0006,0.2426
674,Pelvis,2,-0.1190,-0.6465,-0.1416,0.7402,0.0018,0.0006,0.0000,0.0095,-0.0064,-0.0005,9.7226,0.0657,1.3214,0.0000,0.0000,0.0000,1.0000,0.2431,0.0016,0.0330
675,Right,2,-0.0087,0.0137,0.4914,0.8708,0.0024,0.0031,0.0055,0.0424,0.0268,-0.0649,-0.2708,-0.0389,9.7441,0.0000,0.0000,0.0001,1.0000,-0.0068,-0.0010,0.2436
675,Left,2,0.0079,0.0131,-0.3519,0.9359,0.0116,0.0012,0.0061,-0.0181,-0.0330,-0.0949,-0.2843,0.0192,9.7137,0.0001,0.0000,0.0001,1.0000,-0.0071,0.0004,0.2428
675,Pelvis,2,-0.1190,-0.6465,-0.1416,0.7402,0.0018,-0.0000,0.0012,-0.0280,0.0083,-0.0050,9.7127,0.0659,1.3605,0.0000,-0.0000,0.0000,1.0000,0.2428,0.0017,0.0340
676,Right,2,-0.0087,0.0139,0.4914,0.8708,0.0024,0.0049,0.0055,0.0391,0.0196,-0.0745,-0.2815,-0.0382,9.7341,0.0000,0.0001,0.0001,1.0000,-0.0070,-0.0010,0.2434
676,Left,2,0.0080,0.0132,-0.3520,0.9359,0.0110,0.0012,0.0067,-0.0203,-0.0399,-0.0847,-0.2849,0.0127,9.7239,0.0001,0.0000,0.0001,1.0000,-0.0071,0.0003,0.2431
676,Pelvis,2,-0.1190,-0.6465,-0.1416,0.7402,0.0012,0.0012,0.0030,0.0023,0.0064,-0.0088,9.7128,0.0750,1.3313,0.0000,0.0000,0.0000,1.0000,0.2428,0.0019,0.0333
677,Right,2,-0.0087,0.0137,0.4915,0.8707,0.0006,0.0043,0.0036,0.0382,0.0397,-0.0554,-0.2631,-0.0282,9.7538,0.0000,0.0001,0.0000,1.0000,-0.0066,-0.0007,0.2438
677,Left,2,0.0079,0.0131,-0.3519,0.9359,0.0116,0.0006,0.0061,-0.0156,-0.0143,-0.1145,-0.2943,0.0340,9.6937,0.0001,0.0000,0.0001,1.0000,-0.0074,0.0008,0.2423
677,Pelvis,2,-0.1189,-0.6465,-0.1416,0.7402,0.0024,0.0024,0.0006,-0.0149,0.0128,0.0035,9.7225,0.0747,1.3513,0.0000,0.0000,0.0000,1.0000,0.2431,0.0019,0.0338
678,Right,2,-0.0088,0.0138,0.4915,0.8707,0.0037,0.0030,0.0049,0.0448,0.0365,-0.0651,-0.2641,-0.0375,9.7441,0.0000,0.0000,0.0001,1.0000,-0.0066,-0.0009,0.2436
678,Left,2,0.0078,0.0132,-0.3521,0.9359,0.0116,0.0018,0.0049,-0.0316,-0.0189,-0.1233,-0.3048,0.0171,9.6847,0.0001,0.0000,0.0001,1.0000,-0.0076,0.0004,0.2421
678,Pelvis,2,-0.1189,-0.6465,-0.1416,0.7402,0.0031,0.0006,0.0018,-0.0073,0.0096,-0.0075,9.7127,0.0745,1.3419,0.0000,0.0000,0.0000,1.0000,0.2428,0.0019,0.0335
679,Right,2,-0.0087,0.0138,0.4916,0.8707,0.0037,0.0030,0.0037,0.0344,0.0181,-0.0452,-0.2846,-0.0361,9.7634,0.0000,0.0000,0.0000,1.0000,-0.0071,-0.0009,0.2441
679,Left,2,0.0078,0.0132,-0.3520,0.9359,0.0116,0.0006,0.0061,-0.0151,-0.0293,-0.0749,-0.2858,0.0216,9.7336,0.0001,0.0000,0.0001,1.0000,-0.0071,0.0005,0.2433
679,Pelvis,2,-0.1189,-0.6465,-0.1416,0.7402,0.0012,-0.0000,0.0006,0.0013,0.0058,-0.0088,9.7127,0.0742,1.3322,0.0000,-0.0000,0.0000,1.0000,0.2428,0.0019,0.0333
680,Right,2,-0.0088,0.0138,0.4916,0.8707,0.0024,0.0043,0.0055,0.0340,0.0406,-0.0847,-0.2653,-0.0262,9.7245,0.0000,0.0001,0.0001,1.0000,-0.0066,-0.0007,0.2431
680,Left,2,0.0077,0.0132,-0.3520,0.9359,0.0116,0.0012,0.0061,-0.0255,-0.0257,-0.0841,-0.2959,0.0145,9.7242,0.0001,0.0000,0.0001,1.0000,-0.0074,0.0003,0.2431
680,Pelvis,2,-0.1189,-0.6465,-0.1416,0.7402,0.0012,0.0006,0.0012,-0.0015,-0.0040,0.0008,9.7224,0.0642,1.3324,0.0000,0.0000,0.0000,1.0000,0.2431,0.0016,0.0333
681,Right,2,-0.0086,0.0139,0.4917,0.8706,0.0024,0.0037,0.0049,0.0455,0.0329,-0.0651,-0.2667,-0.0352,9.7440,0.0000,0.0000,0.0001,1.0000,-0.0067,-0.0009,0.2436
681,Left,2,0.0078,0.0132,-0.3518,0.9359,0.0104,0.0025,0.0061,-0.0202,-0.0324,-0.1038,-0.2865,0.0162,9.7047,0.0001,0.0000,0.0001,1.0000,-0.0072,0.0004,0.2426
681,Pelvis,2,-0.1189,-0.6465,-0.1416,0.7402,0.0018,0.0012,0.0006,-0.0095,0.0096,-0.0172,9.7029,0.0740,1.3422,0.0000,0.0000,0.0000,1.0000,0.2426,0.0018,0.0336
682,Right,2,-0.0086,0.0139,0.4918,0.8706,0.0012,0.0037,0.0049,0.0474,0.0187,-0.0746,-0.2774,-0.0444,9.7342,0.0000,0.0000,0.0001,1.0000,-0.0069,-0.0011,0.2434
682,Left,2,0.0078,0.0131,-0.3518,0.9360,0.0128,0.0024,0.0061,-0.0330,-0.0163,-0.1033,-0.3066,0.0195,9.7046,0.0002,0.0000,0.0001,1.0000,-0.0077,0.0004,0.2426
682,Pelvis,2,-0.1189,-0.6465,-0.1415,0.7402,0.0012,0.0018,0.0024,-0.0190,0.0022,0.0131,9.7320,0.0638,1.3525,0.0000,0.0000,0.0000,1.0000,0.2433,0.0016,0.0338
683,Right,2,-0.0086,0.0138,0.4918,0.8705,0.0025,0.0043,0.0031,0.0341,0.0361,-0.0554,-0.2685,-0.0244,9.7537,0.0000,0.0001,0.0000,1.0000,-0.0067,-0.0006,0.2438
683,Left,2,0.0078,0.0131,-0.3517,0.9360,0.0135,0.0030,0.0055,-0.0398,-0.0198,-0.1224,-0.3074,0.0121,9.6855,0.0002,0.0000,0.0001,1.0000,-0.0077,0.0003,0.2421
683,Pelvis,2,-0.1189,-0.6465,-0.1415,0.7402,0.0031,0.0012,0.0012,-0.0090,0.0086,-0.0075,9.7125,0.0732,1.3430,0.0000,0.0000,0.0000,1.0000,0.2428,0.0018,0.0336
684,Right,2,-0.0086,0.0139,0.4919,0.8705,0.0024,0.0037,0.0067,0.0396,0.0434,-0.0751,-0.2594,-0.0241,9.7343,0.0000,0.0000,0.0001,1.0000,-0.0065,-0.0006,0.2434
684,Left,2,0.0079,0.0131,-0.3517,0.9360,0.0134,0.0012,0.0067,-0.0152,-0.0385,-0.0939,-0.2788,0.0160,9.7149,0.0002,0.0000,0.0001,1.0000,-0.0070,0.0004,0.2429
684,Pelvis,2,-0.1189,-0.6465,-0.1415,0.7402,0.0006,0.0018,0.0012,-0.0015,0.0054,-0.0184,9.7028,0.0729,1.3335,0.0000,0.0000,0.0000,1.0000,0.2426,0.0018,0.0333
685,Right,2,-0.0087,0.0138,0.4919,0.8705,0.0025,0.0037,0.0031,0.0482,0.0253,-0.0650,-0.2706,-0.0427,9.7440,0.0000,0.0000,0.0000,1.0000,-0.0068,-0.0011,0.2436
685,Left,2,0.0079,0.0130,-0.3517,0.9360,0.0140,0.0006,0.0061,-0.0348,-0.0284,-0.0832,-0.2988,0.0106,9.7250,0.0002,0.0000,0.0001,1.0000,-0.0075,0.0002,0.2431
685,Pelvis,2,-0.1189,-0.6465,-0.1416,0.7402,0.0012,-0.0000,0.0006,-0.0043,-0.0044,-0.0089,9.7124,0.0629,1.3339,0.0000,-0.0000,0.0000,1.0000,0.2428,0.0016,0.0333
686,Right,2,-0.0087,0.0137,0.4920,0.8704,0.0006,0.0031,0.0061,0.0421,0.0374,-0.0750,-0.2613,-0.0328,9.7343,0.0000,0.0000,0.0001,1.0000,-0.0065,-0.0008,0.2434
686,Left,2,0.0078,0.0130,-0.3517,0.9360,0.0128,0.0018,0.0049,-0.0278,-0.0170,-0.1129,-0.2987,0.0223,9.6952,0.0002,0.0000,0.0001,1.0000,-0.0075,0.0005,0.2424
686,Pelvis,2,-0.1189,-0.6465,-0.1415,0.7402,0.0024,0.0000,0.0024,-0.0136,-0.0010,-0.0076,9.7124,0.0627,1.3436,0.0000,0.0000,0.0000,1.0000,0.2428,0.0016,0.0336
687,Right,2,-0.0087,0.0139,0.4920,0.8704,0.0018,0.0037,0.0055,0.0447,0.0384,-0.0652,-0.2623,-0.0324,9.7440,0.0000,0.0000,0.0001,1.0000,-0.0065,-0.0008,0.2436
687,Left,2,0.0079,0.0131,-0.3516,0.9360,0.0116,0.0018,0.0061,-0.0177,-0.0242,-0.1034,-0.2894,0.0255,9.7050,0.0001,0.0000,0.0001,1.0000,-0.0072,0.0006,0.2426
687,Pelvis,2,-0.1189,-0.6465,-0.1415,0.7402,0.0012,0.0012,0.0024,0.0041,-0.0083,-0.0102,9.7125,0.0620,1.3242,0.0000,0.0000,0.0000,1.0000,0.2428,0.0016,0.0331
688,Right,2,-0.0087,0.0139,0.4921,0.8704,0.0024,0.0037,0.0043,0.0394,0.0306,-0.0651,-0.2730,-0.0317,9.7439,0.0000,0.0000,0.0001,1.0000,-0.0068,-0.0008,0.2436
688,Left,2,0.0079,0.0131,-0.3516,0.9360,0.0122,0.0024,0.0067,-0.0223,-0.0293,-0.1029,-0.2902,0.0187,9.7055,0.0002,0.0000,0.0001,1.0000,-0.0072,0.0004,0.2426
688,Pelvis,2,-0.1189,-0.6465,-0.1415,0.7402,0.0018,-0.0000,0.0012,-0.0232,0.0022,-0.0063,9.7123,0.0619,1.3537,0.0000,-0.0000,0.0000,1.0000,0.2428,0.0015,0.0338
689,Right,2,-0.0087,0.0140,0.4921,0.8704,0.0024,0.0043,0.0055,0.0473,0.0252,-0.0650,-0.2741,-0.0408,9.7439,0.0000,0.0001,0.0001,1.0000,-0.0068,-0.0010,0.2436
689,Left,2,0.0079,0.0132,-0.3516,0.9360,0.0122,0.0012,0.0067,-0.0261,-0.0199,-0.0929,-0.3005,0.0224,9.7151,0.0002,0.0000,0.0001,1.0000,-0.0075,0.0005,0.2429
689,Pelvis,2,-0.1189,-0.6465,-0.1415,0.7402,0.0018,0.0012,0.0006,-0.0146,-0.0016,-0.0076,9.7124,0.0616,1.3441,0.0000,0.0000,0.0000,1.0000,0.2428,0.0015,0.0336
690,Pelvis,2,-0.1189,-0.6465,-0.1415,0.7402,0.0012,-0.0006,0.0012,0.0043,-0.0095,-0.0005,9.7222,0.0612,1.3246,0.0000,-0.0000,0.0000,1.0000,0.2431,0.0015,0.0331
691,Right,2,-0.0087,0.0140,0.4922,0.8703,0.0018,0.0037,0.0052,0.0480,0.0369,-0.0505,-0.2659,-0.0352,9.7586,0.0000,0.0001,0.0001,1.0000,-0.0132,-0.0018,0.4879
691,Left,2,0.0080,0.0132,-0.3515,0.9360,0.0134,0.0018,0.0073,-0.0242,-0.0324,-0.1025,-0.2915,0.0167,9.7059,0.0003,0.0000,0.0002,1.0000,-0.0146,0.0007,0.4853
691,Pelvis,2,-0.1189,-0.6465,-0.1415,0.7402,0.0031,0.0012,0.0024,-0.0062,-0.0055,-0.0089,9.7124,0.0610,1.3344,0.0000,0.0000,0.0000,1.0000,0.2428,0.0015,0.0334
692,Right,2,-0.0087,0.0140,0.4923,0.8703,0.0030,0.0030,0.0061,0.0416,0.0385,-0.0848,-0.2666,-0.0297,9.7244,0.0000,0.0000,0.0001,1.0000,-0.0067,-0.0008,0.2431
692,Left,2,0.0080,0.0132,-0.3516,0.9360,0.0122,-0.0001,0.0043,-0.0216,-0.0135,-0.1027,-0.3014,0.0316,9.7053,0.0002,-0.0000,0.0001,1.0000,-0.0075,0.0008,0.2426
692,Pelvis,2,-0.1189,-0.6465,-0.1415,0.7402,0.0006,0.0018,0.0012,-0.0029,0.0033,-0.0088,9.7124,0.0704,1.3347,0.0000,0.0000,0.0000,1.0000,0.2428,0.0018,0.0334
693,Right,2,-0.0087,0.0141,0.4923,0.8703,0.0012,0.0037,0.0055,0.0503,0.0337,-0.0651,-0.2679,-0.0388,9.7440,0.0000,0.0000,0.0001,1.0000,-0.0067,-0.0010,0.2436
693,Left,2,0.0080,0.0132,-0.3515,0.9360,0.0122,0.0025,0.0079,-0.0188,-0.0253,-0.1220,-0.2921,0.0236,9.6863,0.0002,0.0000,0.0001,1.0000,-0.0073,0.0006,0.2422
693,Pelvis,2,-0.1189,-0.6465,-0.1415,0.7402,0.0018,0.0006,0.0012,0.0148,-0.0040,-0.0113,9.7124,0.0700,1.3155,0.0000,0.0000,0.0000,1.0000,0.2428,0.0018,0.0329
694,Right,2,-0.0087,0.0141,0.4924,0.8702,0.0024,0.0037,0.0061,0.0415,0.0382,-0.0848,-0.2683,-0.0287,9.7244,0.0000,0.0000,0.0001,1.0000,-0.0067,-0.0007,0.2431
694,Left,2,0.0080,0.0133,-0.3515,0.9360,0.0110,0.0024,0.0061,-0.0297,-0.0238,-0.1018,-0.3028,0.0179,9.7062,0.0001,0.0000,0.0001,1.0000,-0.0076,0.0004,0.2427
694,Pelvis,2,-0.1189,-0.6465,-0.1415,0.7402,0.0024,0.0012,0.0018,-0.0113,0.0060,0.0022,9.7220,0.0698,1.3450,0.0000,0.0000,0.0000,1.0000,0.2431,0.0018,0.0336
695,Right,2,-0.0088,0.0140,0.4924,0.8702,0.0025,0.0043,0.0043,0.0287,0.0218,-0.0551,-0.2892,-0.0274,9.7533,0.0000,0.0001,0.0001,1.0000,-0.0072,-0.0007,0.2438
695,Left,2,0.0079,0.0133,-0.3515,0.9360,0.0128,0.0018,0.0067,-0.0277,-0.0193,-0.1018,-0.3033,0.0209,9.7062,0.0002,0.0000,0.0001,1.0000,-0.0076,0.0005,0.2427
695,Pelvis,2,-0.1188,-0.6465,-0.1414,0.7402,0.0031,0.0012,0.0006,0.0050,-0.0001,-0.0101,9.7123,0.0695,1.3258,0.0000,0.0000,0.0000,1.0000,0.2428,0.0017,0.0331
696,Right,2,-0.0087,0.0141,0.4925,0.8702,0.0018,0.0043,0.0049,0.0389,0.0371,-0.0652,-0.2706,-0.0273,9.7438,0.0000,0.0001,0.0001,1.0000,-0.0068,-0.0007,0.2436
696,Left,2,0.0078,0.0133,-0.3515,0.9361,0.0122,0.0012,0.0055,-0.0310,-0.0237,-0.0916,-0.3040,0.0147,9.7164,0.0002,0.0000,0.0001,1.0000,-0.0076,0.0003,0.2429
696,Pelvis,2,-0.1188,-0.6466,-0.1414,0.7402,0.0018,0.0006,0.0031,-0.0133,0.0068,-0.0075,9.7122,0.0693,1.3455,0.0000,0.0000,0.0000,1.0000,0.2428,0.0017,0.0336
697,Right,2,-0.0088,0.0140,0.4925,0.8701,0.0012,0.0031,0.0043,0.0535,0.0260,-0.0650,-0.2719,-0.0464,9.7440,0.0000,0.0000,0.0001,1.0000,-0.0068,-0.0012,0.2436
697,Left,2,0.0078,0.0133,-0.3515,0.9361,0.0122,0.0024,0.0061,-0.0226,-0.0266,-0.1016,-0.2946,0.0170,9.7067,0.0002,0.0000,0.0001,1.0000,-0.0074,0.0004,0.2427
697,Pelvis,2,-0.1188,-0.6466,-0.1414,0.7402,0.0024,0.0012,-0.0000,0.0134,-0.0041,-0.0113,9.7123,0.0688,1.3164,0.0000,0.0000,-0.0000,1.0000,0.2428,0.0017,0.0329
698,Right,2,-0.0088,0.0140,0.4926,0.8701,0.0012,0.0043,0.0049,0.0470,0.0179,-0.0746,-0.2824,-0.0460,9.7340,0.0000,0.0001,0.0001,1.0000,-0.0070,-0.0012,0.2434
698,Left,2,0.0077,0.0134,-0.3515,0.9361,0.0128,0.0024,0.0055,-0.0256,-0.0302,-0.0914,-0.2955,0.0108,9.7169,0.0002,0.0000,0.0001,1.0000,-0.0074,0.0002,0.2429
698,Pelvis,2,-0.1188,-0.6466,-0.1414,0.7402,0.0006,0.0006,0.0018,-0.0086,-0.0062,-0.0089,9.7121,0.0590,1.3363,0.0000,0.0000,0.0000,1.0000,0.2428,0.0015,0.0334
699,Right,2,-0.0089,0.0139,0.4926,0.8701,0.0025,0.0055,0.0030,0.0275,0.0280,-0.0748,-0.2832,-0.0260,9.7338,0.0000,0.0001,0.0000,1.0000,-0.0071,-0.0007,0.2433
699,Left,2,0.0076,0.0134,-0.3515,0.9360,0.0128,0.0024,0.0061,-0.0169,-0.0190,-0.1015,-0.2958,0.0232,9.7067,0.0002,0.0000,0.0001,1.0000,-0.0074,0.0005,0.2427
699,Pelvis,2,-0.1188,-0.6466,-0.1414,0.7402,0.0024,0.0006,0.0006,0.0038,-0.0009,-0.0101,9.7122,0.0685,1.3266,0.0000,0.0000,0.0000,1.0000,0.2428,0.0017,0.0332
700,Right,2,-0.0090,0.0138,0.4926,0.8701,0.0024,0.0024,0.0067,0.0366,0.0324,-0.0553,-0.2749,-0.0352,9.7536,0.0000,0.0000,0.0001,1.0000,-0.0069,-0.0009,0.2438
700,Left,2,0.0074,0.0134,-0.3516,0.9360,0.0122,0.0000,0.0068,-0.0217,-0.0206,-0.1206,-0.2962,0.0155,9.6876,0.0002,0.0000,0.0001,1.0000,-0.0074,0.0004,0.2422
700,Pelvis,2,-0.1188,-0.6465,-0.1414,0.7402,0.0024,0.0024,0.0018,-0.0055,0.0025,-0.0088,9.7121,0.0683,1.3367,0.0000,0.0000,0.0000,1.0000,0.2428,0.0017,0.0334
701,Right,2,-0.0092,0.0137,0.4926,0.8701,0.0024,0.0037,0.0043,0.0428,0.0499,-0.0654,-0.2560,-0.0350,9.7441,0.0000,0.0000,0.0001,1.0000,-0.0064,-0.0009,0.2436
701,Left,2,0.0073,0.0134,-0.3517,0.9360,0.0122,0.0024,0.0067,-0.0242,-0.0222,-0.1103,-0.2968,0.0093,9.6979,0.0002,0.0000,0.0001,1.0000,-0.0074,0.0002,0.2424
701,Pelvis,2,-0.1188,-0.6466,-0.1414,0.7402,0.0030,-0.0006,0.0012,0.0031,-0.0013,-0.0101,9.7121,0.0680,1.3272,0.0000,-0.0000,0.0000,1.0000,0.2428,0.0017,0.0332
702,Right,2,-0.0093,0.0138,0.4926,0.8701,0.0012,0.0018,0.0049,0.0265,0.0265,-0.0844,-0.2856,-0.0341,9.7241,0.0000,0.0000,0.0001,1.0000,-0.0071,-0.0009,0.2431
702,Left,2,0.0072,0.0135,-0.3518,0.9360,0.0122,0.0019,0.0079,-0.0208,-0.0064,-0.1203,-0.3068,0.0218,9.6875,0.0002,0.0000,0.0001,1.0000,-0.0077,0.0005,0.2422
702,Pelvis,2,-0.1188,-0.6466,-0.1413,0.7402,0.0018,0.0024,0.0012,-0.0098,-0.0069,-0.0089,9.7120,0.0581,1.3372,0.0000,0.0000,0.0000,1.0000,0.2428,0.0015,0.0334
703,Right,2,-0.0093,0.0137,0.4926,0.8701,0.0024,0.0031,0.0061,0.0215,0.0409,-0.0554,-0.2767,-0.0238,9.7534,0.0000,0.0000,0.0001,1.0000,-0.0069,-0.0006,0.2438
703,Left,2,0.0072,0.0136,-0.3518,0.9359,0.0116,0.0012,0.0061,-0.0167,-0.0167,-0.0908,-0.2978,0.0163,9.7173,0.0001,0.0000,0.0001,1.0000,-0.0074,0.0004,0.2429
703,Pelvis,2,-0.1188,-0.6465,-0.1413,0.7402,0.0018,0.0018,0.0012,0.0061,0.0074,-0.0099,9.7121,0.0773,1.3278,0.0000,0.0000,0.0000,1.0000,0.2428,0.0019,0.0332
704,Right,2,-0.0093,0.0138,0.4926,0.8701,0.0024,0.0030,0.0049,0.0391,0.0304,-0.0747,-0.2776,-0.0429,9.7341,0.0000,0.0000,0.0001,1.0000,-0.0069,-0.0011,0.2434
704,Left,2,0.0072,0.0136,-0.3518,0.9359,0.0122,0.0024,0.0067,-0.0210,-0.0087,-0.0906,-0.3080,0.0195,9.7172,0.0002,0.0000,0.0001,1.0000,-0.0077,0.0004,0.2429
704,Pelvis,2,-0.1188,-0.6465,-0.1413,0.7402,0.0018,0.0006,0.0018,-0.0093,-0.0079,0.0008,9.7217,0.0575,1.3381,0.0000,0.0000,0.0000,1.0000,0.2430,0.0014,0.0335
705,Left,2,0.0072,0.0137,-0.3518,0.9359,0.0116,0.0018,0.0055,-0.0255,-0.0127,-0.0901,-0.3088,0.0126,9.7177,0.0001,0.0000,0.0001,1.0000,-0.0077,0.0003,0.2429
705,Pelvis,2,-0.1187,-0.6466,-0.1413,0.7402,0.0024,-0.0000,0.0006,-0.0071,0.0016,-0.0088,9.7120,0.0671,1.3380,0.0000,-0.0000,0.0000,1.0000,0.2428,0.0017,0.0335
706,Right,2,-0.0094,0.0138,0.4927,0.8700,0.0012,0.0037,0.0052,0.0313,0.0400,-0.0554,-0.2740,-0.0324,9.7535,0.0000,0.0001,0.0001,1.0000,-0.0137,-0.0016,0.4877
706,Left,2,0.0072,0.0137,-0.3518,0.9359,0.0128,0.0012,0.0067,-0.0013,-0.0298,-0.0908,-0.2799,0.0149,9.7179,0.0002,0.0000,0.0001,1.0000,-0.0070,0.0003,0.2429
706,Pelvis,2,-0.1187,-0.6466,-0.1413,0.7402,0.0018,0.0018,0.0006,-0.0111,-0.0077,-0.0089,9.7119,0.0572,1.3383,0.0000,0.0000,0.0000,1.0000,0.2428,0.0014,0.0335
707,Right,2,-0.0094,0.0138,0.4928,0.8700,0.0025,0.0043,0.0043,0.0361,0.0521,-0.0654,-0.2607,-0.0321,9.7440,0.0000,0.0001,0.0001,1.0000,-0.0065,-0.0008,0.2436
707,Left,2,0.0071,0.0137,-0.3518,0.9359,0.0116,0.0012,0.0049,-0.0208,-0.0208,-0.1093,-0.2999,0.0076,9.6988,0.0001,0.0000,0.0001,1.0000,-0.0075,0.0002,0.2425
707,Pelvis,2,-0.1187,-0.6466,-0.1414,0.7402,-0.0006,0.0000,0.0012,-0.0114,-0.0079,-0.0089,9.7118,0.0570,1.3385,-0.0000,0.0000,0.0000,1.0000,0.2428,0.0014,0.0335
708,Right,2,-0.0095,0.0137,0.4928,0.8700,0.0031,0.0030,0.0037,0.0201,0.0490,-0.0849,-0.2708,-0.0217,9.7242,0.0000,0.0000,0.0000,1.0000,-0.0068,-0.0006,0.2431
708,Left,2,0.0070,0.0138,-0.3519,0.9359,0.0122,0.0024,0.0055,-0.0106,-0.0099,-0.1001,-0.3001,0.0208,9.7080,0.0002,0.0000,0.0001,1.0000,-0.0075,0.0005,0.2427
708,Pelvis,2,-0.1187,-0.6466,-0.1413,0.7402,0.0030,0.0006,0.0024,-0.0182,0.0052,-0.0172,9.7021,0.0665,1.3483,0.0000,0.0000,0.0000,1.0000,0.2426,0.0017,0.0337
709,Right,2,-0.0095,0.0137,0.4929,0.8699,0.0006,0.0031,0.0049,0.0358,0.0377,-0.0553,-0.2724,-0.0404,9.7536,0.0000,0.0000,0.0001,1.0000,-0.0068,-0.0010,0.2438
709,Left,2,0.0071,0.0137,-0.3518,0.9359,0.0122,-0.0000,0.0055,-0.0237,-0.0215,-0.0991,-0.3009,0.0043,9.7090,0.0002,-0.0000,0.0001,1.0000,-0.0075,0.0001,0.2427
709,Pelvis,2,-0.1187,-0.6466,-0.1413,0.7402,0.0012,0.0012,0.0018,0.0006,-0.0028,-0.0101,9.7119,0.0658,1.3290,0.0000,0.0000,0.0000,1.0000,0.2428,0.0017,0.0332
710,Right,2,-0.0095,0.0136,0.4930,0.8699,0.0024,0.0030,0.0049,0.0476,0.0400,-0.0456,-0.2638,-0.0499,9.7636,0.0000,0.0000,0.0001,1.0000,-0.0066,-0.0013,0.2441
710,Left,2,0.0070,0.0137,-0.3517,0.9360,0.0116,0.0012,0.0061,-0.0089,-0.0038,-0.1000,-0.3005,0.0268,9.7080,0.0001,0.0000,0.0001,1.0000,-0.0075,0.0006,0.2427
710,Pelvis,2,-0.1187,-0.6466,-0.1413,0.7402,0.0024,0.0012,0.0018,-0.0087,0.0006,-0.0088,9.7118,0.0655,1.3390,0.0000,0.0000,0.0000,1.0000,0.2428,0.0016,0.0335
711,Right,2,-0.0095,0.0135,0.4930,0.8699,0.0012,0.0031,0.0037,0.0130,0.0240,-0.0648,-0.2931,-0.0295,9.7434,0.0000,0.0000,0.0000,1.0000,-0.0073,-0.0007,0.2436
711,Left,2,0.0070,0.0136,-0.3517,0.9360,0.0116,0.0018,0.0067,-0.0211,-0.0145,-0.0893,-0.3015,0.0107,9.7187,0.0001,0.0000,0.0001,1.0000,-0.0075,0.0002,0.2430
711,Pelvis,2,-0.1187,-0.6466,-0.1413,0.7402,0.0018,0.0018,0.0018,-0.0000,-0.0032,-0.0101,9.7118,0.0651,1.3296,0.0000,0.0000,0.0000,1.0000,0.2428,0.0016,0.0332
712,Right,2,-0.0094,0.0135,0.4932,0.8698,0.0031,0.0037,0.0043,0.0290,0.0463,-0.0751,-0.2645,-0.0296,9.7341,0.0000,0.0000,0.0001,1.0000,-0.0066,-0.0008,0.2434
712,Left,2,0.0070,0.0135,-0.3515,0.9361,0.0116,0.0012,0.0067,-0.0083,-0.0121,-0.1095,-0.2917,0.0219,9.6988,0.0001,0.0000,0.0001,1.0000,-0.0073,0.0005,0.2425
712,Pelvis,2,-0.1187,-0.6466,-0.1413,0.7402,0.0018,0.0006,0.0012,-0.0093,0.0002,-0.0088,9.7117,0.0649,1.3397,0.0000,0.0000,0.0000,1.0000,0.2428,0.0016,0.0335
713,Right,2,-0.0094,0.0135,0.4932,0.8698,0.0012,0.0031,0.0055,0.0389,0.0281,-0.0454,-0.2759,-0.0481,9.7634,0.0000,0.0000,0.0001,1.0000,-0.0069,-0.0012,0.2441
713,Pelvis,2,-0.1187,-0.6466,-0.1413,0.7402,0.0018,0.0006,0.0018,-0.0108,0.0006,-0.0185,9.7020,0.0646,1.3398,0.0000,0.0000,0.0000,1.0000,0.2425,0.0016,0.0335
714,Right,2,-0.0093,0.0135,0.4933,0.8697,0.0018,0.0024,0.0055,0.0278,0.0440,-0.0555,-0.2663,-0.0285,9.7536,0.0000,0.0000,0.0001,1.0000,-0.0066,-0.0007,0.2438
714,Left,2,0.0069,0.0135,-0.3515,0.9361,0.0113,0.0006,0.0064,-0.0151,-0.0121,-0.1040,-0.2972,0.0168,9.7041,0.0003,0.0000,0.0002,1.0000,-0.0149,0.0007,0.4852
714,Pelvis,2,-0.1187,-0.6466,-0.1413,0.7402,0.0012,0.0018,0.0006,-0.0226,-0.0056,-0.0076,9.7116,0.0546,1.3500,0.0000,0.0000,0.0000,1.0000,0.2428,0.0014,0.0337
715,Right,2,-0.0092,0.0136,0.4934,0.8696,0.0031,0.0037,0.0049,0.0149,0.0400,-0.0653,-0.2764,-0.0180,9.7436,0.0000,0.0000,0.0001,1.0000,-0.0069,-0.0005,0.2436
715,Left,2,0.0069,0.0136,-0.3514,0.9361,0.0110,0.0018,0.0043,-0.0148,-0.0045,-0.0893,-0.3026,0.0219,9.7187,0.0001,0.0000,0.0001,1.0000,-0.0076,0.0005,0.2430
715,Pelvis,2,-0.1187,-0.6465,-0.1413,0.7402,0.0024,0.0018,-0.0006,-0.0013,-0.0039,-0.0101,9.7117,0.0643,1.3308,0.0000,0.0000,-0.0000,1.0000,0.2428,0.0016,0.0333
716,Right,2,-0.0091,0.0135,0.4935,0.8696,0.0024,0.0024,0.0043,0.0310,0.0268,-0.0845,-0.2773,-0.0370,9.7242,0.0000,0.0000,0.0001,1.0000,-0.0069,-0.0009,0.2431
716,Left,2,0.0069,0.0135,-0.3513,0.9361,0.0122,0.0012,0.0067,-0.0141,-0.0154,-0.0987,-0.2934,0.0142,9.7095,0.0002,0.0000,0.0001,1.0000,-0.0073,0.0003,0.2427
716,Pelvis,2,-0.1187,-0.6466,-0.1413,0.7402,0.0012,0.0000,0.0018,0.0110,0.0013,-0.0112,9.7117,0.0739,1.3212,0.0000,0.0000,0.0000,1.0000,0.2428,0.0019,0.0330
717,Right,2,-0.0091,0.0135,0.4935,0.8696,0.0018,0.0043,0.0049,0.0404,0.0441,-0.0653,-0.2589,-0.0367,9.7440,0.0000,0.0001,0.0001,1.0000,-0.0065,-0.0009,0.2436
717,Left,2,0.0069,0.0136,-0.3513,0.9361,0.0128,0.0018,0.0061,-0.0052,-0.0054,-0.1187,-0.2933,0.0259,9.6895,0.0002,0.0000,0.0001,1.0000,-0.0073,0.0006,0.2422
717,Pelvis,2,-0.1186,-0.6466,-0.1413,0.7402,0.0024,0.0012,-0.0006,0.0082,-0.0085,-0.0017,9.7214,0.0640,1.3215,0.0000,0.0000,-0.0000,1.0000,0.2430,0.0016,0.0330
718,Right,2,-0.0092,0.0136,0.4935,0.8696,0.0030,0.0024,0.0055,0.0343,0.0367,-0.0749,-0.2693,-0.0359,9.7341,0.0000,0.0000,0.0001,1.0000,-0.0067,-0.0009,0.2434
718,Left,2,0.0068,0.0136,-0.3514,0.9361,0.0116,0.0018,0.0061,-0.0202,-0.0237,-0.0782,-0.2949,0.0019,9.7301,0.0001,0.0000,0.0001,1.0000,-0.0074,0.0000,0.2433
718,Pelvis,2,-0.1186,-0.6466,-0.1413,0.7402,0.0031,-0.0000,0.0006,0.0068,-0.0081,-0.0113,9.7116,0.0641,1.3216,0.0000,-0.0000,0.0000,1.0000,0.2428,0.0016,0.0330
719,Right,2,-0.0093,0.0135,0.4935,0.8696,0.0018,0.0037,0.0043,0.0186,0.0348,-0.0749,-0.2796,-0.0253,9.7338,0.0000,0.0000,0.0001,1.0000,-0.0070,-0.0006,0.2433
719,Left,2,0.0068,0.0137,-0.3515,0.9361,0.0116,0.0012,0.0067,-0.0057,-0.0066,-0.1182,-0.2944,0.0220,9.6900,0.0001,0.0000,0.0001,1.0000,-0.0074,0.0005,0.2422
719,Pelvis,2,-0.1186,-0.6466,-0.1413,0.7402,0.0031,0.0012,0.0012,-0.0025,-0.0047,-0.0101,9.7116,0.0641,1.3315,0.0000,0.0000,0.0000,1.0000,0.2428,0.0016,0.0333
720,Right,2,-0.0095,0.0135,0.4935,0.8696,0.0018,0.0024,0.0049,0.0288,0.0399,-0.0554,-0.2711,-0.0346,9.7536,0.0000,0.0000,0.0001,1.0000,-0.0068,-0.0009,0.2438
720,Left,2,0.0066,0.0137,-0.3516,0.9360,0.0116,0.0012,0.0061,-0.0079,-0.0093,-0.1079,-0.2951,0.0157,9.7003,0.0001,0.0000,0.0001,1.0000,-0.0074,0.0004,0.2425
720,Pelvis,2,-0.1186,-0.6466,-0.1413,0.7402,0.0024,0.0006,0.0012,0.0025,-0.0176,-0.0115,9.7115,0.0540,1.3220,0.0000,0.0000,0.0000,1.0000,0.2428,0.0014,0.0330
721,Right,2,-0.0095,0.0134,0.4936,0.8695,0.0018,0.0037,0.0061,0.0346,0.0335,-0.0650,-0.2719,-0.0440,9.7439,0.0000,0.0000,0.0001,1.0000,-0.0068,-0.0011,0.2436
721,Left,2,0.0065,0.0137,-0.3516,0.9360,0.0116,0.0018,0.0067,-0.0037,-0.0182,-0.0784,-0.2862,0.0102,9.7301,0.0001,0.0000,0.0001,1.0000,-0.0071,0.0002,0.2433
721,Pelvis,2,-0.1186,-0.6466,-0.1413,0.7402,0.0024,0.0012,0.0006,0.0095,0.0004,-0.0112,9.7116,0.0734,1.3220,0.0000,0.0000,0.0000,1.0000,0.2428,0.0018,0.0330
722,Right,2,-0.0095,0.0133,0.4936,0.8695,0.0024,0.0043,0.0055,0.0239,0.0384,-0.0554,-0.2729,-0.0336,9.7535,0.0000,0.0001,0.0001,1.0000,-0.0068,-0.0008,0.2438
722,Left,2,0.0065,0.0138,-0.3516,0.9360,0.0122,0.0018,0.0067,-0.0037,-0.0018,-0.1177,-0.2958,0.0210,9.6905,0.0002,0.0000,0.0001,1.0000,-0.0074,0.0005,0.2423
722,Pelvis,2,-0.1186,-0.6466,-0.1413,0.7402,0.0024,0.0000,0.0018,-0.0088,0.0074,-0.0087,9.7115,0.0734,1.3417,0.0000,0.0000,0.0000,1.0000,0.2428,0.0018,0.0335
723,Right,2,-0.0095,0.0134,0.4937,0.8695,0.0018,0.0024,0.0049,0.0070,0.0481,-0.0752,-0.2729,-0.0137,9.7338,0.0000,0.0000,0.0001,1.0000,-0.0068,-0.0003,0.2433
723,Left,2,0.0065,0.0137,-0.3515,0.9360,0.0122,-0.0006,0.0068,0.0044,-0.0066,-0.1179,-0.2862,0.0237,9.6905,0.0002,-0.0000,0.0001,1.0000,-0.0072,0.0006,0.2423
723,Pelvis,2,-0.1186,-0.6466,-0.1412,0.7402,0.0018,0.0012,0.0012,-0.0038,-0.0054,-0.0101,9.7115,0.0632,1.3322,0.0000,0.0000,0.0000,1.0000,0.2428,0.0016,0.0333
724,Right,2,-0.0096,0.0133,0.4937,0.8695,0.0012,0.0024,0.0043,0.0290,0.0341,-0.0650,-0.2743,-0.0425,9.7438,0.0000,0.0000,0.0001,1.0000,-0.0069,-0.0011,0.2436
724,Left,2,0.0064,0.0138,-0.3516,0.9360,0.0116,0.0031,0.0061,0.0020,-0.0096,-0.0979,-0.2869,0.0180,9.7106,0.0001,0.0000,0.0001,1.0000,-0.0072,0.0004,0.2428
724,Pelvis,2,-0.1186,-0.6466,-0.1412,0.7402,0.0018,0.0006,0.0024,-0.0041,-0.0056,-0.0101,9.7115,0.0628,1.3324,0.0000,0.0000,0.0000,1.0000,0.2428,0.0016,0.0333
725,Right,2,-0.0097,0.0134,0.4937,0.8695,0.0037,0.0049,0.0055,0.0278,0.0353,-0.0552,-0.2754,-0.0418,9.7536,0.0000,0.0001,0.0001,1.0000,-0.0069,-0.0011,0.2438
725,Left,2,0.0064,0.0139,-0.3517,0.9360,0.0110,0.0012,0.0055,0.0053,0.0061,-0.0982,-0.2969,0.0308,9.7099,0.0001,0.0000,0.0001,1.0000,-0.0074,0.0007,0.2427
725,Pelvis,2,-0.1186,-0.6466,-0.1412,0.7402,0.0018,0.0006,0.0012,0.0021,-0.0190,-0.0018,9.7212,0.0525,1.3229,0.0000,0.0000,0.0000,1.0000,0.2430,0.0013,0.0331
726,Right,2,-0.0098,0.0134,0.4936,0.8695,0.0018,0.0037,0.0043,0.0188,0.0417,-0.0554,-0.2762,-0.0313,9.7534,0.0000,0.0000,0.0001,1.0000,-0.0069,-0.0008,0.2438
726,Left,2,0.0064,0.0140,-0.3518,0.9360,0.0128,0.0006,0.0067,0.0013,0.0153,-0.0980,-0.3069,0.0340,9.7098,0.0002,0.0000,0.0001,1.0000,-0.0077,0.0008,0.2427
726,Pelvis,2,-0.1186,-0.6466,-0.1412,0.7402,0.0012,0.0024,0.0006,-0.0089,0.0061,0.0010,9.7212,0.0721,1.3426,0.0000,0.0000,0.0000,1.0000,0.2430,0.0018,0.0336
727,Right,2,-0.0097,0.0134,0.4937,0.8695,0.0018,0.0024,0.0055,0.0169,0.0187,-0.0842,-0.2962,-0.0405,9.7239,0.0000,0.0000,0.0001,1.0000,-0.0074,-0.0010,0.2431
727,Left,2,0.0064,0.0139,-0.3517,0.9360,0.0122,0.0006,0.0061,-0.0105,0.0025,-0.0871,-0.3077,0.0182,9.7207,0.0002,0.0000,0.0001,1.0000,-0.0077,0.0004,0.2430
727,Pelvis,2,-0.1186,-0.6466,-0.1412,0.7402,0.0030,0.0012,0.0037,-0.0050,-0.0062,-0.0101,9.7113,0.0618,1.3334,0.0000,0.0000,0.0000,1.0000,0.2428,0.0016,0.0333
728,Right,2,-0.0098,0.0134,0.4938,0.8694,0.0024,0.0037,0.0055,0.0248,0.0354,-0.0650,-0.2778,-0.0401,9.7437,0.0000,0.0000,0.0001,1.0000,-0.0069,-0.0010,0.2436
728,Left,2,0.0064,0.0139,-0.3517,0.9360,0.0116,0.0018,0.0061,-0.0034,-0.0011,-0.1166,-0.2980,0.0191,9.6915,0.0001,0.0000,0.0001,1.0000,-0.0074,0.0004,0.2423
728,Pelvis,2,-0.1186,-0.6466,-0.1412,0.7402,0.0018,-0.0000,0.0000,0.0019,0.0118,-0.0098,9.7114,0.0810,1.3333,0.0000,-0.0000,0.0000,1.0000,0.2428,0.0020,0.0333
729,Right,2,-0.0098,0.0134,0.4938,0.8694,0.0024,0.0030,0.0043,0.0344,0.0507,-0.0848,-0.2587,-0.0402,9.7245,0.0000,0.0000,0.0001,1.0000,-0.0065,-0.0010,0.2431
729,Left,2,0.0064,0.0139,-0.3516,0.9360,0.0116,0.0013,0.0079,-0.0086,0.0081,-0.1164,-0.3082,0.0223,9.6914,0.0001,0.0000,0.0001,1.0000,-0.0077,0.0005,0.2423
729,Pelvis,2,-0.1185,-0.6466,-0.1412,0.7402,0.0018,0.0012,0.0006,-0.0020,0.0025,-0.0099,9.7114,0.0712,1.3336,0.0000,0.0000,0.0000,1.0000,0.2428,0.0018,0.0333
730,Right,2,-0.0098,0.0133,0.4939,0.8694,0.0030,0.0030,0.0061,0.0185,0.0473,-0.0750,-0.2692,-0.0294,9.7340,0.0000,0.0000,0.0001,1.0000,-0.0067,-0.0007,0.2434
730,Left,2,0.0063,0.0139,-0.3516,0.9360,0.0116,-0.0000,0.0055,0.0002,0.0053,-0.1068,-0.2986,0.0254,9.7012,0.0001,-0.0000,0.0001,1.0000,-0.0075,0.0006,0.2425
730,Pelvis,2,-0.1185,-0.6466,-0.1412,0.7402,0.0024,0.0012,0.0012,0.0103,0.0078,-0.0111,9.7114,0.0807,1.3240,0.0000,0.0000,0.0000,1.0000,0.2428,0.0020,0.0331
731,Pelvis,2,-0.1185,-0.6466,-0.1412,0.7402,0.0025,0.0030,0.0006,-0.0153,-0.0033,-0.0088,9.7111,0.0613,1.3442,0.0000,0.0000,0.0000,1.0000,0.2428,0.0015,0.0336
732,Right,2,-0.0098,0.0133,0.4940,0.8693,0.0021,0.0030,0.0040,0.0149,0.0325,-0.0650,-0.2852,-0.0329,9.7435,0.0001,0.0001,0.0001,1.0000,-0.0142,-0.0017,0.4872
732,Left,2,0.0064,0.0139,-0.3516,0.9360,0.0122,0.0021,0.0049,-0.0012,-0.0038,-0.1064,-0.2945,0.0199,9.7018,0.0003,0.0001,0.0001,1.0000,-0.0147,0.0008,0.4851
732,Pelvis,2,-0.1185,-0.6466,-0.1412,0.7402,0.0018,0.0006,0.0012,-0.0221,0.0097,-0.0171,9.7013,0.0711,1.3543,0.0000,0.0000,0.0000,1.0000,0.2425,0.0018,0.0339
733,Right,2,-0.0099,0.0133,0.4940,0.8693,0.0006,0.0031,0.0049,0.0336,0.0594,-0.0557,-0.2525,-0.0378,9.7539,0.0000,0.0000,0.0001,1.0000,-0.0063,-0.0009,0.2438
733,Left,2,0.0063,0.0139,-0.3516,0.9360,0.0122,0.0012,0.0067,0.0067,-0.0152,-0.1159,-0.2808,0.0137,9.6928,0.0002,0.0000,0.0001,1.0000,-0.0070,0.0003,0.2423
733,Pelvis,2,-0.1185,-0.6466,-0.1412,0.7402,0.0024,0.0000,0.0018,-0.0123,0.0054,-0.0087,9.7111,0.0706,1.3446,0.0000,0.0000,0.0000,1.0000,0.2428,0.0018,0.0336
734,Right,2,-0.0098,0.0132,0.4941,0.8692,0.0024,0.0037,0.0049,0.0278,0.0484,-0.0653,-0.2629,-0.0373,9.7440,0.0000,0.0000,0.0001,1.0000,-0.0066,-0.0009,0.2436
734,Pelvis,2,-0.1185,-0.6466,-0.1412,0.7402,0.0018,0.0018,0.0012,0.0119,-0.0153,-0.0029,9.7209,0.0601,1.3157,0.0000,0.0000,0.0000,1.0000,0.2430,0.0015,0.0329
735,Right,2,-0.0097,0.0132,0.4943,0.8692,0.0025,0.0049,0.0030,0.0122,0.0213,-0.0551,-0.2934,-0.0359,9.7532,0.0000,0.0001,0.0000,1.0000,-0.0073,-0.0009,0.2438
735,Left,2,0.0063,0.0138,-0.3514,0.9361,0.0122,0.0018,0.0064,0.0063,0.0014,-0.1065,-0.2909,0.0288,9.7018,0.0003,0.0000,0.0002,1.0000,-0.0145,0.0013,0.4851
735,Pelvis,2,-0.1185,-0.6466,-0.1412,0.7403,0.0031,0.0024,0.0012,-0.0075,-0.0077,-0.0101,9.7110,0.0602,1.3357,0.0000,0.0000,0.0000,1.0000,0.2428,0.0015,0.0334
736,Right,2,-0.0097,0.0131,0.4944,0.8691,0.0031,0.0043,0.0043,0.0190,0.0356,-0.0553,-0.2750,-0.0356,9.7535,0.0000,0.0001,0.0001,1.0000,-0.0069,-0.0009,0.2438
736,Left,2,0.0062,0.0137,-0.3513,0.9362,0.0116,0.0019,0.0067,-0.0129,0.0011,-0.1051,-0.3019,0.0141,9.7029,0.0001,0.0000,0.0001,1.0000,-0.0075,0.0003,0.2426
736,Pelvis,2,-0.1185,-0.6466,-0.1412,0.7403,0.0024,0.0006,0.0006,-0.0042,0.0012,-0.0099,9.7110,0.0698,1.3360,0.0000,0.0000,0.0000,1.0000,0.2428,0.0017,0.0334
737,Right,2,-0.0096,0.0131,0.4945,0.8690,0.0018,0.0037,0.0043,0.0193,0.0329,-0.0748,-0.2756,-0.0352,9.7340,0.0000,0.0000,0.0001,1.0000,-0.0069,-0.0009,0.2433
737,Left,2,0.0063,0.0136,-0.3511,0.9362,0.0128,0.0018,0.0055,0.0025,0.0046,-0.0864,-0.2925,0.0277,9.7218,0.0002,0.0000,0.0001,1.0000,-0.0073,0.0007,0.2430
737,Pelvis,2,-0.1184,-0.6466,-0.1412,0.7403,0.0024,0.0012,0.0006,0.0092,0.0059,-0.0014,9.7209,0.0794,1.3264,0.0000,0.0000,0.0000,1.0000,0.2430,0.0020,0.0332
738,Right,2,-0.0096,0.0130,0.4945,0.8690,0.0018,0.0043,0.0055,0.0167,0.0335,-0.0651,-0.2768,-0.0346,9.7437,0.0000,0.0001,0.0001,1.0000,-0.0069,-0.0009,0.2436
738,Left,2,0.0062,0.0137,-0.3512,0.9362,0.0122,0.0018,0.0061,-0.0082,-0.0059,-0.0852,-0.2935,0.0113,9.7230,0.0002,0.0000,0.0001,1.0000,-0.0073,0.0002,0.2431
738,Pelvis,2,-0.1184,-0.6466,-0.1412,0.7403,0.0018,-0.0000,0.0012,-0.0228,0.0080,-0.0074,9.7109,0.0698,1.3559,0.0000,-0.0000,0.0000,1.0000,0.2428,0.0017,0.0339
739,Right,2,-0.0097,0.0130,0.4946,0.8690,0.0018,0.0037,0.0037,0.0152,0.0331,-0.0651,-0.2777,-0.0342,9.7437,0.0000,0.0000,0.0000,1.0000,-0.0069,-0.0009,0.2436
739,Left,2,0.0062,0.0136,-0.3512,0.9362,0.0116,0.0012,0.0061,-0.0086,0.0101,-0.1149,-0.3031,0.0225,9.6931,0.0001,0.0000,0.0001,1.0000,-0.0076,0.0005,0.2423
739,Pelvis,2,-0.1184,-0.6466,-0.1412,0.7403,0.0025,0.0030,0.0006,0.0038,-0.0030,-0.0112,9.7110,0.0694,1.3269,0.0000,0.0000,0.0000,1.0000,0.2428,0.0017,0.0332
740,Right,2,-0.0098,0.0130,0.4946,0.8690,0.0018,0.0043,0.0061,0.0176,0.0425,-0.0457,-0.2693,-0.0337,9.7633,0.0000,0.0001,0.0001,1.0000,-0.0067,-0.0008,0.2441
740,Left,2,0.0061,0.0137,-0.3513,0.9362,0.0134,0.0012,0.0055,0.0101,0.0013,-0.0958,-0.2840,0.0262,9.7127,0.0002,0.0000,0.0001,1.0000,-0.0071,0.0006,0.2428
740,Pelvis,2,-0.1184,-0.6466,-0.1411,0.7403,0.0024,0.0012,0.0018,-0.0055,0.0004,-0.0099,9.7109,0.0693,1.3372,0.0000,0.0000,0.0000,1.0000,0.2428,0.0017,0.0334
741,Right,2,-0.0099,0.0130,0.4945,0.8690,0.0018,0.0031,0.0049,0.0111,0.0363,-0.0651,-0.2796,-0.0332,9.7436,0.0000,0.0000,0.0001,1.0000,-0.0070,-0.0008,0.2436
741,Left,2,0.0060,0.0139,-0.3515,0.9361,0.0116,0.0018,0.0061,-0.0132,0.0023,-0.1137,-0.3044,0.0092,9.6943,0.0001,0.0000,0.0001,1.0000,-0.0076,0.0002,0.2424
741,Pelvis,2,-0.1184,-0.6466,-0.1412,0.7403,0.0012,0.0012,0.0006,0.0032,-0.0034,-0.0112,9.7109,0.0689,1.3277,0.0000,0.0000,0.0000,1.0000,0.2428,0.0017,0.0332
742,Right,2,-0.0099,0.0130,0.4945,0.8690,0.0024,0.0024,0.0049,0.0237,0.0391,-0.0553,-0.2709,-0.0425,9.7537,0.0000,0.0000,0.0001,1.0000,-0.0068,-0.0011,0.2438
742,Left,2,0.0060,0.0139,-0.3514,0.9361,0.0128,0.0024,0.0055,0.0094,-0.0014,-0.1147,-0.2851,0.0213,9.6938,0.0002,0.0000,0.0001,1.0000,-0.0071,0.0005,0.2423
742,Pelvis,2,-0.1184,-0.6466,-0.1411,0.7403,0.0024,0.0006,0.0018,-0.0061,0.0001,-0.0099,9.7108,0.0688,1.3377,0.0000,0.0000,0.0000,1.0000,0.2428,0.0017,0.0334
743,Right,2,-0.0099,0.0130,0.4945,0.8690,0.0024,0.0030,0.0049,0.0215,0.0392,-0.0358,-0.2720,-0.0417,9.7732,0.0000,0.0000,0.0001,1.0000,-0.0068,-0.0010,0.2443
743,Left,2,0.0059,0.0138,-0.3514,0.9361,0.0122,0.0012,0.0049,-0.0026,0.0021,-0.1139,-0.2956,0.0149,9.6943,0.0002,0.0000,0.0001,1.0000,-0.0074,0.0003,0.2424
743,Pelvis,2,-0.1184,-0.6466,-0.1411,0.7403,0.0024,0.0024,0.0018,0.0152,0.0017,-0.0124,9.7109,0.0780,1.3184,0.0000,0.0000,0.0000,1.0000,0.2428,0.0020,0.0330
744,Right,2,-0.0099,0.0128,0.4947,0.8689,0.0024,0.0030,0.0043,0.0237,0.0449,-0.0749,-0.2622,-0.0417,9.7343,0.0000,0.0000,0.0001,1.0000,-0.0065,-0.0011,0.2434
744,Left,2,0.0058,0.0137,-0.3513,0.9361,0.0122,0.0018,0.0061,0.0050,0.0146,-0.1047,-0.2957,0.0283,9.7034,0.0002,0.0000,0.0001,1.0000,-0.0074,0.0007,0.2426
744,Pelvis,2,-0.1184,-0.6466,-0.1411,0.7403,0.0006,0.0006,0.0012,0.0023,-0.0039,-0.0112,9.7108,0.0680,1.3287,0.0000,0.0000,0.0000,1.0000,0.2428,0.0017,0.0332
745,Right,2,-0.0099,0.0128,0.4948,0.8689,0.0018,0.0031,0.0049,0.0146,0.0486,-0.0555,-0.2631,-0.0312,9.7537,0.0000,0.0000,0.0001,1.0000,-0.0066,-0.0008,0.2438
745,Left,2,0.0059,0.0137,-0.3512,0.9362,0.0122,0.0019,0.0073,-0.0011,0.0107,-0.0944,-0.2965,0.0222,9.7138,0.0002,0.0000,0.0001,1.0000,-0.0074,0.0005,0.2428
745,Pelvis,2,-0.1184,-0.6466,-0.1411,0.7403,0.0018,0.0012,0.0012,0.0121,-0.0083,-0.0028,9.7205,0.0676,1.3192,0.0000,0.0000,0.0000,1.0000,0.2430,0.0017,0.0330
746,Right,2,-0.0098,0.0128,0.4950,0.8688,0.0012,0.0031,0.0043,0.0095,0.0377,-0.0749,-0.2732,-0.0308,9.7339,0.0000,0.0000,0.0001,1.0000,-0.0068,-0.0008,0.2433
746,Left,2,0.0059,0.0136,-0.3510,0.9362,0.0122,0.0012,0.0067,0.0058,0.0056,-0.1141,-0.2870,0.0236,9.6943,0.0002,0.0000,0.0001,1.0000,-0.0072,0.0006,0.2424
746,Pelvis,2,-0.1184,-0.6466,-0.1411,0.7403,0.0012,0.0006,0.0018,-0.0020,-0.0133,-0.0113,9.7106,0.0577,1.3292,0.0000,0.0000,0.0000,1.0000,0.2428,0.0014,0.0332
747,Right,2,-0.0099,0.0128,0.4949,0.8688,0.0018,0.0024,0.0049,0.0161,0.0335,-0.0748,-0.2742,-0.0402,9.7340,0.0000,0.0000,0.0001,1.0000,-0.0068,-0.0010,0.2434
747,Left,2,0.0058,0.0137,-0.3511,0.9362,0.0104,0.0012,0.0061,0.0041,0.0030,-0.0745,-0.2879,0.0192,9.7339,0.0001,0.0000,0.0001,1.0000,-0.0072,0.0004,0.2433
747,Pelvis,2,-0.1184,-0.6466,-0.1411,0.7403,0.0012,0.0018,0.0006,-0.0065,-0.0015,-0.0003,9.7204,0.0672,1.3392,0.0000,0.0000,0.0000,1.0000,0.2430,0.0017,0.0335
748,Right,2,-0.0098,0.0127,0.4950,0.8687,0.0024,0.0037,0.0043,0.0153,0.0320,-0.0748,-0.2749,-0.0396,9.7340,0.0000,0.0000,0.0001,1.0000,-0.0069,-0.0010,0.2434
748,Left,2,0.0058,0.0136,-0.3510,0.9363,0.0122,0.0012,0.0067,-0.0031,0.0118,-0.0840,-0.2979,0.0217,9.7241,0.0002,0.0000,0.0001,1.0000,-0.0074,0.0005,0.2431
748,Pelvis,2,-0.1184,-0.6466,-0.1411,0.7403,0.0018,0.0006,0.0012,-0.0055,0.0086,-0.0195,9.7009,0.0769,1.3393,0.0000,0.0000,0.0000,1.0000,0.2425,0.0019,0.0335
749,Pelvis,2,-0.1184,-0.6466,-0.1411,0.7403,0.0024,0.0012,0.0031,-0.0047,0.0078,-0.0098,9.7106,0.0764,1.3396,0.0000,0.0000,0.0000,1.0000,0.2428,0.0019,0.0335
750,Pelvis,2,-0.1184,-0.6466,-0.1411,0.7403,0.0018,0.0000,0.0018,0.0220,-0.0032,-0.0136,9.7108,0.0756,1.3104,0.0000,0.0000,0.0000,1.0000,0.2428,0.0019,0.0328
751,Right,2,-0.0097,0.0128,0.4952,0.8686,0.0022,0.0035,0.0049,0.0083,0.0316,-0.0618,-0.2800,-0.0317,9.7469,0.0001,0.0001,0.0002,1.0000,-0.0209,-0.0024,0.7310
751,Left,2,0.0059,0.0136,-0.3509,0.9363,0.0128,0.0014,0.0063,-0.0090,0.0018,-0.0898,-0.2957,0.0144,9.7184,0.0005,0.0001,0.0002,1.0000,-0.0221,0.0007,0.7289
751,Pelvis,2,-0.1184,-0.6465,-0.1411,0.7403,0.0024,0.0037,0.0030,-0.0168,0.0014,0.0010,9.7202,0.0657,1.3501,0.0000,0.0000,0.0000,1.0000,0.2430,0.0016,0.0337
752,Right,2,-0.0099,0.0128,0.4951,0.8687,0.0018,0.0037,0.0055,0.0109,0.0328,-0.0552,-0.2787,-0.0371,9.7535,0.0000,0.0000,0.0001,1.0000,-0.0070,-0.0009,0.2438
752,Left,2,0.0058,0.0136,-0.3510,0.9363,0.0134,0.0018,0.0061,-0.0018,0.0154,-0.0834,-0.2996,0.0246,9.7246,0.0002,0.0000,0.0001,1.0000,-0.0075,0.0006,0.2431
752,Pelvis,2,-0.1184,-0.6465,-0.1411,0.7403,0.0018,0.0000,0.0018,-0.0068,0.0078,-0.0195,9.7007,0.0749,1.3406,0.0000,0.0000,0.0000,1.0000,0.2425,0.0019,0.0335
753,Pelvis,2,-0.1184,-0.6466,-0.1411,0.7403,0.0018,0.0000,0.0018,0.0072,-0.0086,-0.0222,9.7008,0.0646,1.3211,0.0000,0.0000,0.0000,1.0000,0.2425,0.0016,0.0330
754,Pelvis,2,-0.1184,-0.6465,-0.1411,0.7403,0.0024,0.0024,0.0012,0.0033,-0.0178,-0.0223,9.7006,0.0545,1.3216,0.0000,0.0000,0.0000,1.0000,0.2425,0.0014,0.0330
755,Pelvis,2,-0.1184,-0.6465,-0.1411,0.7403,0.0012,0.0018,0.0018,-0.0054,0.0061,-0.0001,9.7202,0.0738,1.3415,0.0000,0.0000,0.0000,1.0000,0.2430,0.0018,0.0335
756,Right,2,-0.0099,0.0128,0.4954,0.8685,0.0026,0.0034,0.0049,0.0137,0.0432,-0.0676,-0.2683,-0.0335,9.7414,0.0001,0.0002,0.0002,1.0000,-0.0267,-0.0035,0.9741
756,Left,2,0.0058,0.0136,-0.3509,0.9363,0.0119,0.0017,0.0061,-0.0026,0.0064,-0.0951,-0.2936,0.0213,9.7131,0.0006,0.0001,0.0003,1.0000,-0.0293,0.0015,0.9713
756,Pelvis,2,-0.1183,-0.6466,-0.1410,0.7403,0.0030,-0.0006,0.0000,-0.0094,-0.0032,-0.0003,9.7201,0.0639,1.3417,0.0000,-0.0000,0.0000,1.0000,0.2430,0.0016,0.0335
757,Right,2,-0.0099,0.0126,0.4955,0.8685,0.0024,0.0037,0.0055,0.0048,0.0500,-0.0947,-0.2624,-0.0251,9.7146,0.0000,0.0000,0.0001,1.0000,-0.0065,-0.0006,0.2429
757,Left,2,0.0056,0.0135,-0.3508,0.9363,0.0128,0.0031,0.0073,0.0166,0.0176,-0.1228,-0.2820,0.0363,9.6858,0.0002,0.0000,0.0001,1.0000,-0.0070,0.0009,0.2421
757,Pelvis,2,-0.1183,-0.6466,-0.1410,0.7403,0.0024,0.0012,0.0018,0.0223,0.0051,-0.0232,9.7008,0.0831,1.3122,0.0000,0.0000,0.0000,1.0000,0.2425,0.0021,0.0328
758,Right,2,-0.0099,0.0125,0.4956,0.8684,0.0018,0.0037,0.0037,0.0146,0.0302,-0.0747,-0.2739,-0.0436,9.7341,0.0000,0.0000,0.0000,1.0000,-0.0068,-0.0011,0.2434
758,Left,2,0.0056,0.0134,-0.3507,0.9364,0.0122,0.0025,0.0067,-0.0102,0.0061,-0.1206,-0.2935,0.0105,9.6876,0.0002,0.0000,0.0001,1.0000,-0.0073,0.0002,0.2422
758,Pelvis,2,-0.1183,-0.6465,-0.1410,0.7403,0.0012,0.0030,-0.0000,0.0093,-0.0005,-0.0220,9.7006,0.0733,1.3226,0.0000,0.0000,-0.0000,1.0000,0.2425,0.0018,0.0331
759,Right,2,-0.0100,0.0125,0.4955,0.8684,0.0025,0.0043,0.0043,0.0124,0.0318,-0.0356,-0.2757,-0.0425,9.7731,0.0000,0.0001,0.0001,1.0000,-0.0069,-0.0011,0.2443
759,Left,2,0.0056,0.0135,-0.3508,0.9363,0.0128,0.0018,0.0067,-0.0101,0.0044,-0.0615,-0.2948,0.0079,9.7467,0.0002,0.0000,0.0001,1.0000,-0.0074,0.0002,0.2437
759,Pelvis,2,-0.1183,-0.6465,-0.1410,0.7403,0.0012,0.0000,0.0012,-0.0250,0.0016,0.0313,9.7491,0.0635,1.3624,0.0000,0.0000,0.0000,1.0000,0.2437,0.0016,0.0341
760,Right,2,-0.0100,0.0127,0.4955,0.8685,0.0024,0.0030,0.0049,0.0057,0.0379,-0.0651,-0.2757,-0.0325,9.7437,0.0000,0.0000,0.0001,1.0000,-0.0069,-0.0008,0.2436
760,Left,2,0.0057,0.0135,-0.3508,0.9363,0.0122,0.0012,0.0067,0.0164,0.0035,-0.1217,-0.2745,0.0257,9.6871,0.0002,0.0000,0.0001,1.0000,-0.0069,0.0006,0.2422
760,Pelvis,2,-0.1183,-0.6465,-0.1410,0.7403,0.0012,0.0018,0.0018,0.0039,-0.0094,-0.0319,9.6907,0.0632,1.3232,0.0000,0.0000,0.0000,1.0000,0.2423,0.0016,0.0331
761,Right,2,-0.0101,0.0126,0.4955,0.8685,0.0037,0.0043,0.0049,0.0022,0.0384,-0.0553,-0.2768,-0.0316,9.7534,0.0000,0.0001,0.0001,1.0000,-0.0069,-0.0008,0.2438
761,Left,2,0.0056,0.0136,-0.3509,0.9363,0.0129,0.0031,0.0067,0.0006,0.0016,-0.0909,-0.2857,0.0117,9.7175,0.0002,0.0000,0.0001,1.0000,-0.0071,0.0003,0.2429
761,Pelvis,2,-0.1183,-0.6465,-0.1410,0.7403,0.0030,0.0006,0.0018,0.0005,0.0019,-0.0111,9.7102,0.0725,1.3333,0.0000,0.0000,0.0000,1.0000,0.2428,0.0018,0.0333
762,Right,2,-0.0100,0.0125,0.4956,0.8684,0.0012,0.0031,0.0055,0.0094,0.0310,-0.0649,-0.2778,-0.0409,9.7438,0.0000,0.0000,0.0001,1.0000,-0.0069,-0.0010,0.2436
762,Pelvis,2,-0.1183,-0.6466,-0.1410,0.7403,0.0012,-0.0006,0.0012,-0.0268,0.0125,-0.0073,9.7101,0.0726,1.3626,0.0000,-0.0000,0.0000,1.0000,0.2428,0.0018,0.0341
763,Left,2,0.0056,0.0135,-0.3507,0.9364,0.0125,0.0009,0.0058,-0.0027,0.0149,-0.0862,-0.2959,0.0219,9.7219,0.0003,0.0000,0.0001,1.0000,-0.0148,0.0009,0.4861
763,Pelvis,2,-0.1183,-0.6465,-0.1410,0.7403,0.0024,0.0018,0.0006,-0.0069,0.0040,0.0096,9.7297,0.0720,1.3433,0.0000,0.0000,0.0000,1.0000,0.2432,0.0018,0.0336
764,Right,2,-0.0102,0.0125,0.4956,0.8684,0.0028,0.0043,0.0046,-0.0017,0.0378,-0.0651,-0.2789,-0.0302,9.7436,0.0001,0.0001,0.0001,1.0000,-0.0139,-0.0015,0.4872
764,Left,2,0.0055,0.0134,-0.3507,0.9364,0.0123,0.0037,0.0066,-0.0074,0.0149,-0.1492,-0.2962,0.0172,9.6589,0.0002,0.0000,0.0001,1.0000,-0.0074,0.0004,0.2415
764,Pelvis,2,-0.1183,-0.6465,-0.1410,0.7403,0.0012,0.0012,0.0006,-0.0153,-0.0029,-0.0293,9.6905,0.0625,1.3435,0.0000,0.0000,0.0000,1.0000,0.2423,0.0016,0.0336
765,Right,2,-0.0102,0.0125,0.4957,0.8684,0.0024,0.0037,0.0055,0.0186,0.0352,-0.0356,-0.2718,-0.0486,9.7733,0.0000,0.0000,0.0001,1.0000,-0.0068,-0.0012,0.2443
765,Left,2,0.0056,0.0134,-0.3506,0.9364,0.0122,0.0012,0.0067,-0.0156,0.0057,-0.0797,-0.2981,0.0055,9.7285,0.0002,0.0000,0.0001,1.0000,-0.0074,0.0001,0.2432
765,Pelvis,2,-0.1183,-0.6465,-0.1410,0.7403,0.0024,0.0012,0.0006,0.0004,0.0006,-0.0014,9.7199,0.0718,1.3341,0.0000,0.0000,0.0000,1.0000,0.2430,0.0018,0.0333
766,Right,2,-0.0100,0.0126,0.4959,0.8682,0.0031,0.0043,0.0043,-0.0069,0.0245,-0.1040,-0.2903,-0.0287,9.7043,0.0000,0.0001,0.0001,1.0000,-0.0072,-0.0007,0.2426
766,Left,2,0.0056,0.0133,-0.3504,0.9365,0.0116,0.0018,0.0061,-0.0119,0.0138,-0.1193,-0.2978,0.0155,9.6888,0.0001,0.0000,0.0001,1.0000,-0.0074,0.0004,0.2422
766,Pelvis,2,-0.1183,-0.6466,-0.1410,0.7403,0.0018,0.0006,0.0006,-0.0148,-0.0038,-0.0196,9.7002,0.0622,1.3441,0.0000,0.0000,0.0000,1.0000,0.2425,0.0016,0.0336
767,Right,2,-0.0100,0.0124,0.4960,0.8682,0.0018,0.0037,0.0049,0.0052,0.0485,-0.0458,-0.2632,-0.0282,9.7635,0.0000,0.0000,0.0001,1.0000,-0.0066,-0.0007,0.2441
767,Left,2,0.0055,0.0132,-0.3503,0.9365,0.0116,0.0018,0.0055,-0.0102,0.0055,-0.0896,-0.2891,0.0103,9.7188,0.0001,0.0000,0.0001,1.0000,-0.0072,0.0002,0.2430
767,Pelvis,2,-0.1182,-0.6466,-0.1410,0.7403,0.0018,0.0012,0.0006,-0.0002,0.0002,-0.0014,9.7198,0.0716,1.3346,0.0000,0.0000,0.0000,1.0000,0.2430,0.0018,0.0334
768,Right,2,-0.0100,0.0124,0.4961,0.8681,0.0024,0.0030,0.0049,-0.0062,0.0315,-0.0553,-0.2834,-0.0272,9.7533,0.0000,0.0000,0.0001,1.0000,-0.0071,-0.0007,0.2438
768,Left,2,0.0056,0.0131,-0.3502,0.9366,0.0122,0.0012,0.0061,-0.0165,0.0147,-0.0894,-0.2992,0.0136,9.7187,0.0002,0.0000,0.0001,1.0000,-0.0075,0.0003,0.2430
768,Pelvis,2,-0.1182,-0.6466,-0.1410,0.7403,0.0018,0.0006,0.0012,-0.0053,-0.0084,-0.0112,9.7100,0.0618,1.3348,0.0000,0.0000,0.0000,1.0000,0.2427,0.0015,0.0334
769,Right,2,-0.0100,0.0124,0.4961,0.8681,0.0025,0.0037,0.0037,0.0014,0.0260,-0.0551,-0.2845,-0.0363,9.7534,0.0000,0.0000,0.0000,1.0000,-0.0071,-0.0009,0.2438
769,Left,2,0.0056,0.0131,-0.3502,0.9366,0.0134,0.0012,0.0067,-0.0218,0.0240,-0.0892,-0.3093,0.0171,9.7186,0.0002,0.0000,0.0001,1.0000,-0.0077,0.0004,0.2430
769,Pelvis,2,-0.1182,-0.6465,-0.1410,0.7403,0.0018,0.0018,0.0012,-0.0045,-0.0092,-0.0015,9.7197,0.0615,1.3352,0.0000,0.0000,0.0000,1.0000,0.2430,0.0015,0.0334
770,Right,2,-0.0100,0.0125,0.4961,0.8681,0.0037,0.0043,0.0049,0.0056,0.0346,-0.0552,-0.2757,-0.0358,9.7536,0.0000,0.0001,0.0001,1.0000,-0.0069,-0.0009,0.2438
770,Pelvis,2,-0.1182,-0.6466,-0.1410,0.7403,0.0012,0.0000,0.0018,0.0078,-0.0040,-0.0027,9.7198,0.0708,1.3255,0.0000,0.0000,0.0000,1.0000,0.2430,0.0018,0.0331
771,Right,2,-0.0101,0.0125,0.4960,0.8682,0.0024,0.0031,0.0055,-0.0038,0.0413,-0.0652,-0.2761,-0.0254,9.7436,0.0000,0.0000,0.0001,1.0000,-0.0069,-0.0006,0.2436
771,Left,2,0.0056,0.0132,-0.3502,0.9366,0.0128,0.0018,0.0067,-0.0071,0.0184,-0.1239,-0.2947,0.0238,9.6843,0.0003,0.0000,0.0002,1.0000,-0.0147,0.0010,0.4842
771,Pelvis,2,-0.1182,-0.6465,-0.1410,0.7403,0.0012,0.0018,0.0018,-0.0153,-0.0054,-0.0099,9.7098,0.0609,1.3453,0.0000,0.0000,0.0000,1.0000,0.2427,0.0015,0.0336
772,Right,2,-0.0101,0.0126,0.4960,0.8682,0.0006,0.0031,0.0049,0.0062,0.0369,-0.0748,-0.2769,-0.0349,9.7340,0.0000,0.0000,0.0001,1.0000,-0.0069,-0.0009,0.2433
772,Left,2,0.0056,0.0133,-0.3502,0.9366,0.0104,0.0006,0.0061,-0.0009,0.0291,-0.0999,-0.3001,0.0351,9.7082,0.0001,0.0000,0.0001,1.0000,-0.0075,0.0008,0.2427
772,Pelvis,2,-0.1182,-0.6465,-0.1411,0.7403,0.0012,0.0012,0.0006,-0.0119,0.0035,-0.0098,9.7098,0.0705,1.3456,0.0000,0.0000,0.0000,1.0000,0.2427,0.0018,0.0336
773,Right,2,-0.0102,0.0127,0.4960,0.8682,0.0018,0.0043,0.0049,0.0107,0.0461,-0.0554,-0.2685,-0.0346,9.7537,0.0000,0.0001,0.0001,1.0000,-0.0067,-0.0009,0.2438
773,Left,2,0.0057,0.0133,-0.3502,0.9366,0.0123,0.0037,0.0066,-0.0056,0.0097,-0.1084,-0.2916,0.0173,9.6999,0.0002,0.0000,0.0001,1.0000,-0.0073,0.0004,0.2425
773,Pelvis,2,-0.1182,-0.6466,-0.1411,0.7403,0.0024,-0.0000,0.0006,0.0057,-0.0039,-0.0124,9.7099,0.0701,1.3262,0.0000,-0.0000,0.0000,1.0000,0.2427,0.0018,0.0332
774,Right,2,-0.0103,0.0127,0.4960,0.8682,-0.0030,0.0086,0.0066,0.0046,0.0380,-0.0650,-0.2796,-0.0345,9.7437,-0.0000,0.0001,0.0001,1.0000,-0.0070,-0.0009,0.2436
774,Pelvis,2,-0.1182,-0.6465,-0.1410,0.7403,0.0024,0.0024,0.0018,0.0065,-0.0047,-0.0027,9.7197,0.0698,1.3266,0.0000,0.0000,0.0000,1.0000,0.2430,0.0018,0.0332
775,Right,2,-0.0083,0.0116,0.4849,0.8744,0.0024,0.0037,0.0049,-0.0001,-0.0055,-0.0747,-0.2809,-0.0347,9.7339,0.0000,0.0000,0.0001,1.0000,-0.0070,-0.0009,0.2433
775,Left,2,0.0054,0.0132,-0.3489,0.9371,0.0068,-0.0112,0.0655,0.0846,0.1468,-0.0948,-0.3125,0.1796,9.7127,0.0002,-0.0003,0.0016,1.0000,-0.0158,0.0089,0.4856
775,Pelvis,2,-0.1182,-0.6465,-0.1410,0.7403,0.0018,0.0006,0.0018,0.0321,-0.0151,-0.0162,9.7100,0.0692,1.2976,0.0000,0.0000,0.0000,1.0000,0.2428,0.0017,0.0324
776,Pelvis,2,-0.1182,-0.6465,-0.1410,0.7403,0.0018,0.0006,0.0012,-0.0079,-0.0099,-0.0112,9.7097,0.0596,1.3369,0.0000,0.0000,0.0000,1.0000,0.2427,0.0015,0.0334
777,Right,2,-0.0083,0.0116,0.4849,0.8745,0.0012,0.0031,0.0049,-0.0052,-0.0030,-0.0601,-0.2823,-0.0290,9.7484,0.0000,0.0001,0.0001,1.0000,-0.0141,-0.0015,0.4874
777,Left,2,0.0058,0.0135,-0.3521,0.9358,0.0210,0.0229,-0.1385,-0.1090,0.2587,-0.1066,-0.5323,0.1388,9.6945,0.0005,0.0006,-0.0035,1.0000,-0.0263,0.0068,0.4847
777,Pelvis,2,-0.1182,-0.6465,-0.1410,0.7404,0.0024,0.0018,0.0012,0.0056,-0.0053,-0.0027,9.7196,0.0689,1.3274,0.0000,0.0000,0.0000,1.0000,0.2430,0.0017,0.0332
778,Right,2,-0.0083,0.0115,0.4850,0.8744,0.0012,0.0025,0.0055,0.0053,-0.0123,-0.0745,-0.2834,-0.0433,9.7339,0.0000,0.0000,0.0001,1.0000,-0.0071,-0.0011,0.2433
778,Left,2,0.0089,0.0137,-0.3557,0.9344,0.2502,0.1074,-0.3008,-0.6704,0.3712,0.1547,-1.0525,-0.1233,9.9405,0.0031,0.0013,-0.0038,1.0000,-0.0260,-0.0038,0.2485
778,Pelvis,2,-0.1182,-0.6466,-0.1410,0.7403,0.0012,-0.0012,0.0006,-0.0138,0.0024,-0.0098,9.7097,0.0691,1.3469,0.0000,-0.0000,0.0000,1.0000,0.2427,0.0017,0.0337
779,Right,2,-0.0083,0.0116,0.4849,0.8744,0.0055,0.0036,0.0037,0.0014,0.0011,-0.0552,-0.2745,-0.0327,9.7535,0.0001,0.0000,0.0000,1.0000,-0.0069,-0.0008,0.2438
779,Left,2,0.0265,0.0105,-0.3630,0.9313,1.4390,0.2644,-0.5915,-0.0134,2.6559,0.6149,-2.1591,2.2135,10.3072,0.0180,0.0033,-0.0074,0.9998,-0.0527,0.0511,0.2588
779,Pelvis,2,-0.1182,-0.6465,-0.1410,0.7403,0.0012,0.0031,0.0006,0.0206,-0.0116,-0.0246,9.7001,0.0686,1.3080,0.0000,0.0000,0.0000,1.0000,0.2425,0.0017,0.0327
780,Right,2,-0.0083,0.0116,0.4848,0.8745,0.0025,0.0049,0.0055,0.0087,-0.0048,-0.0648,-0.2757,-0.0416,9.7439,0.0000,0.0001,0.0001,1.0000,-0.0069,-0.0010,0.2436
780,Left,2,0.0507,0.0198,-0.3549,0.9333,1.5295,1.4106,0.6690,1.6493,0.2816,10.8632,-0.1256,2.5812,20.5841,0.0191,0.0176,0.0084,0.9996,0.0055,0.0547,0.5157
780,Pelvis,2,-0.1182,-0.6465,-0.1411,0.7404,0.0012,0.0037,0.0006,0.0124,-0.0088,-0.0136,9.7097,0.0685,1.3186,0.0000,0.0000,0.0000,1.0000,0.2427,0.0017,0.0330
781,Right,2,-0.0083,0.0116,0.4849,0.8745,0.0012,0.0025,0.0055,-0.0086,0.0057,-0.0554,-0.2762,-0.0215,9.7534,0.0000,0.0000,0.0001,1.0000,-0.0069,-0.0005,0.2438
781,Left,2,0.0493,0.0338,-0.3471,0.9359,-0.5034,1.0401,0.5961,4.9690,-3.5505,22.6564,3.2931,3.0401,32.7342,-0.0063,0.0130,0.0075,0.9999,0.0924,0.0818,0.8167
781,Pelvis,2,-0.1182,-0.6465,-0.1411,0.7404,0.0018,0.0006,0.0012,0.0068,0.0037,-0.0122,9.7097,0.0782,1.3288,0.0000,0.0000,0.0000,1.0000,0.2427,0.0020,0.0332
782,Right,2,-0.0083,0.0116,0.4848,0.8745,0.0025,0.0043,0.0043,0.0068,-0.0056,-0.0551,-0.2776,-0.0405,9.7536,0.0000,0.0001,0.0001,1.0000,-0.0069,-0.0010,0.2438
782,Left,2,0.0223,0.0209,-0.3387,0.9404,-1.6901,-1.6873,0.7375,9.1990,-2.3985,23.3556,6.0442,5.7238,33.4903,-0.0211,-0.0211,0.0092,0.9995,0.1320,0.1621,0.8369
782,Pelvis,2,-0.1182,-0.6465,-0.1411,0.7404,0.0018,-0.0000,0.0000,-0.0140,0.0010,-0.0001,9.7192,0.0685,1.3486,0.0000,-0.0000,0.0000,1.0000,0.2430,0.0017,0.0337
783,Right,2,-0.0083,0.0116,0.4847,0.8746,0.0024,0.0024,0.0049,0.0034,0.0073,-0.0748,-0.2679,-0.0307,9.7341,0.0000,0.0000,0.0001,1.0000,-0.0067,-0.0008,0.2434
783,Left,2,-0.0272,-0.0134,-0.3222,0.9462,-2.8261,-3.9048,1.3781,3.8586,2.0622,24.5829,1.5435,3.7874,34.4529,-0.0353,-0.0488,0.0172,0.9980,-0.0053,0.1252,0.8577
783,Pelvis,2,-0.1182,-0.6465,-0.1411,0.7404,0.0012,0.0006,0.0006,0.0062,0.0033,-0.0122,9.7096,0.0781,1.3289,0.0000,0.0000,0.0000,1.0000,0.2427,0.0020,0.0332
784,Right,2,-0.0083,0.0116,0.4846,0.8746,0.0018,0.0037,0.0049,-0.0031,-0.0010,-0.0552,-0.2789,-0.0296,9.7534,0.0000,0.0000,0.0001,1.0000,-0.0070,-0.0007,0.2438
784,Left,2,-0.1080,-0.0497,-0.3019,0.9459,-5.1538,-4.8777,1.5443,-4.1022,8.0823,20.7671,-4.9142,0.6870,31.5466,-0.0643,-0.0609,0.0193,0.9959,-0.1714,0.0645,0.7761
784,Pelvis,2,-0.1182,-0.6465,-0.1411,0.7404,0.0024,0.0018,0.0006,0.0022,-0.0059,-0.0124,9.7095,0.0683,1.3294,0.0000,0.0000,0.0000,1.0000,0.2427,0.0017,0.0332
785,Right,2,-0.0083,0.0116,0.4845,0.8747,0.0018,0.0043,0.0055,0.0097,0.0012,-0.0649,-0.2702,-0.0393,9.7440,0.0000,0.0001,0.0001,1.0000,-0.0067,-0.0010,0.2436
785,Left,2,-0.2222,-0.0574,-0.2900,0.9291,-8.5633,-3.5117,0.8937,-7.6339,14.1231,8.6712,-10.1878,1.3457,22.2699,-0.1068,-0.0438,0.0111,0.9933,-0.2794,0.0889,0.5373
785,Pelvis,2,-0.1181,-0.6465,-0.1411,0.7404,0.0024,0.0018,0.0012,-0.0108,-0.0116,-0.0112,9.7093,0.0585,1.3397,0.0000,0.0000,0.0000,1.0000,0.2427,0.0015,0.0335
786,Right,2,-0.0083,0.0116,0.4844,0.8747,0.0018,0.0037,0.0049,-0.0127,0.0033,-0.0749,-0.2801,-0.0191,9.7337,0.0000,0.0000,0.0001,1.0000,-0.0070,-0.0005,0.2433
786,Left,2,-0.3486,-0.0320,-0.2825,0.8931,-10.6133,-1.3557,0.7715,-3.9407,13.1607,-10.0480,-9.8958,6.8164,6.7083,-0.1323,-0.0169,0.0096,0.9910,-0.2517,0.1878,0.1393
786,Pelvis,2,-0.1182,-0.6465,-0.1411,0.7404,-0.0000,0.0006,0.0012,-0.0217,0.0136,-0.0084,9.7093,0.0780,1.3593,-0.0000,0.0000,0.0000,1.0000,0.2427,0.0020,0.0340
787,Right,2,-0.0083,0.0116,0.4843,0.8748,0.0013,0.0055,0.0043,-0.0054,-0.0025,-0.0748,-0.2815,-0.0285,9.7338,0.0000,0.0001,0.0001,1.0000,-0.0070,-0.0007,0.2433
787,Left,2,-0.4529,-0.0142,-0.2670,0.8505,-9.0105,-1.6457,0.9221,-4.1179,1.2676,-28.2922,-8.9116,11.3547,-12.3762,-0.1124,-0.0205,0.0115,0.9934,-0.2189,0.2439,-0.3430
787,Pelvis,2,-0.1181,-0.6465,-0.1411,0.7404,0.0024,0.0018,0.0006,-0.0103,-0.0125,-0.0015,9.7190,0.0580,1.3403,0.0000,0.0000,0.0000,1.0000,0.2430,0.0014,0.0335
788,Right,2,-0.0083,0.0116,0.4843,0.8748,0.0024,0.0037,0.0055,0.0152,-0.0055,-0.0647,-0.2737,-0.0477,9.7440,0.0000,0.0000,0.0001,1.0000,-0.0068,-0.0012,0.2436
788,Left,2,-0.5083,-0.0508,-0.2509,0.8223,-3.9905,-4.3049,-0.7617,-7.9617,-8.4963,-29.5840,-9.4637,8.4590,-19.1393,-0.0498,-0.0538,-0.0095,0.9973,-0.2082,0.1890,-0.5000
788,Pelvis,2,-0.1181,-0.6465,-0.1411,0.7404,0.0030,-0.0006,0.0012,-0.0081,-0.0031,-0.0111,9.7093,0.0677,1.3403,0.0000,-0.0000,0.0000,1.0000,0.2427,0.0017,0.0335
789,Right,2,-0.0083,0.0116,0.4843,0.8748,0.0012,0.0037,0.0055,0.0037,0.0128,-0.0749,-0.2640,-0.0281,9.7342,0.0000,0.0000,0.0001,1.0000,-0.0066,-0.0007,0.2434
789,Left,2,-0.5370,-0.0954,-0.2512,0.7997,-1.9035,-3.6001,-2.1610,-3.8617,-12.1309,-26.6217,-5.7237,7.8086,-18.7442,-0.0238,-0.0450,-0.0270,0.9983,-0.1166,0.1873,-0.4788
789,Pelvis,2,-0.1181,-0.6465,-0.1411,0.7404,0.0012,0.0012,0.0030,0.0144,-0.0020,-0.0038,9.7193,0.0767,1.3208,0.0000,0.0000,0.0000,1.0000,0.2430,0.0019,0.0330
790,Right,2,-0.0083,0.0116,0.4842,0.8748,0.0030,0.0024,0.0049,-0.0083,-0.0035,-0.0552,-0.2847,-0.0267,9.7533,0.0000,0.0000,0.0001,1.0000,-0.0071,-0.0007,0.2438
790,Pelvis,2,-0.1181,-0.6465,-0.1411,0.7404,0.0018,0.0018,0.0006,0.0040,0.0020,-0.0122,9.7094,0.0765,1.3308,0.0000,0.0000,0.0000,1.0000,0.2427,0.0019,0.0333
791,Right,2,-0.0083,0.0116,0.4842,0.8748,0.0018,0.0043,0.0049,0.0044,-0.0015,-0.0649,-0.2759,-0.0363,9.7438,0.0000,0.0001,0.0001,1.0000,-0.0069,-0.0009,0.2436
791,Left,2,-0.4818,-0.1609,-0.2585,0.8217,2.8844,-1.3054,-1.6261,1.9495,-28.0893,-39.4207,-4.2853,13.8091,-38.2700,0.0720,-0.0326,-0.0406,0.9960,-0.1209,0.8323,-1.8618
791,Pelvis,2,-0.1181,-0.6465,-0.1411,0.7404,0.0006,0.0006,0.0018,0.0090,-0.0108,-0.0136,9.7093,0.0663,1.3215,0.0000,0.0000,0.0000,1.0000,0.2427,0.0017,0.0330
792,Right,2,-0.0083,0.0116,0.4842,0.8748,0.0024,0.0030,0.0043,0.0034,-0.0018,-0.0551,-0.2770,-0.0356,9.7536,0.0000,0.0000,0.0001,1.0000,-0.0069,-0.0009,0.2438
792,Left,2,-0.3584,-0.1617,-0.2778,0.8765,10.0377,3.9957,-1.7875,3.5517,-10.5016,-47.5554,-12.7493,20.6822,-31.0935,0.1251,0.0498,-0.0223,0.9906,-0.3416,0.6147,-0.6874
792,Pelvis,2,-0.1181,-0.6465,-0.1411,0.7404,0.0018,0.0024,0.0012,0.0008,-0.0080,-0.0027,9.7190,0.0660,1.3317,0.0000,0.0000,0.0000,1.0000,0.2430,0.0017,0.0333
793,Right,2,-0.0083,0.0116,0.4842,0.8748,0.0012,0.0031,0.0055,0.0052,-0.0159,-0.0647,-0.2876,-0.0447,9.7437,0.0000,0.0000,0.0001,1.0000,-0.0072,-0.0011,0.2436
793,Left,2,-0.2191,-0.1024,-0.3076,0.9203,9.3709,8.7344,-1.2381,2.7678,15.4859,-25.2711,-11.1965,18.8315,-3.2332,0.1166,0.1087,-0.0154,0.9871,-0.2751,0.4778,0.0053
793,Pelvis,2,-0.1181,-0.6465,-0.1411,0.7404,0.0024,0.0006,0.0012,-0.0096,-0.0040,-0.0111,9.7091,0.0660,1.3418,0.0000,0.0000,0.0000,1.0000,0.2427,0.0017,0.0335
794,Right,2,-0.0083,0.0116,0.4842,0.8748,0.0031,0.0043,0.0049,-0.0066,0.0028,-0.0553,-0.2783,-0.0248,9.7534,0.0000,0.0001,0.0001,1.0000,-0.0069,-0.0006,0.2438
794,Left,2,-0.1052,-0.0324,-0.3078,0.9451,7.1378,8.1915,0.8885,9.0449,20.2257,0.0447,-1.7716,18.1654,16.0440,0.0889,0.1021,0.0111,0.9907,-0.0052,0.4157,0.4413
794,Pelvis,2,-0.1181,-0.6465,-0.1411,0.7404,0.0012,0.0006,0.0012,-0.0164,0.0091,-0.0194,9.6993,0.0758,1.3515,0.0000,0.0000,0.0000,1.0000,0.2425,0.0019,0.0338
795,Right,2,-0.0083,0.0116,0.4842,0.8748,0.0018,0.0037,0.0049,0.0007,-0.0032,-0.0649,-0.2794,-0.0340,9.7437,0.0000,0.0000,0.0001,1.0000,-0.0070,-0.0009,0.2436
795,Left,2,0.0017,-0.0618,-0.2903,0.9549,8.9681,0.2974,1.0400,4.5652,20.1905,27.1823,-3.2206,16.5225,39.0051,0.1119,0.0037,0.0130,0.9936,-0.0812,0.2997,1.0133
795,Pelvis,2,-0.1181,-0.6465,-0.1410,0.7404,0.0030,0.0000,0.0025,-0.0102,-0.0043,-0.0111,9.7091,0.0654,1.3420,0.0000,0.0000,0.0000,1.0000,0.2427,0.0016,0.0335
796,Right,2,-0.0083,0.0116,0.4842,0.8748,0.0012,0.0025,0.0043,0.0132,-0.0009,-0.0550,-0.2709,-0.0436,9.7538,0.0000,0.0000,0.0001,1.0000,-0.0068,-0.0011,0.2438
796,Left,2,0.0547,-0.0797,-0.2895,0.9523,4.4784,-0.1463,-0.2553,-14.0844,4.6087,52.2733,-6.7759,1.9925,63.4710,0.0560,-0.0018,-0.0032,0.9984,-0.1723,-0.0385,1.5860
796,Pelvis,2,-0.1181,-0.6465,-0.1411,0.7404,0.0012,0.0012,0.0006,0.0074,-0.0117,-0.0136,9.7092,0.0649,1.3226,0.0000,0.0000,0.0000,1.0000,0.2427,0.0016,0.0331
797,Right,2,-0.0083,0.0116,0.4842,0.8748,0.0030,0.0018,0.0061,-0.0012,-0.0040,-0.0551,-0.2809,-0.0329,9.7535,0.0000,0.0000,0.0001,1.0000,-0.0070,-0.0008,0.2438
797,Left,2,0.0522,-0.0333,-0.2861,0.9562,-1.2505,3.5164,0.1725,-1.5114,-4.5716,35.1083,4.7519,1.4438,44.9210,-0.0156,0.0439,0.0022,0.9989,0.1679,0.0539,1.1156
797,Pelvis,2,-0.1181,-0.6465,-0.1411,0.7404,0.0018,0.0018,0.0012,0.0108,-0.0029,-0.0135,9.7092,0.0745,1.3228,0.0000,0.0000,0.0000,1.0000,0.2427,0.0019,0.0331
798,Right,2,-0.0083,0.0116,0.4842,0.8748,0.0012,0.0037,0.0055,-0.0019,-0.0047,-0.0747,-0.2811,-0.0327,9.7339,0.0000,0.0000,0.0001,1.0000,-0.0070,-0.0008,0.2433
798,Left,2,0.0312,-0.0082,-0.2778,0.9601,-2.1633,1.4876,0.6801,4.1338,-5.4813,15.1316,6.8503,-0.0741,24.9534,-0.0270,0.0186,0.0085,0.9994,0.1827,0.0165,0.6202
798,Pelvis,2,-0.1181,-0.6465,-0.1410,0.7404,0.0018,0.0000,0.0018,-0.0190,-0.0019,-0.0001,9.7187,0.0647,1.3525,0.0000,0.0000,0.0000,1.0000,0.2430,0.0016,0.0338
799,Right,2,-0.0083,0.0116,0.4842,0.8748,0.0025,0.0043,0.0043,-0.0057,0.0086,-0.0651,-0.2722,-0.0226,9.7438,0.0000,0.0001,0.0001,1.0000,-0.0068,-0.0006,0.2436
799,Left,2,0.0077,-0.0062,-0.2760,0.9611,-1.8378,-0.3649,0.1744,-1.3019,-1.5345,1.3681,-0.2511,-1.5263,11.2556,-0.0230,-0.0046,0.0022,0.9997,-0.0075,-0.0317,0.2821
799,Pelvis,2,-0.1181,-0.6465,-0.1410,0.7404,0.0024,0.0012,0.0018,0.0029,-0.0213,-0.0138,9.7090,0.0542,1.3235,0.0000,0.0000,0.0000,1.0000,0.2427,0.0014,0.0331
800,Right,2,-0.0083,0.0116,0.4842,0.8748,0.0024,0.0037,0.0049,0.0014,0.0028,-0.0552,-0.2737,-0.0316,9.7536,0.0000,0.0000,0.0001,1.0000,-0.0068,-0.0008,0.2438
800,Left,2,-0.0020,-0.0033,-0.2846,0.9586,-0.8014,0.0053,-0.7073,-3.1967,0.7577,-3.9861,-3.0583,-1.0334,5.8586,-0.0100,0.0001,-0.0088,0.9999,-0.0767,-0.0237,0.1467
800,Pelvis,2,-0.1181,-0.6466,-0.1410,0.7404,0.0018,-0.0012,0.0000,0.0110,-0.0040,-0.0038,9.7190,0.0735,1.3233,0.0000,-0.0000,0.0000,1.0000,0.2430,0.0018,0.0331
801,Left,2,0.0005,0.0028,-0.2949,0.9555,0.0657,0.5288,-0.8550,-0.5973,-0.0249,-1.5908,-0.4761,-0.3613,8.2219,0.0008,0.0066,-0.0107,0.9999,-0.0106,-0.0091,0.2056
801,Pelvis,2,-0.1181,-0.6465,-0.1410,0.7404,0.0019,0.0073,0.0018,-0.0042,-0.0084,-0.0220,9.6992,0.0639,1.3338,0.0000,0.0001,0.0000,1.0000,0.2425,0.0016,0.0333
802,Pelvis,2,-0.1181,-0.6465,-0.1410,0.7404,0.0018,-0.0006,0.0025,0.0003,-0.0001,-0.0122,9.7089,0.0731,1.3345,0.0000,-0.0000,0.0000,1.0000,0.2427,0.0018,0.0334
803,Right,2,-0.0083,0.0116,0.4842,0.8748,0.0012,0.0039,0.0049,-0.0004,-0.0049,-0.0583,-0.2821,-0.0339,9.7502,0.0000,0.0001,0.0002,1.0000,-0.0211,-0.0026,0.7313
803,Left,2,-0.0068,-0.0008,-0.2985,0.9544,-0.2227,-0.2222,-0.1479,2.0258,0.0586,3.4061,1.6342,1.1136,13.2263,-0.0056,-0.0056,-0.0037,1.0000,0.0782,0.0591,0.6614
803,Pelvis,2,-0.1181,-0.6465,-0.1410,0.7404,0.0024,-0.0006,0.0006,0.0090,-0.0039,-0.0135,9.7090,0.0727,1.3246,0.0000,-0.0000,0.0000,1.0000,0.2427,0.0018,0.0331
804,Right,2,-0.0083,0.0116,0.4842,0.8748,0.0025,0.0036,0.0031,0.0061,-0.0047,-0.0745,-0.2773,-0.0400,9.7341,0.0000,0.0000,0.0000,1.0000,-0.0069,-0.0010,0.2434
804,Left,2,-0.0118,-0.0003,-0.3052,0.9522,-0.3860,-0.0739,-0.5592,-0.7575,0.5033,-0.1159,-0.8455,-0.1914,9.7007,-0.0048,-0.0009,-0.0070,1.0000,-0.0214,-0.0035,0.2425
804,Pelvis,2,-0.1181,-0.6465,-0.1410,0.7404,0.0012,0.0037,0.0018,0.0151,-0.0174,-0.0052,9.7187,0.0625,1.3154,0.0000,0.0000,0.0000,1.0000,0.2430,0.0016,0.0329
805,Right,2,-0.0083,0.0116,0.4842,0.8748,0.0006,0.0019,0.0049,0.0025,0.0084,-0.0747,-0.2679,-0.0302,9.7342,0.0000,0.0000,0.0001,1.0000,-0.0067,-0.0008,0.2434
805,Pelvis,2,-0.1181,-0.6465,-0.1410,0.7404,0.0018,-0.0018,0.0000,0.0162,-0.0073,-0.0244,9.6992,0.0723,1.3153,0.0000,-0.0000,0.0000,1.0000,0.2425,0.0018,0.0329
806,Right,2,-0.0083,0.0116,0.4842,0.8749,0.0018,0.0030,0.0031,0.0017,0.0078,-0.0845,-0.2683,-0.0300,9.7244,0.0000,0.0000,0.0000,1.0000,-0.0067,-0.0008,0.2431
806,Left,2,-0.0132,0.0045,-0.3244,0.9458,-0.1005,0.1748,-0.8019,0.9692,-0.0528,-0.6780,0.8432,0.3113,9.1421,-0.0025,0.0044,-0.0200,0.9998,0.0445,0.0158,0.4569
806,Pelvis,2,-0.1181,-0.6465,-0.1411,0.7404,-0.0006,0.0024,0.0006,-0.0035,-0.0105,-0.0027,9.7185,0.0625,1.3352,-0.0000,0.0000,0.0000,1.0000,0.2430,0.0016,0.0334
807,Right,2,-0.0084,0.0116,0.4842,0.8749,0.0006,0.0037,0.0043,0.0033,-0.0060,-0.0745,-0.2794,-0.0390,9.7341,0.0000,0.0000,0.0001,1.0000,-0.0070,-0.0010,0.2434
807,Pelvis,2,-0.1181,-0.6465,-0.1411,0.7404,0.0006,0.0018,0.0018,0.0066,-0.0040,-0.0232,9.6991,0.0720,1.3257,0.0000,0.0000,0.0000,1.0000,0.2425,0.0018,0.0331
808,Right,2,-0.0084,0.0116,0.4842,0.8749,0.0025,0.0049,0.0037,-0.0004,0.0072,-0.0650,-0.2706,-0.0290,9.7439,0.0000,0.0001,0.0000,1.0000,-0.0068,-0.0007,0.2436
808,Left,2,-0.0131,0.0071,-0.3326,0.9429,-0.0197,0.1046,-0.3424,-0.0436,-0.0717,0.1108,-0.0129,-0.3639,9.9172,-0.0005,0.0026,-0.0086,1.0000,0.0005,-0.0180,0.4959
808,Pelvis,2,-0.1181,-0.6465,-0.1410,0.7404,0.0018,0.0006,0.0018,-0.0269,-0.0121,-0.0100,9.7084,0.0524,1.3556,0.0000,0.0000,0.0000,1.0000,0.2427,0.0013,0.0339
