PacketId,Role,StatusWord,Qx,Qy,Qz,Qw,Gx,Gy,Gz,FreeAx,FreeAy,FreeAz,Ax,Ay,Az,DQx,DQy,DQz,DQw,DVx,DVy,DVz
658,Left,0,0.2026,0.0373,-0.9745,-0.0895,0.0055,0.0031,-0.0024,-0.0000,0.0000,-0.0488,-3.7899,-1.0632,8.9354,0.0001,0.0000,-0.0000,1.0000,-0.0947,-0.0266,0.2234
658,Right,0,0.1544,-0.1629,-0.9345,-0.2763,0.0079,0.0049,0.0018,-0.0000,0.0000,-0.0839,-3.6832,2.1322,8.7485,0.0001,0.0001,0.0000,1.0000,-0.0921,0.0533,0.2187
658,Pelvis,0,0.2423,0.8886,-0.3895,-0.0056,0.0707,1.2426,3.0985,0.0000,0.0000,-0.1275,-1.8867,-6.6674,-6.7675,0.0009,0.0155,0.0387,0.9991,-0.0433,-0.1683,-0.1686
659,Left,0,0.2026,0.0372,-0.9745,-0.0895,0.0055,0.0024,-0.0012,-0.0101,0.0221,-0.0632,-3.7709,-1.0817,8.9255,0.0001,0.0000,-0.0000,1.0000,-0.0943,-0.0271,0.2231
659,Right,0,0.1544,-0.1630,-0.9345,-0.2763,0.0085,0.0067,0.0012,-0.0135,-0.0055,-0.0855,-3.6746,2.1439,8.7476,0.0001,0.0001,0.0000,1.0000,-0.0918,0.0536,0.2187
659,Pelvis,0,0.2952,0.8656,-0.4036,-0.0252,2.0735,2.7758,3.6010,-3.3956,1.3861,-2.5612,2.2259,-5.9227,-5.1031,0.0259,0.0347,0.0450,0.9980,0.0576,-0.1421,-0.1333
660,Left,0,0.2026,0.0372,-0.9745,-0.0895,0.0073,0.0012,-0.0018,-0.0123,0.0004,-0.0436,-3.7810,-1.0608,8.9450,0.0001,0.0000,-0.0000,1.0000,-0.0945,-0.0265,0.2236
660,Right,0,0.1544,-0.1631,-0.9345,-0.2763,0.0067,0.0043,0.0018,0.0054,0.0055,-0.0860,-3.6855,2.1262,8.7467,0.0001,0.0001,0.0000,1.0000,-0.0921,0.0531,0.2187
660,Pelvis,0,0.3265,0.8453,-0.4188,-0.0589,2.2792,2.7734,1.9265,-4.5038,3.1432,-4.8190,4.5140,-4.4056,-3.9191,0.0285,0.0347,0.0241,0.9987,0.1119,-0.1045,-0.1049
661,Left,0,0.2026,0.0370,-0.9745,-0.0896,0.0098,0.0000,-0.0012,-0.0020,0.0081,-0.0388,-3.7909,-1.0688,8.9452,0.0001,0.0000,-0.0000,1.0000,-0.0948,-0.0267,0.2236
661,Right,0,0.1544,-0.1632,-0.9344,-0.2763,0.0079,0.0031,0.0037,0.0051,0.0140,-0.1007,-3.6764,2.1182,8.7362,0.0001,0.0000,0.0000,1.0000,-0.0919,0.0529,0.2184
661,Pelvis,0,0.3499,0.8313,-0.4174,-0.1110,1.4761,3.3466,1.4111,-4.6514,5.2422,-4.1317,6.2051,-4.3287,-4.9200,0.0184,0.0418,0.0176,0.9988,0.1516,-0.1031,-0.1313
662,Left,0,0.2026,0.0369,-0.9745,-0.0896,0.0092,-0.0012,0.0000,-0.0035,-0.0015,-0.0398,-3.7907,-1.0570,8.9455,0.0001,-0.0000,0.0000,1.0000,-0.0948,-0.0265,0.2236
662,Right,0,0.1544,-0.1633,-0.9344,-0.2763,0.0061,0.0006,0.0006,0.0113,0.0047,-0.0736,-3.6962,2.1298,8.7552,0.0001,0.0000,0.0000,1.0000,-0.0924,0.0532,0.2189
662,Pelvis,0,0.3275,0.8259,-0.4142,-0.1978,2.6906,2.4957,-1.1118,-6.2669,4.7658,-2.2916,8.0123,-6.3742,-3.7165,0.0336,0.0312,-0.0139,0.9989,0.1950,-0.1587,-0.1044
663,Left,0,0.2025,0.0368,-0.9745,-0.0896,0.0092,-0.0006,0.0000,-0.0144,-0.0214,-0.0241,-3.7906,-1.0354,8.9653,0.0001,-0.0000,0.0000,1.0000,-0.0948,-0.0259,0.2241
663,Right,0,0.1545,-0.1633,-0.9344,-0.2763,0.0055,0.0043,0.0024,-0.0063,0.0175,-0.0722,-3.6772,2.1312,8.7644,0.0001,0.0001,0.0000,1.0000,-0.0919,0.0533,0.2191
663,Pelvis,0,0.2730,0.8313,-0.3881,-0.2895,0.9775,1.1240,-2.3597,-8.9895,3.4553,1.9575,11.3460,-9.9353,-1.9846,0.0122,0.0140,-0.0295,0.9994,0.2754,-0.2559,-0.0566
664,Left,0,0.2026,0.0367,-0.9745,-0.0896,0.0055,0.0055,-0.0012,-0.0162,0.0000,-0.0347,-3.7813,-1.0534,8.9555,0.0001,0.0001,-0.0000,1.0000,-0.0945,-0.0263,0.2239
664,Right,0,0.1544,-0.1634,-0.9344,-0.2762,0.0061,0.0012,0.0018,-0.0025,0.0099,-0.0897,-3.6776,2.1326,8.7443,0.0001,0.0000,0.0000,1.0000,-0.0919,0.0533,0.2186
664,Pelvis,0,0.2125,0.8290,-0.3654,-0.3662,0.0346,-0.7300,-1.4299,-7.7376,6.1473,4.3149,15.0543,-7.7313,-3.2985,0.0004,-0.0091,-0.0179,0.9998,0.3736,-0.1999,-0.0791
665,Left,0,0.2026,0.0366,-0.9745,-0.0897,0.0073,0.0024,-0.0000,-0.0057,0.0078,-0.0298,-3.7919,-1.0618,8.9553,0.0001,0.0000,-0.0000,1.0000,-0.0948,-0.0266,0.2239
665,Right,0,0.1544,-0.1634,-0.9344,-0.2762,0.0012,-0.0012,0.0018,-0.0139,0.0027,-0.1001,-3.6677,2.1433,8.7343,0.0000,-0.0000,0.0000,1.0000,-0.0917,0.0536,0.2184
665,Pelvis,0,0.1688,0.8295,-0.3541,-0.3976,0.2329,-3.4633,1.5421,-8.6430,5.2698,10.8551,19.9418,-10.8615,-3.7833,0.0029,-0.0433,0.0193,0.9989,0.5071,-0.2616,-0.0735
666,Left,0,0.2026,0.0365,-0.9745,-0.0897,0.0085,-0.0018,0.0012,-0.0096,-0.0088,-0.0536,-3.7823,-1.0404,8.9360,0.0001,-0.0000,0.0000,1.0000,-0.0946,-0.0260,0.2234
666,Right,0,0.1544,-0.1634,-0.9344,-0.2763,0.0006,0.0012,-0.0018,-0.0067,0.0257,-0.0868,-3.6678,2.1240,8.7539,0.0000,0.0000,-0.0000,1.0000,-0.0917,0.0531,0.2188
666,Pelvis,0,0.1307,0.8402,-0.3494,-0.3936,0.0638,-5.8076,2.6148,-8.8202,2.7825,12.6380,20.6860,-12.3303,-3.2645,0.0008,-0.0725,0.0327,0.9968,0.5309,-0.2910,-0.0436
667,Left,0,0.2026,0.0365,-0.9745,-0.0897,0.0037,0.0055,0.0012,-0.0212,-0.0098,-0.0268,-3.7827,-1.0389,8.9652,0.0000,0.0001,0.0000,1.0000,-0.0946,-0.0260,0.2241
667,Right,0,0.1545,-0.1635,-0.9344,-0.2763,0.0043,0.0055,-0.0000,0.0185,0.0272,-0.0603,-3.6979,2.1148,8.7729,0.0001,0.0001,-0.0000,1.0000,-0.0924,0.0529,0.2193
667,Pelvis,0,0.0934,0.8576,-0.3502,-0.3650,0.0559,-7.4928,2.4577,-5.8043,0.4079,7.9647,15.0422,-10.5852,-3.5282,0.0007,-0.0935,0.0307,0.9951,0.3900,-0.2527,-0.0523
668,Left,0,0.2028,0.0365,-0.9744,-0.0897,-0.0031,0.0134,-0.0012,0.0003,0.0179,-0.0377,-3.7946,-1.0682,8.9449,-0.0000,0.0002,-0.0000,1.0000,-0.0948,-0.0267,0.2236
668,Right,0,0.1546,-0.1636,-0.9344,-0.2763,0.0067,0.0092,-0.0000,0.0126,0.0277,-0.0727,-3.6897,2.1159,8.7622,0.0001,0.0001,-0.0000,1.0000,-0.0922,0.0529,0.2191
668,Pelvis,0,0.0688,0.8725,-0.3669,-0.3153,0.8628,-8.0348,3.0075,-4.1089,-2.2107,2.4429,9.2014,-9.1586,-1.9476,0.0108,-0.1002,0.0375,0.9942,0.2419,-0.2196,-0.0272
669,Left,0,0.2030,0.0366,-0.9744,-0.0897,-0.0055,0.0165,-0.0043,-0.0358,0.0010,-0.0117,-3.7784,-1.0498,8.9824,-0.0001,0.0002,-0.0001,1.0000,-0.0944,-0.0262,0.2246
669,Right,0,0.1546,-0.1637,-0.9343,-0.2762,0.0085,0.0085,0.0012,0.0125,0.0272,-0.0727,-3.6916,2.1177,8.7610,0.0001,0.0001,0.0000,1.0000,-0.0923,0.0529,0.2190
669,Pelvis,0,0.0613,0.8790,-0.3980,-0.2555,1.4114,-7.7430,3.5799,-2.4337,-5.8330,-6.0629,1.7763,-6.4240,3.0961,0.0176,-0.0966,0.0447,0.9942,0.0440,-0.1600,0.0789
670,Left,0,0.2032,0.0366,-0.9743,-0.0898,-0.0037,0.0153,-0.0031,0.0065,0.0279,-0.0456,-3.8013,-1.0805,8.9320,-0.0000,0.0002,-0.0000,1.0000,-0.0950,-0.0270,0.2233
670,Right,0,0.1547,-0.1637,-0.9343,-0.2763,0.0043,0.0085,-0.0037,0.0107,0.0220,-0.0493,-3.7033,2.1288,8.7794,0.0001,0.0001,-0.0000,1.0000,-0.0926,0.0532,0.2195
670,Pelvis,0,0.0742,0.8722,-0.4340,-0.2130,1.1857,-5.6699,3.3072,4.9923,-11.9299,-13.6919,-9.8197,-5.0409,7.7964,0.0148,-0.0708,0.0413,0.9965,-0.2528,-0.1391,0.1752
671,Left,0,0.2032,0.0366,-0.9743,-0.0898,0.0031,0.0079,-0.0012,0.0067,0.0277,-0.0456,-3.8038,-1.0808,8.9309,0.0000,0.0001,-0.0000,1.0000,-0.0951,-0.0270,0.2233
671,Right,0,0.1547,-0.1638,-0.9343,-0.2763,0.0043,0.0018,-0.0049,0.0232,0.0416,-0.0770,-3.6949,2.1000,8.7592,0.0001,0.0000,-0.0001,1.0000,-0.0924,0.0525,0.2190
671,Pelvis,0,0.1038,0.8571,-0.4626,-0.2015,-0.0670,-2.6211,1.4204,19.0703,-16.3676,-18.4891,-25.4588,-2.3688,7.3076,-0.0008,-0.0328,0.0178,0.9993,-0.6408,-0.0704,0.1618
672,Left,0,0.2033,0.0365,-0.9743,-0.0898,0.0067,0.0043,0.0012,-0.0059,0.0289,-0.0404,-3.7954,-1.0797,8.9402,0.0001,0.0001,0.0000,1.0000,-0.0949,-0.0270,0.2235
672,Right,0,0.1548,-0.1638,-0.9343,-0.2764,0.0043,0.0043,-0.0037,-0.0039,0.0343,-0.0801,-3.6763,2.1200,8.7587,0.0001,0.0001,-0.0000,1.0000,-0.0919,0.0530,0.2190
672,Pelvis,0,0.1509,0.8408,-0.4736,-0.2143,-1.5610,0.9364,-0.9859,18.3915,-13.3388,-16.6066,-23.3890,0.3989,3.8978,-0.0195,0.0117,-0.0123,0.9997,-0.5833,0.0192,0.1040
673,Left,0,0.2033,0.0364,-0.9743,-0.0898,0.0073,0.0031,0.0006,-0.0167,0.0086,-0.0247,-3.7963,-1.0585,8.9595,0.0001,0.0000,0.0000,1.0000,-0.0949,-0.0265,0.2240
673,Right,0,0.1548,-0.1639,-0.9342,-0.2764,0.0110,0.0043,-0.0006,0.0110,0.0329,-0.0873,-3.6871,2.1117,8.7481,0.0001,0.0001,-0.0000,1.0000,-0.0922,0.0528,0.2187
673,Pelvis,0,0.2266,0.8092,-0.4795,-0.2529,-0.7273,4.6448,-1.2553,11.4481,-9.2507,-16.3573,-15.5362,3.4669,2.5226,-0.0091,0.0580,-0.0157,0.9982,-0.3825,0.0934,0.0846
674,Left,0,0.2033,0.0364,-0.9743,-0.0898,0.0067,0.0067,0.0006,-0.0102,0.0301,-0.0531,-3.7876,-1.0764,8.9300,0.0001,0.0001,0.0000,1.0000,-0.0947,-0.0269,0.2233
674,Right,0,0.1549,-0.1640,-0.9342,-0.2764,0.0116,0.0085,-0.0018,0.0151,0.0349,-0.0661,-3.6983,2.1141,8.7665,0.0001,0.0001,-0.0000,1.0000,-0.0924,0.0528,0.2192
674,Pelvis,0,0.3030,0.7595,-0.4785,-0.3199,1.3059,6.7350,-2.2399,7.1277,-5.9997,-16.7146,-10.1335,5.5848,0.9487,0.0163,0.0841,-0.0280,0.9959,-0.2460,0.1459,0.0470
675,Left,0,0.2032,0.0363,-0.9743,-0.0898,0.0085,-0.0055,-0.0018,0.0038,0.0132,-0.0160,-3.8171,-1.0650,8.9594,0.0001,-0.0001,-0.0000,1.0000,-0.0954,-0.0266,0.2240
675,Right,0,0.1549,-0.1641,-0.9342,-0.2765,0.0098,0.0073,-0.0024,0.0093,0.0432,-0.0932,-3.6806,2.1065,8.7457,0.0001,0.0001,-0.0000,1.0000,-0.0920,0.0526,0.2187
675,Pelvis,0,0.3763,0.6885,-0.4670,-0.4078,3.3998,8.1901,-2.2350,0.7370,0.0694,-12.0258,-0.6364,2.2473,-0.0208,0.0424,0.1022,-0.0279,0.9935,-0.0141,0.0565,0.0034
676,Left,0,0.2031,0.0361,-0.9744,-0.0898,0.0214,-0.0091,0.0043,-0.0030,0.0200,-0.0721,-3.7861,-1.0616,8.9117,0.0003,-0.0001,0.0001,1.0000,-0.0947,-0.0266,0.2228
676,Right,0,0.1549,-0.1640,-0.9342,-0.2765,0.0024,-0.0012,-0.0024,0.0231,0.0091,-0.0866,-3.7107,2.1271,8.7352,0.0000,-0.0000,-0.0000,1.0000,-0.0928,0.0532,0.2184
676,Pelvis,0,0.4326,0.6318,-0.4371,-0.4718,2.3172,6.3120,-1.7227,-7.5675,28.6226,8.7500,32.5314,-12.5499,-2.8935,0.0289,0.0788,-0.0215,0.9962,0.7968,-0.3275,-0.1451
677,Left,0,0.2028,0.0358,-0.9744,-0.0898,0.0269,-0.0201,0.0068,0.0081,0.0123,-0.0250,-3.8123,-1.0556,8.9527,0.0003,-0.0003,0.0001,1.0000,-0.0954,-0.0265,0.2238
677,Right,0,0.1548,-0.1640,-0.9342,-0.2765,0.0024,-0.0043,0.0000,0.0430,0.0342,-0.0717,-3.7200,2.0983,8.7549,0.0000,-0.0001,0.0000,1.0000,-0.0930,0.0524,0.2189
677,Pelvis,0,0.4204,0.6441,-0.4461,-0.4576,0.7887,-0.9607,0.1038,-2.2049,44.1055,27.3033,50.5386,-24.7542,-12.6846,0.0099,-0.0120,0.0013,0.9999,1.2680,-0.6141,-0.3080
678,Left,0,0.2027,0.0356,-0.9745,-0.0898,0.0146,-0.0043,0.0031,-0.0462,-0.0445,0.0236,-3.7903,-0.9916,9.0226,0.0002,-0.0001,0.0000,1.0000,-0.0948,-0.0248,0.2256
678,Right,0,0.1548,-0.1640,-0.9342,-0.2765,0.0098,-0.0006,0.0067,0.0057,0.0351,-0.0697,-3.6900,2.1195,8.7646,0.0001,-0.0000,0.0001,1.0000,-0.0923,0.0530,0.2191
678,Pelvis,0,0.3219,0.7214,-0.4880,-0.3712,0.4904,-7.8898,0.2238,-7.5538,24.9753,19.1737,32.1531,-20.0486,-9.4179,0.0061,-0.0985,0.0028,0.9951,0.8234,-0.4978,-0.1579
679,Left,0,0.2030,0.0356,-0.9744,-0.0899,-0.0037,0.0207,-0.0019,-0.0526,-0.0210,0.0003,-3.7726,-1.0099,9.0025,-0.0000,0.0003,-0.0000,1.0000,-0.0943,-0.0252,0.2251
679,Right,0,0.1549,-0.1642,-0.9341,-0.2765,0.0153,0.0116,0.0061,-0.0052,0.0423,-0.0646,-3.6811,2.1228,8.7732,0.0002,0.0001,0.0001,1.0000,-0.0920,0.0530,0.2194
679,Pelvis,0,0.2300,0.7762,-0.5336,-0.2446,1.0123,-8.8242,3.5355,-10.1082,1.9303,4.7257,11.5020,-13.5403,1.4748,0.0126,-0.1100,0.0441,0.9929,0.2960,-0.3262,0.0651
680,Left,0,0.2032,0.0358,-0.9743,-0.0899,-0.0159,0.0268,-0.0080,-0.0369,-0.0011,-0.0244,-3.7778,-1.0322,8.9708,-0.0002,0.0003,-0.0001,1.0000,-0.0944,-0.0258,0.2243
680,Right,0,0.1550,-0.1643,-0.9341,-0.2764,0.0128,0.0116,0.0061,-0.0050,0.0219,-0.0889,-3.6832,2.1361,8.7421,0.0002,0.0001,0.0001,1.0000,-0.0921,0.0534,0.2186
680,Pelvis,0,0.1858,0.8025,-0.5541,-0.1206,0.3018,-6.8339,5.5575,0.2508,-14.5602,-9.2422,-7.1621,-5.6202,11.3951,0.0038,-0.0853,0.0693,0.9939,-0.1920,-0.1546,0.2683
681,Left,0,0.2034,0.0360,-0.9743,-0.0900,-0.0116,0.0177,-0.0068,0.0286,0.0319,-0.0586,-3.8215,-1.0753,8.9098,-0.0001,0.0002,-0.0001,1.0000,-0.0955,-0.0268,0.2228
681,Right,0,0.1551,-0.1644,-0.9341,-0.2764,0.0061,0.0085,-0.0006,0.0111,0.0355,-0.0806,-3.6951,2.1190,8.7505,0.0001,0.0001,-0.0000,1.0000,-0.0924,0.0530,0.2188
681,Pelvis,0,0.1684,0.8228,-0.5416,-0.0353,-1.5491,-4.5555,3.7869,17.7033,-22.4546,-15.4264,-24.0754,0.5232,16.4438,-0.0193,-0.0569,0.0473,0.9971,-0.6239,-0.0086,0.3760
682,Left,0,0.2035,0.0360,-0.9743,-0.0900,-0.0006,0.0055,-0.0018,0.0092,0.0443,-0.0562,-3.8044,-1.0868,8.9184,-0.0000,0.0001,-0.0000,1.0000,-0.0951,-0.0272,0.2230
682,Right,0,0.1551,-0.1644,-0.9341,-0.2764,0.0073,0.0079,0.0018,0.0356,0.0530,-0.0833,-3.7066,2.0912,8.7494,0.0001,0.0001,0.0000,1.0000,-0.0926,0.0523,0.2187
682,Pelvis,0,0.1709,0.8403,-0.5143,-0.0175,-2.4312,-0.6575,0.3137,29.4128,-20.8224,-16.8700,-33.1446,5.7911,14.7139,-0.0304,-0.0082,0.0039,0.9995,-0.8322,0.1525,0.3565
683,Left,0,0.2034,0.0359,-0.9743,-0.0900,0.0122,-0.0085,0.0025,0.0179,0.0421,-0.0524,-3.8138,-1.0855,8.9186,0.0002,-0.0001,0.0000,1.0000,-0.0954,-0.0272,0.2230
683,Right,0,0.1552,-0.1645,-0.9341,-0.2764,0.0098,0.0037,0.0037,0.0282,0.0524,-0.0958,-3.6980,2.0933,8.7387,0.0001,0.0000,0.0000,1.0000,-0.0924,0.0523,0.2185
683,Pelvis,0,0.2181,0.8435,-0.4859,-0.0693,-1.4827,5.1222,-0.9558,24.7707,-14.3040,-19.3560,-26.8304,9.8543,9.6612,-0.0185,0.0640,-0.0119,0.9977,-0.6506,0.2592,0.2789
684,Left,0,0.2031,0.0357,-0.9744,-0.0900,0.0159,-0.0122,0.0013,-0.0130,0.0247,-0.0352,-3.7921,-1.0625,8.9493,0.0002,-0.0002,0.0000,1.0000,-0.0948,-0.0266,0.2237
684,Right,0,0.1550,-0.1646,-0.9341,-0.2763,0.0104,0.0006,0.0043,0.0415,0.0496,-0.0708,-3.7178,2.0959,8.7575,0.0001,0.0000,0.0001,1.0000,-0.0929,0.0524,0.2189
684,Pelvis,0,0.2820,0.8222,-0.4668,-0.1632,1.0555,8.4947,-1.6811,8.8950,-7.9711,-19.6917,-11.1425,8.1953,7.0554,0.0132,0.1060,-0.0210,0.9941,-0.2533,0.2078,0.2069
685,Left,0,0.2029,0.0356,-0.9744,-0.0900,0.0195,-0.0177,0.0019,0.0037,0.0228,-0.0493,-3.7986,-1.0585,8.9316,0.0002,-0.0002,0.0000,1.0000,-0.0950,-0.0265,0.2233
685,Right,0,0.1550,-0.1646,-0.9341,-0.2763,0.0085,-0.0037,0.0055,0.0180,0.0341,-0.0915,-3.6976,2.1179,8.7375,0.0001,-0.0000,0.0001,1.0000,-0.0925,0.0529,0.2184
685,Pelvis,0,0.3150,0.7918,-0.4553,-0.2579,2.7437,7.4922,-3.1357,-16.4874,10.9254,-4.5375,19.6963,-5.6371,0.9528,0.0342,0.0935,-0.0391,0.9943,0.4854,-0.1597,-0.0272
686,Left,0,0.2026,0.0353,-0.9745,-0.0900,0.0281,-0.0214,0.0007,-0.0086,0.0208,-0.0225,-3.7943,-1.0529,8.9634,0.0004,-0.0003,0.0000,1.0000,-0.0949,-0.0264,0.2241
686,Right,0,0.1549,-0.1645,-0.9342,-0.2762,0.0073,-0.0092,0.0031,0.0338,0.0473,-0.0833,-3.7058,2.1005,8.7475,0.0001,-0.0001,0.0000,1.0000,-0.0927,0.0525,0.2187
686,Pelvis,0,0.3113,0.7564,-0.4998,-0.2850,5.3935,0.8970,-0.5125,-28.6853,37.4217,23.6338,50.4625,-24.5685,-13.9150,0.0674,0.0112,-0.0064,0.9976,1.2534,-0.5963,-0.4026
687,Left,0,0.2023,0.0350,-0.9745,-0.0900,0.0244,-0.0171,0.0043,-0.0366,-0.0082,0.0062,-3.7803,-1.0173,9.0048,0.0003,-0.0002,0.0001,1.0000,-0.0946,-0.0255,0.2251
687,Right,0,0.1547,-0.1646,-0.9342,-0.2762,0.0110,-0.0061,0.0080,0.0365,0.0530,-0.0532,-3.7137,2.1032,8.7770,0.0001,-0.0001,0.0001,1.0000,-0.0929,0.0525,0.2194
687,Pelvis,0,0.3063,0.7353,-0.5549,-0.2401,3.6107,-3.8975,3.5526,-12.3760,23.4503,32.6287,28.5915,-36.5022,-18.9247,0.0451,-0.0487,0.0444,0.9968,0.7769,-0.8575,-0.4758
688,Left,0,0.2025,0.0351,-0.9745,-0.0900,-0.0006,0.0152,-0.0037,-0.0572,-0.0368,0.0171,-3.7704,-0.9852,9.0246,-0.0000,0.0002,-0.0000,1.0000,-0.0942,-0.0246,0.2256
688,Right,0,0.1547,-0.1648,-0.9342,-0.2760,0.0207,0.0098,0.0079,0.0072,0.0570,-0.0622,-3.6844,2.1172,8.7761,0.0003,0.0001,0.0001,1.0000,-0.0921,0.0529,0.2194
688,Pelvis,0,0.3169,0.7413,-0.5640,-0.1791,-0.8645,-3.8857,4.0164,-5.9525,4.0447,8.5843,6.5440,-18.1629,-4.2497,-0.0108,-0.0485,0.0502,0.9975,0.1909,-0.4460,-0.0926
689,Left,0,0.2028,0.0354,-0.9744,-0.0900,-0.0183,0.0317,-0.0099,-0.0070,-0.0098,-0.0347,-3.7949,-1.0176,8.9539,-0.0002,0.0004,-0.0001,1.0000,-0.0948,-0.0254,0.2239
689,Right,0,0.1548,-0.1650,-0.9342,-0.2759,0.0195,0.0128,0.0073,-0.0030,0.0255,-0.1056,-3.6765,2.1415,8.7250,0.0002,0.0002,0.0001,1.0000,-0.0919,0.0535,0.2182
689,Pelvis,0,0.3483,0.7341,-0.5699,-0.1220,-0.8095,-2.7852,5.2552,-0.0048,-8.7644,-3.1946,-6.8217,-7.4639,4.2976,-0.0101,-0.0348,0.0656,0.9972,-0.1615,-0.1963,0.1037
690,Left,0,0.2031,0.0356,-0.9744,-0.0901,-0.0140,0.0226,-0.0105,0.0197,0.0271,-0.0534,-3.8104,-1.0614,8.9218,-0.0002,0.0003,-0.0001,1.0000,-0.0952,-0.0265,0.2231
690,Right,0,0.1550,-0.1649,-0.9342,-0.2757,0.0055,0.0067,0.0018,0.0045,0.0344,-0.0864,-3.6882,2.1350,8.7430,0.0001,0.0001,0.0000,1.0000,-0.0922,0.0534,0.2186
690,Pelvis,0,0.3713,0.7326,-0.5642,-0.0836,-1.4124,-1.7832,3.3939,7.9384,-15.7711,-9.8710,-15.9474,1.7083,7.3946,-0.0176,-0.0223,0.0424,0.9987,-0.4041,0.0288,0.1753
691,Left,0,0.2031,0.0357,-0.9743,-0.0901,-0.0049,0.0073,-0.0073,0.0134,0.0378,-0.0561,-3.8037,-1.0741,8.9202,-0.0001,0.0001,-0.0001,1.0000,-0.0951,-0.0268,0.2230
691,Right,0,0.1550,-0.1649,-0.9342,-0.2756,0.0043,0.0024,0.0024,0.0422,0.0634,-0.1020,-3.6989,2.0874,8.7329,0.0001,0.0000,0.0000,1.0000,-0.0925,0.0522,0.2183
692,Left,0,0.2030,0.0356,-0.9744,-0.0901,0.0061,-0.0043,-0.0018,-0.0124,0.0495,-0.0358,-3.7845,-1.0840,8.9495,0.0001,-0.0001,-0.0000,1.0000,-0.0946,-0.0271,0.2237
692,Right,0,0.1549,-0.1650,-0.9342,-0.2757,0.0073,0.0006,0.0037,0.0416,0.0578,-0.0787,-3.7089,2.0989,8.7519,0.0001,0.0000,0.0000,1.0000,-0.0927,0.0524,0.2188
692,Pelvis,0,0.3724,0.7411,-0.5496,-0.1003,-0.3550,0.5322,-0.4946,13.7422,-12.8466,-14.6699,-16.7344,9.1091,3.8069,-0.0089,0.0133,-0.0124,0.9998,-0.8284,0.4675,0.1973
693,Left,0,0.2029,0.0356,-0.9744,-0.0901,0.0110,-0.0098,-0.0012,-0.0170,0.0316,-0.0596,-3.7731,-1.0628,8.9308,0.0001,-0.0001,-0.0000,1.0000,-0.0944,-0.0266,0.2233
693,Right,0,0.1549,-0.1649,-0.9343,-0.2755,0.0061,-0.0024,0.0049,0.0224,0.0687,-0.0772,-3.6890,2.1008,8.7614,0.0001,-0.0000,0.0001,1.0000,-0.0922,0.0525,0.2190
693,Pelvis,0,0.3570,0.7441,-0.5490,-0.1318,1.2387,2.4709,-2.8572,4.2533,-4.2258,-12.6816,-5.1323,3.8192,1.8133,0.0155,0.0309,-0.0357,0.9988,-0.1233,0.0992,0.0507
694,Left,0,0.2028,0.0355,-0.9744,-0.0901,0.0153,-0.0085,-0.0012,0.0015,0.0368,-0.0510,-3.7905,-1.0698,8.9320,0.0002,-0.0001,-0.0000,1.0000,-0.0948,-0.0268,0.2233
694,Right,0,0.1549,-0.1648,-0.9343,-0.2755,0.0061,-0.0043,0.0019,0.0316,0.0549,-0.0911,-3.6978,2.1023,8.7419,0.0001,-0.0001,0.0000,1.0000,-0.0925,0.0525,0.2185
694,Pelvis,0,0.3530,0.7397,-0.5470,-0.1703,1.3662,3.0173,-2.0010,-7.2966,0.1805,-1.4164,3.8560,-10.3542,1.3214,0.0171,0.0377,-0.0250,0.9988,0.0909,-0.2616,0.0251
695,Left,0,0.2027,0.0354,-0.9745,-0.0900,0.0134,-0.0061,0.0006,-0.0277,0.0072,-0.0222,-3.7792,-1.0371,8.9720,0.0002,-0.0001,0.0000,1.0000,-0.0945,-0.0260,0.2243
695,Right,0,0.1549,-0.1648,-0.9343,-0.2754,0.0091,-0.0043,0.0025,0.0338,0.0560,-0.0698,-3.7066,2.1043,8.7613,0.0001,-0.0001,0.0000,1.0000,-0.0927,0.0526,0.2190
695,Pelvis,0,0.3410,0.7563,-0.5227,-0.1963,-1.2259,2.2286,-2.7072,-11.3670,5.0827,8.2318,9.7114,-19.4758,-2.6933,-0.0153,0.0278,-0.0338,0.9989,0.2243,-0.4957,-0.0662
696,Left,0,0.2026,0.0354,-0.9745,-0.0900,0.0049,0.0037,0.0006,-0.0121,0.0144,-0.0263,-3.7887,-1.0448,8.9626,0.0001,0.0000,0.0000,1.0000,-0.0947,-0.0261,0.2241
696,Right,0,0.1548,-0.1649,-0.9343,-0.2754,0.0140,0.0043,0.0037,0.0156,0.0525,-0.0839,-3.6868,2.1168,8.7510,0.0002,0.0001,0.0000,1.0000,-0.0922,0.0529,0.2188
696,Pelvis,0,0.3209,0.7847,-0.4918,-0.1985,-2.7461,0.1193,-2.5168,-7.1155,5.1959,11.1268,8.0057,-19.9452,-7.3862,-0.0343,0.0015,-0.0314,0.9989,0.1839,-0.5105,-0.1675
697,Left,0,0.2028,0.0355,-0.9744,-0.0899,-0.0012,0.0153,-0.0013,-0.0183,0.0250,-0.0290,-3.7810,-1.0542,8.9618,-0.0000,0.0002,-0.0000,1.0000,-0.0945,-0.0263,0.2241
697,Right,0,0.1550,-0.1650,-0.9343,-0.2753,0.0134,0.0073,-0.0000,-0.0035,0.0637,-0.0824,-3.6685,2.1200,8.7595,0.0002,0.0001,-0.0000,1.0000,-0.0917,0.0530,0.2190
697,Pelvis,0,0.3132,0.7940,-0.4849,-0.1907,-0.9427,-0.6573,-0.4680,-3.6957,2.5276,7.6705,4.3782,-15.9742,-7.1686,-0.0118,-0.0082,-0.0058,0.9999,0.1085,-0.4021,-0.1736
698,Left,0,0.2030,0.0356,-0.9744,-0.0898,-0.0043,0.0214,0.0005,-0.0182,-0.0046,-0.0412,-3.7851,-1.0256,8.9501,-0.0001,0.0003,0.0000,1.0000,-0.0946,-0.0256,0.2238
698,Right,0,0.1550,-0.1650,-0.9343,-0.2752,0.0092,0.0104,-0.0012,0.0027,0.0421,-0.0942,-3.6802,2.1320,8.7385,0.0001,0.0001,-0.0000,1.0000,-0.0920,0.0533,0.2185
698,Pelvis,0,0.3327,0.7821,-0.4945,-0.1818,0.4824,0.0835,2.0705,-1.3816,-3.0769,2.8338,-1.4089,-12.6989,-2.8461,0.0060,0.0010,0.0259,0.9996,-0.0271,-0.3178,-0.0730
699,Left,0,0.2032,0.0357,-0.9744,-0.0897,-0.0086,0.0244,-0.0001,0.0001,0.0095,-0.0225,-3.8098,-1.0465,8.9576,-0.0001,0.0003,-0.0000,1.0000,-0.0952,-0.0261,0.2240
699,Right,0,0.1552,-0.1650,-0.9344,-0.2751,0.0006,0.0091,-0.0043,0.0161,0.0436,-0.0926,-3.6922,2.1231,8.7374,0.0000,0.0001,-0.0001,1.0000,-0.0923,0.0531,0.2184
699,Pelvis,0,0.3577,0.7669,-0.5002,-0.1834,0.5531,1.2522,2.0732,0.8250,-6.4881,-1.6953,-5.7052,-8.7252,0.1226,0.0069,0.0157,0.0259,0.9995,-0.1369,-0.2218,0.0037
700,Left,0,0.2032,0.0359,-0.9744,-0.0895,-0.0031,0.0140,0.0006,0.0028,0.0201,-0.0431,-3.8043,-1.0576,8.9361,-0.0000,0.0002,0.0000,1.0000,-0.0951,-0.0264,0.2234
700,Right,0,0.1552,-0.1648,-0.9345,-0.2749,-0.0055,0.0024,-0.0061,0.0365,0.0440,-0.0786,-3.7133,2.1125,8.7467,-0.0001,0.0000,-0.0001,1.0000,-0.0928,0.0528,0.2187
700,Pelvis,0,0.3573,0.7657,-0.4969,-0.1976,0.1538,1.3997,-0.4535,0.7581,-1.9102,-3.7102,-2.3121,-5.7024,-1.8981,0.0019,0.0175,-0.0057,0.9998,-0.0594,-0.1421,-0.0467
701,Left,0,0.2033,0.0358,-0.9744,-0.0895,0.0043,0.0031,0.0024,0.0179,0.0564,-0.0350,-3.8159,-1.0964,8.9355,0.0001,0.0000,0.0000,1.0000,-0.0954,-0.0274,0.2234
701,Right,0,0.1552,-0.1646,-0.9345,-0.2749,-0.0012,-0.0037,-0.0006,0.0414,0.0658,-0.0651,-3.7135,2.0920,8.7667,-0.0000,-0.0000,-0.0000,1.0000,-0.0928,0.0523,0.2192
701,Pelvis,0,0.3458,0.7668,-0.4971,-0.2128,0.4732,0.9479,-1.1794,0.4070,-0.4081,-2.8981,-0.8229,-6.2403,-2.9208,0.0059,0.0118,-0.0147,0.9998,-0.0237,-0.1552,-0.0737
702,Left,0,0.2032,0.0357,-0.9744,-0.0896,0.0085,-0.0018,0.0019,0.0047,0.0172,-0.0214,-3.8163,-1.0556,8.9549,0.0001,-0.0000,0.0000,1.0000,-0.0954,-0.0264,0.2239
702,Right,0,0.1552,-0.1646,-0.9344,-0.2750,0.0018,-0.0012,0.0012,0.0641,0.0922,-0.0823,-3.7130,2.0530,8.7574,0.0000,-0.0000,0.0000,1.0000,-0.0928,0.0513,0.2189
703,Left,0,0.2032,0.0357,-0.9744,-0.0895,0.0098,0.0000,0.0006,-0.0129,0.0195,-0.0290,-3.7966,-1.0534,8.9554,0.0001,0.0000,0.0000,1.0000,-0.0949,-0.0264,0.2239
703,Right,0,0.1553,-0.1646,-0.9345,-0.2749,0.0073,0.0000,0.0043,0.0435,0.0794,-0.0818,-3.7029,2.0738,8.7571,0.0001,0.0000,0.0001,1.0000,-0.0926,0.0518,0.2189
703,Pelvis,0,0.3158,0.7681,-0.4990,-0.2476,0.7069,0.6811,-1.5423,0.9806,-0.5456,-1.9262,-0.8847,-7.1252,-3.4567,0.0177,0.0170,-0.0385,0.9990,-0.0608,-0.3510,-0.1781
704,Left,0,0.2032,0.0356,-0.9744,-0.0895,0.0092,0.0043,0.0000,-0.0166,0.0211,-0.0417,-3.7872,-1.0513,8.9457,0.0001,0.0001,0.0000,1.0000,-0.0947,-0.0263,0.2236
704,Right,0,0.1553,-0.1647,-0.9345,-0.2749,0.0134,0.0037,0.0018,0.0224,0.0709,-0.0725,-3.6934,2.0959,8.7660,0.0002,0.0000,0.0000,1.0000,-0.0923,0.0524,0.2192
704,Pelvis,0,0.3118,0.7693,-0.4982,-0.2507,-0.2045,1.0531,-0.1522,0.3682,1.2548,-2.4023,1.1585,-6.3776,-3.8223,-0.0026,0.0132,-0.0019,0.9999,0.0274,-0.1597,-0.0955
705,Left,0,0.2033,0.0357,-0.9744,-0.0892,0.0055,0.0122,0.0006,-0.0102,0.0258,-0.0279,-3.7989,-1.0594,8.9549,0.0001,0.0002,0.0000,1.0000,-0.0949,-0.0265,0.2239
705,Right,0,0.1554,-0.1647,-0.9345,-0.2746,0.0134,0.0055,0.0031,0.0175,0.0654,-0.0937,-3.6844,2.0989,8.7454,0.0002,0.0001,0.0000,1.0000,-0.0921,0.0524,0.2187
705,Pelvis,0,0.3250,0.7644,-0.4922,-0.2603,-0.2968,1.7430,0.5297,-0.1481,2.8320,-1.2709,2.8378,-7.0460,-4.8276,-0.0037,0.0218,0.0066,0.9997,0.0695,-0.1761,-0.1216
706,Left,0,0.2034,0.0356,-0.9744,-0.0893,0.0055,0.0122,-0.0012,-0.0267,0.0266,-0.0137,-3.7919,-1.0580,8.9734,0.0001,0.0002,-0.0000,1.0000,-0.0948,-0.0265,0.2243
706,Right,0,0.1554,-0.1648,-0.9344,-0.2748,0.0085,0.0043,0.0006,0.0234,0.0601,-0.0900,-3.6951,2.1015,8.7444,0.0001,0.0001,0.0000,1.0000,-0.0924,0.0525,0.2186
706,Pelvis,0,0.3329,0.7587,-0.4869,-0.2764,0.0921,1.7633,-0.0585,-0.4305,1.4031,1.2654,2.3023,-9.8950,-4.6551,0.0012,0.0220,-0.0007,0.9998,0.0548,-0.2473,-0.1179
707,Left,0,0.2034,0.0356,-0.9744,-0.0892,0.0055,0.0079,0.0006,-0.0012,0.0250,-0.0457,-3.8038,-1.0571,8.9335,0.0001,0.0001,0.0000,1.0000,-0.0951,-0.0264,0.2233
707,Right,0,0.1554,-0.1648,-0.9344,-0.2748,0.0049,0.0012,-0.0006,0.0195,0.0749,-0.0870,-3.6860,2.0933,8.7537,0.0001,0.0000,-0.0000,1.0000,-0.0921,0.0523,0.2188
707,Pelvis,0,0.3191,0.7566,-0.4866,-0.2983,0.9129,0.9641,-1.6050,-0.6850,0.9502,2.9873,2.6716,-11.6928,-4.6249,0.0114,0.0120,-0.0201,0.9997,0.0595,-0.2922,-0.1197
708,Left,0,0.2036,0.0354,-0.9743,-0.0895,0.0098,0.0025,0.0012,-0.0032,0.0262,-0.0457,-3.8049,-1.0553,8.9332,0.0001,0.0000,0.0000,1.0000,-0.0951,-0.0264,0.2233
708,Right,0,0.1556,-0.1648,-0.9343,-0.2751,0.0055,-0.0006,0.0006,0.0489,0.0763,-0.0801,-3.7154,2.0749,8.7534,0.0001,-0.0000,0.0000,1.0000,-0.0929,0.0519,0.2188
708,Pelvis,0,0.3001,0.7544,-0.4930,-0.3127,1.2588,0.0869,-1.4773,-3.0042,-0.3523,7.2963,4.3078,-16.5251,-3.2073,0.0157,0.0011,-0.0185,0.9997,0.1000,-0.4137,-0.0868
709,Left,0,0.2035,0.0353,-0.9743,-0.0894,0.0128,-0.0036,0.0019,0.0165,0.0309,-0.0371,-3.8244,-1.0624,8.9335,0.0002,-0.0000,0.0000,1.0000,-0.0956,-0.0266,0.2233
709,Right,0,0.1554,-0.1649,-0.9343,-0.2752,0.0085,-0.0018,0.0025,0.0249,0.0651,-0.0921,-3.6955,2.0960,8.7433,0.0001,-0.0000,0.0000,1.0000,-0.0924,0.0524,0.2186
709,Pelvis,0,0.3032,0.7521,-0.4983,-0.3068,0.1353,-0.2477,0.6296,-4.5346,-3.1923,15.7742,4.7051,-25.5988,-2.8322,0.0017,-0.0031,0.0079,1.0000,0.1229,-0.6389,-0.0715
710,Left,0,0.2033,0.0351,-0.9744,-0.0895,0.0177,-0.0146,0.0025,-0.0057,0.0339,-0.0357,-3.8029,-1.0587,8.9447,0.0002,-0.0002,0.0000,1.0000,-0.0951,-0.0265,0.2236
710,Right,0,0.1555,-0.1648,-0.9343,-0.2752,0.0091,-0.0036,0.0049,0.0307,0.0833,-0.0874,-3.6948,2.0788,8.7530,0.0001,-0.0000,0.0001,1.0000,-0.0924,0.0519,0.2188
710,Pelvis,0,0.3365,0.7465,-0.5028,-0.2770,-1.1442,-0.2518,3.5094,-7.6224,0.4752,22.3416,8.9213,-31.4352,-5.0222,-0.0143,-0.0031,0.0439,0.9989,0.2576,-0.7768,-0.1136
711,Left,0,0.2031,0.0349,-0.9744,-0.0895,0.0153,-0.0116,0.0013,0.0025,0.0098,-0.0125,-3.8197,-1.0352,8.9657,0.0002,-0.0001,0.0000,1.0000,-0.0955,-0.0259,0.2241
711,Right,0,0.1554,-0.1650,-0.9343,-0.2752,0.0165,-0.0006,0.0074,0.0323,0.0888,-0.0573,-3.7039,2.0825,8.7818,0.0002,-0.0000,0.0001,1.0000,-0.0926,0.0520,0.2196
711,Pelvis,0,0.3947,0.7364,-0.5050,-0.2166,-2.4832,-0.9837,6.3151,-11.0022,5.6822,19.6097,11.1762,-29.3401,-5.9740,-0.0310,-0.0123,0.0788,0.9963,0.3379,-0.7124,-0.1231
712,Left,0,0.2029,0.0350,-0.9745,-0.0894,0.0037,0.0049,-0.0018,-0.0417,0.0051,-0.0018,-3.7800,-1.0231,8.9956,0.0000,0.0001,-0.0000,1.0000,-0.0945,-0.0256,0.2249
712,Right,0,0.1553,-0.1652,-0.9343,-0.2751,0.0207,0.0073,0.0079,0.0128,0.0647,-0.0636,-3.6943,2.1165,8.7705,0.0003,0.0001,0.0001,1.0000,-0.0923,0.0528,0.2193
712,Pelvis,0,0.4617,0.7174,-0.5046,-0.1322,-3.2344,-2.1007,7.9942,-13.1839,8.1471,10.0449,10.5337,-22.5603,-4.1445,-0.0403,-0.0262,0.0997,0.9939,0.3202,-0.5372,-0.0736
713,Left,0,0.2031,0.0351,-0.9744,-0.0895,-0.0073,0.0195,-0.0080,-0.0167,0.0044,-0.0338,-3.7922,-1.0243,8.9553,-0.0001,0.0002,-0.0001,1.0000,-0.0948,-0.0256,0.2239
713,Right,0,0.1554,-0.1654,-0.9343,-0.2750,0.0189,0.0122,0.0049,0.0056,0.0729,-0.0906,-3.6766,2.1114,8.7492,0.0002,0.0002,0.0001,1.0000,-0.0919,0.0527,0.2188
713,Pelvis,0,0.6346,0.5833,-0.4973,-0.0982,-3.0854,-2.7823,10.8217,-7.7827,9.8596,-8.3679,10.0110,-7.6924,1.2645,-0.0384,-0.0347,0.1348,0.9895,0.2715,-0.1548,0.0473
714,Left,0,0.2036,0.0352,-0.9743,-0.0896,-0.0049,0.0171,-0.0074,0.0004,0.0317,-0.0446,-3.8057,-1.0558,8.9341,-0.0001,0.0002,-0.0001,1.0000,-0.0951,-0.0264,0.2234
714,Right,0,0.1557,-0.1655,-0.9342,-0.2751,0.0122,0.0085,0.0012,0.0068,0.0760,-0.1015,-3.6786,2.1052,8.7378,0.0002,0.0001,0.0000,1.0000,-0.0919,0.0526,0.2185
714,Pelvis,0,0.7072,0.4892,-0.5103,0.0123,-2.5238,-2.7444,12.5365,3.6446,-2.4709,-21.5238,5.2171,10.6318,4.2049,-0.0314,-0.0342,0.1560,0.9867,0.0832,0.2846,0.0997
715,Left,0,0.2034,0.0351,-0.9743,-0.0897,0.0043,0.0012,-0.0043,0.0179,0.0397,-0.0487,-3.8173,-1.0663,8.9235,0.0001,0.0000,-0.0001,1.0000,-0.0954,-0.0267,0.2231
715,Right,0,0.1557,-0.1655,-0.9342,-0.2751,0.0067,0.0012,0.0012,0.0476,0.0761,-0.0820,-3.7188,2.0881,8.7467,0.0001,0.0000,0.0000,1.0000,-0.0930,0.0522,0.2187
715,Pelvis,0,0.7429,0.4081,-0.5221,0.0944,-1.5079,-2.7853,9.2266,20.7883,-22.6350,-24.1468,-0.7668,33.7490,3.9911,-0.0188,-0.0347,0.1150,0.9926,-0.1190,0.8355,0.0810
716,Left,0,0.2034,0.0351,-0.9743,-0.0897,0.0061,-0.0006,-0.0024,-0.0134,0.0316,-0.0305,-3.7979,-1.0554,8.9529,0.0001,-0.0000,-0.0000,1.0000,-0.0950,-0.0264,0.2238
716,Right,0,0.1558,-0.1656,-0.9342,-0.2750,0.0134,0.0055,0.0031,0.0284,0.1027,-0.0651,-3.7001,2.0810,8.7753,0.0002,0.0001,0.0000,1.0000,-0.0925,0.0520,0.2194
716,Pelvis,0,0.7324,0.4243,-0.5237,0.0965,-0.7949,-0.4166,-1.1596,23.9387,-26.8259,-18.2050,-4.1317,36.6015,2.5540,-0.0099,-0.0052,-0.0145,0.9998,-0.0903,0.9170,0.0543
717,Left,0,0.2034,0.0351,-0.9743,-0.0898,0.0043,0.0037,-0.0018,-0.0244,0.0424,-0.0242,-3.7885,-1.0641,8.9628,0.0001,0.0000,-0.0000,1.0000,-0.0947,-0.0266,0.2241
717,Right,0,0.1559,-0.1658,-0.9341,-0.2751,0.0201,0.0092,0.0067,0.0052,0.0605,-0.0957,-3.6913,2.1237,8.7343,0.0003,0.0001,0.0001,1.0000,-0.0923,0.0530,0.2184
717,Pelvis,0,0.7054,0.4647,-0.5328,0.0500,1.9056,0.6243,-5.0543,18.8354,-11.8729,-23.8311,5.6759,25.7113,0.0020,0.0238,0.0078,-0.0631,0.9977,0.1821,0.6319,0.0139
718,Left,0,0.2033,0.0351,-0.9744,-0.0896,0.0067,-0.0024,0.0000,-0.0025,0.0525,-0.0679,-3.7883,-1.0732,8.9141,0.0001,-0.0000,0.0000,1.0000,-0.0947,-0.0268,0.2228
718,Right,0,0.1559,-0.1659,-0.9341,-0.2750,0.0110,0.0031,0.0031,0.0189,0.0585,-0.1029,-3.7022,2.1177,8.7232,0.0001,0.0000,0.0000,1.0000,-0.0925,0.0529,0.2181
718,Pelvis,0,0.6563,0.5032,-0.5613,-0.0318,4.7364,0.1224,-7.3880,4.0828,-2.3362,-18.4909,4.7488,8.4888,1.7926,0.0591,0.0015,-0.0922,0.9940,0.1375,0.1970,0.0566
719,Left,0,0.2031,0.0350,-0.9744,-0.0894,0.0208,-0.0158,0.0020,0.0066,0.0488,-0.0641,-3.7960,-1.0700,8.9153,0.0003,-0.0002,0.0000,1.0000,-0.0949,-0.0268,0.2229
719,Right,0,0.1559,-0.1657,-0.9342,-0.2748,0.0030,-0.0104,0.0013,0.0208,0.0681,-0.0961,-3.7013,2.1098,8.7331,0.0000,-0.0001,0.0000,1.0000,-0.0926,0.0527,0.2183
719,Pelvis,0,0.6553,0.4728,-0.5532,-0.2025,3.9300,0.4149,-9.8051,-15.8506,18.5505,7.7339,3.6661,-29.7748,2.9156,0.0490,0.0052,-0.1222,0.9913,-0.0000,-0.7505,0.0359
720,Left,0,0.2028,0.0348,-0.9745,-0.0893,0.0275,-0.0225,0.0051,0.0078,0.0141,-0.0330,-3.8116,-1.0348,8.9467,0.0003,-0.0003,0.0001,1.0000,-0.0954,-0.0260,0.2236
720,Right,0,0.1559,-0.1656,-0.9343,-0.2747,0.0006,-0.0091,0.0025,0.0377,0.0967,-0.0722,-3.7091,2.0815,8.7635,0.0000,-0.0001,0.0000,1.0000,-0.0928,0.0520,0.2191
720,Pelvis,0,0.6816,0.4507,-0.5074,-0.2736,-1.8876,-0.6619,-4.7558,-13.8905,32.2326,47.0117,-1.5097,-66.4307,-7.1722,-0.0236,-0.0083,-0.0594,0.9979,-0.1351,-1.6583,-0.1410
721,Left,0,0.2026,0.0346,-0.9746,-0.0893,0.0134,-0.0067,0.0031,-0.0525,-0.0135,0.0240,-3.7795,-0.9997,9.0266,0.0002,-0.0001,0.0000,1.0000,-0.0945,-0.0250,0.2257
721,Right,0,0.1558,-0.1657,-0.9342,-0.2747,0.0116,-0.0006,0.0067,0.0302,0.0915,-0.0613,-3.7078,2.0931,8.7733,0.0001,-0.0000,0.0001,1.0000,-0.0927,0.0523,0.2193
721,Pelvis,0,0.7405,0.3756,-0.4907,-0.2640,-3.5864,-2.1690,3.2459,-4.2031,19.8525,31.1845,-4.3919,-44.5863,-9.3833,-0.0448,-0.0271,0.0405,0.9978,-0.0587,-1.1268,-0.1863
722,Left,0,0.2028,0.0349,-0.9745,-0.0891,-0.0116,0.0244,-0.0014,-0.0510,-0.0027,0.0034,-3.7717,-1.0094,9.0064,-0.0001,0.0003,-0.0000,1.0000,-0.0942,-0.0252,0.2252
722,Right,0,0.1559,-0.1659,-0.9342,-0.2745,0.0232,0.0165,0.0079,-0.0124,0.0925,-0.0719,-3.6700,2.1170,8.7715,0.0003,0.0002,0.0001,1.0000,-0.0917,0.0529,0.2193
722,Pelvis,0,0.7938,0.2697,-0.5000,-0.2171,-4.2724,-3.0043,6.9946,-7.3765,9.7199,3.7613,-4.0884,-17.6111,2.6812,-0.0533,-0.0375,0.0873,0.9941,-0.0666,-0.4428,0.0877
723,Left,0,0.2032,0.0352,-0.9745,-0.0889,-0.0171,0.0305,-0.0063,0.0165,0.0201,-0.0409,-3.8164,-1.0430,8.9351,-0.0002,0.0004,-0.0001,1.0000,-0.0953,-0.0260,0.2234
723,Right,0,0.1560,-0.1661,-0.9343,-0.2743,0.0232,0.0147,0.0073,0.0529,0.0556,-0.0745,-3.7413,2.1128,8.7394,0.0003,0.0002,0.0001,1.0000,-0.0935,0.0527,0.2185
723,Pelvis,0,0.8070,0.2414,-0.5252,-0.1211,-4.7639,-2.6457,6.5171,-8.0044,-8.3038,-12.1324,-5.8925,6.1034,8.1689,-0.0594,-0.0330,0.0813,0.9944,-0.1661,0.1512,0.1899
724,Left,0,0.2033,0.0352,-0.9744,-0.0891,-0.0085,0.0140,-0.0050,0.0184,0.0610,-0.0492,-3.8113,-1.0855,8.9233,-0.0001,0.0002,-0.0001,1.0000,-0.0952,-0.0271,0.2231
724,Right,0,0.1561,-0.1663,-0.9342,-0.2743,0.0189,0.0110,0.0061,0.0180,0.0939,-0.1096,-3.6852,2.0982,8.7279,0.0002,0.0001,0.0001,1.0000,-0.0921,0.0524,0.2182
724,Pelvis,0,0.8086,0.2754,-0.5155,-0.0677,-4.8968,-0.4635,0.2524,-2.4275,-24.0958,-18.5154,-6.3841,23.3134,8.8756,-0.0612,-0.0058,0.0032,0.9981,-0.1626,0.5944,0.1848
725,Left,0,0.2032,0.0353,-0.9744,-0.0889,0.0037,-0.0037,0.0006,0.0157,0.0403,-0.0514,-3.8125,-1.0667,8.9226,0.0000,-0.0000,0.0000,1.0000,-0.0953,-0.0267,0.2231
725,Right,0,0.1562,-0.1664,-0.9342,-0.2742,0.0153,0.0061,0.0049,0.0294,0.0958,-0.1079,-3.6965,2.0927,8.7263,0.0002,0.0001,0.0001,1.0000,-0.0924,0.0523,0.2182
725,Pelvis,0,0.8079,0.3166,-0.4933,-0.0609,-2.1637,1.3934,-2.1514,4.1230,-27.1816,-18.4422,-6.8607,27.3138,6.1320,-0.0270,0.0174,-0.0269,0.9991,-0.1505,0.6909,0.1374
726,Left,0,0.2032,0.0352,-0.9745,-0.0890,0.0104,-0.0061,-0.0012,-0.0017,0.0407,-0.0372,-3.8017,-1.0650,8.9428,0.0001,-0.0001,-0.0000,1.0000,-0.0951,-0.0267,0.2236
726,Right,0,0.1563,-0.1665,-0.9342,-0.2742,0.0104,0.0012,0.0061,0.0237,0.0984,-0.0991,-3.6971,2.0961,8.7351,0.0001,0.0000,0.0001,1.0000,-0.0924,0.0524,0.2184
726,Pelvis,0,0.8126,0.3196,-0.4761,-0.1042,2.7776,2.8357,-1.5063,5.7464,-12.4487,-16.6019,-0.6227,15.2604,0.9761,0.0347,0.0354,-0.0188,0.9986,-0.0072,0.3805,0.0380
727,Left,0,0.2030,0.0351,-0.9745,-0.0891,0.0116,-0.0116,0.0013,0.0001,0.0502,-0.0361,-3.7997,-1.0723,8.9441,0.0001,-0.0001,0.0000,1.0000,-0.0950,-0.0268,0.2236
727,Right,0,0.1563,-0.1665,-0.9341,-0.2744,0.0055,-0.0030,0.0049,0.0390,0.1040,-0.0761,-3.7163,2.0890,8.7543,0.0001,-0.0000,0.0001,1.0000,-0.0929,0.0522,0.2189
727,Pelvis,0,0.8114,0.3082,-0.4680,-0.1662,4.7547,2.6074,-1.4622,1.4336,6.7828,-5.3646,1.8066,-6.9196,-4.1004,0.0594,0.0326,-0.0183,0.9975,0.0385,-0.1672,-0.1139
728,Left,0,0.2028,0.0349,-0.9745,-0.0893,0.0134,-0.0085,0.0007,-0.0145,0.0230,-0.0342,-3.7878,-1.0400,8.9549,0.0002,-0.0001,0.0000,1.0000,-0.0947,-0.0260,0.2239
728,Right,0,0.1562,-0.1665,-0.9341,-0.2744,0.0030,-0.0043,0.0025,0.0374,0.0878,-0.0917,-3.7152,2.0997,8.7347,0.0000,-0.0001,0.0000,1.0000,-0.0929,0.0525,0.2184
728,Pelvis,0,0.8023,0.3073,-0.4726,-0.1962,2.5586,0.4873,-1.0371,0.0634,17.9994,8.6016,0.1247,-24.0681,-9.1679,0.0320,0.0061,-0.0130,0.9994,-0.0061,-0.5939,-0.2483
729,Left,0,0.2025,0.0348,-0.9746,-0.0893,0.0085,-0.0030,-0.0006,-0.0009,0.0179,-0.0088,-3.8062,-1.0373,8.9751,0.0001,-0.0000,-0.0000,1.0000,-0.0952,-0.0260,0.2244
729,Right,0,0.1560,-0.1666,-0.9341,-0.2746,0.0073,-0.0018,0.0043,0.0386,0.1060,-0.0673,-3.7146,2.0919,8.7642,0.0001,-0.0000,0.0001,1.0000,-0.0929,0.0523,0.2191
729,Pelvis,0,0.8029,0.3285,-0.4575,-0.1954,-1.0484,0.8765,-1.4086,-3.3064,10.2852,11.8967,-7.5769,-21.7441,-7.6103,-0.0131,0.0110,-0.0176,0.9997,-0.2010,-0.5425,-0.1810
730,Left,0,0.2025,0.0348,-0.9746,-0.0894,-0.0006,0.0091,-0.0019,0.0110,0.0157,-0.0051,-3.8166,-1.0366,8.9749,-0.0000,0.0001,-0.0000,1.0000,-0.0954,-0.0259,0.2244
730,Right,0,0.1560,-0.1667,-0.9341,-0.2746,0.0110,0.0012,0.0049,0.0368,0.0898,-0.0829,-3.7141,2.1038,8.7441,0.0001,0.0000,0.0001,1.0000,-0.0929,0.0526,0.2186
730,Pelvis,0,0.8092,0.3313,-0.4477,-0.1872,-0.8447,0.8250,0.3033,-4.4639,3.2003,7.3484,-9.7473,-14.2993,-5.0213,-0.0106,0.0103,0.0038,0.9999,-0.2436,-0.3597,-0.1192
731,Left,0,0.2026,0.0351,-0.9746,-0.0891,-0.0085,0.0183,-0.0074,0.0111,0.0064,-0.0278,-3.8097,-1.0285,8.9539,-0.0001,0.0002,-0.0001,1.0000,-0.0952,-0.0257,0.2239
731,Right,0,0.1560,-0.1667,-0.9342,-0.2743,0.0122,0.0019,0.0067,0.0366,0.0877,-0.0829,-3.7141,2.1068,8.7433,0.0002,0.0000,0.0001,1.0000,-0.0929,0.0526,0.2186
731,Pelvis,0,0.8203,0.3098,-0.4461,-0.1793,0.2268,0.8775,2.1656,-5.1461,-1.9202,1.3180,-10.1365,-6.9875,-1.5885,0.0028,0.0110,0.0271,0.9996,-0.2490,-0.1814,-0.0375
732,Left,0,0.2025,0.0352,-0.9746,-0.0891,-0.0104,0.0158,-0.0111,0.0316,0.0233,-0.0308,-3.8229,-1.0511,8.9424,-0.0001,0.0002,-0.0001,1.0000,-0.0955,-0.0262,0.2236
732,Right,0,0.1558,-0.1667,-0.9343,-0.2739,0.0091,-0.0006,0.0074,0.0250,0.1102,-0.0747,-3.6945,2.1003,8.7625,0.0001,-0.0000,0.0001,1.0000,-0.0924,0.0525,0.2191
732,Pelvis,0,0.8422,0.2698,-0.4360,-0.1668,0.2998,2.0411,3.7568,-4.3144,-4.8898,-3.9064,-8.7546,-0.8887,0.2224,0.0037,0.0255,0.0469,0.9986,-0.2173,-0.0325,0.0110
733,Left,0,0.2026,0.0353,-0.9746,-0.0892,-0.0006,0.0085,-0.0086,0.0243,0.0525,-0.0223,-3.8156,-1.0825,8.9512,-0.0000,0.0001,-0.0001,1.0000,-0.0954,-0.0270,0.2238
733,Right,0,0.1558,-0.1668,-0.9343,-0.2737,0.0091,-0.0036,0.0117,0.0469,0.1228,-0.0537,-3.7133,2.0841,8.7819,0.0001,-0.0000,0.0001,1.0000,-0.0929,0.0521,0.2196
733,Pelvis,0,0.8670,0.2382,-0.4058,-0.1641,0.2729,3.6401,2.7034,-3.3570,-5.6521,-7.9459,-6.1724,2.6629,1.2466,0.0034,0.0455,0.0338,0.9984,-0.1548,0.0612,0.0384
734,Left,0,0.2025,0.0353,-0.9746,-0.0892,0.0049,-0.0043,-0.0055,0.0333,0.0620,-0.0391,-3.8157,-1.0926,8.9316,0.0001,-0.0001,-0.0001,1.0000,-0.0954,-0.0273,0.2233
734,Right,0,0.1557,-0.1668,-0.9344,-0.2737,0.0097,-0.0054,0.0129,0.0430,0.1064,-0.0693,-3.7115,2.0967,8.7622,0.0001,-0.0001,0.0002,1.0000,-0.0928,0.0524,0.2191
734,Pelvis,0,0.8880,0.2055,-0.3745,-0.1703,0.9948,3.8051,2.4679,-0.9283,-4.3191,-8.9725,-3.3332,3.0047,-0.3216,0.0124,0.0475,0.0308,0.9983,-0.0858,0.0726,-0.0031
735,Left,0,0.2022,0.0353,-0.9746,-0.0892,0.0110,-0.0098,-0.0042,0.0285,0.0437,-0.0540,-3.8043,-1.0718,8.9226,0.0001,-0.0001,-0.0001,1.0000,-0.0951,-0.0268,0.2231
735,Right,0,0.1555,-0.1668,-0.9345,-0.2735,0.0085,-0.0097,0.0129,0.0247,0.1111,-0.0980,-3.6798,2.0994,8.7430,0.0001,-0.0001,0.0002,1.0000,-0.0920,0.0524,0.2186
735,Pelvis,0,0.8895,0.2035,-0.3561,-0.2013,2.2989,2.3119,-0.5975,2.6846,-3.2192,-12.1897,1.4698,4.4924,-0.9387,0.0287,0.0289,-0.0075,0.9991,0.0369,0.1127,-0.0213
736,Left,0,0.2021,0.0353,-0.9747,-0.0891,0.0134,-0.0098,-0.0017,-0.0103,0.0464,-0.0383,-3.7729,-1.0690,8.9534,0.0002,-0.0001,-0.0000,1.0000,-0.0944,-0.0268,0.2238
736,Right,0,0.1555,-0.1668,-0.9345,-0.2733,0.0085,-0.0073,0.0068,0.0240,0.1248,-0.0824,-3.6776,2.0927,8.7631,0.0001,-0.0001,0.0001,1.0000,-0.0920,0.0523,0.2191
736,Pelvis,0,0.8828,0.2144,-0.3413,-0.2411,2.6862,1.7232,-1.9093,1.6941,-0.5989,-10.0298,0.9235,0.9797,-1.2097,0.0336,0.0215,-0.0239,0.9989,0.0230,0.0250,-0.0299
737,Left,0,0.2019,0.0352,-0.9747,-0.0891,0.0110,-0.0067,-0.0018,-0.0073,0.0395,-0.0701,-3.7611,-1.0570,8.9251,0.0001,-0.0001,-0.0000,1.0000,-0.0940,-0.0265,0.2231
737,Right,0,0.1554,-0.1668,-0.9345,-0.2733,0.0097,-0.0018,0.0043,0.0103,0.1204,-0.0840,-3.6665,2.1049,8.7629,0.0001,-0.0000,0.0001,1.0000,-0.0917,0.0526,0.2191
737,Pelvis,0,0.8706,0.2250,-0.3379,-0.2781,2.7339,0.7097,-1.7529,2.1884,2.5472,-8.7561,2.3953,-2.1271,-1.4615,0.0342,0.0089,-0.0219,0.9991,0.0584,-0.0532,-0.0389
738,Left,0,0.2020,0.0351,-0.9747,-0.0891,0.0104,0.0013,0.0031,-0.0126,0.0381,-0.0611,-3.7605,-1.0544,8.9354,0.0001,0.0000,0.0000,1.0000,-0.0940,-0.0264,0.2234
738,Right,0,0.1555,-0.1669,-0.9345,-0.2733,0.0104,0.0036,0.0012,0.0194,0.1073,-0.0979,-3.6762,2.1071,8.7427,0.0001,0.0000,0.0000,1.0000,-0.0919,0.0526,0.2186
738,Pelvis,0,0.8625,0.2201,-0.3280,-0.3164,2.9706,1.6005,-0.8484,1.3199,4.9227,-6.6105,2.3575,-5.4344,-1.0777,0.0371,0.0200,-0.0106,0.9991,0.0569,-0.1353,-0.0331
739,Left,2,0.2022,0.0350,-0.9746,-0.0891,0.0098,0.0049,0.0012,0.0003,0.0403,-0.0219,-3.7907,-1.0615,8.9646,0.0001,0.0001,0.0000,1.0000,-0.0948,-0.0266,0.2241
739,Right,2,0.1558,-0.1669,-0.9344,-0.2734,0.0092,0.0055,0.0024,0.0317,0.1038,-0.0604,-3.7065,2.1101,8.7709,0.0001,0.0001,0.0000,1.0000,-0.0926,0.0527,0.2193
739,Pelvis,2,0.8476,0.2188,-0.3169,-0.3650,3.6952,1.5587,-1.5608,1.9787,7.2525,-4.5900,3.6099,-8.3397,-1.1355,0.0462,0.0195,-0.0195,0.9986,0.0855,-0.2085,-0.0397
740,Left,2,0.2023,0.0349,-0.9746,-0.0893,0.0098,0.0043,-0.0006,0.0065,0.0287,-0.0193,-3.8016,-1.0495,8.9643,0.0001,0.0001,-0.0000,1.0000,-0.0950,-0.0263,0.2241
740,Right,2,0.1558,-0.1670,-0.9343,-0.2736,0.0110,0.0036,0.0012,0.0290,0.1291,-0.1040,-3.6782,2.0825,8.7414,0.0001,0.0000,0.0000,1.0000,-0.0919,0.0520,0.2185
740,Pelvis,2,0.8170,0.2198,-0.3220,-0.4248,5.0741,0.1300,-1.8567,1.7252,8.3243,-3.2352,4.0058,-9.9816,-0.1056,0.0634,0.0016,-0.0232,0.9977,0.0943,-0.2509,-0.0187
741,Left,2,0.2024,0.0348,-0.9746,-0.0893,0.0110,0.0025,0.0019,0.0139,0.0383,-0.0361,-3.8022,-1.0571,8.9448,0.0001,0.0000,0.0000,1.0000,-0.0950,-0.0265,0.2236
741,Right,2,0.1559,-0.1671,-0.9342,-0.2738,0.0079,0.0024,-0.0006,0.0187,0.1343,-0.0542,-3.6888,2.0953,8.7892,0.0001,0.0000,-0.0000,1.0000,-0.0922,0.0524,0.2197
741,Pelvis,2,0.7749,0.2246,-0.3328,-0.4882,5.6610,-0.6394,-2.2485,2.5078,8.9322,-0.1113,4.4785,-12.6644,-0.2012,0.0707,-0.0080,-0.0281,0.9971,0.1032,-0.3182,-0.0267
742,Left,2,0.2022,0.0347,-0.9746,-0.0893,0.0122,0.0019,0.0019,0.0020,0.0195,-0.0331,-3.7931,-1.0347,8.9545,0.0002,0.0000,0.0000,1.0000,-0.0948,-0.0259,0.2239
742,Right,2,0.1558,-0.1671,-0.9342,-0.2739,0.0085,-0.0043,0.0007,0.0544,0.1248,-0.0860,-3.7080,2.0770,8.7500,0.0001,-0.0001,0.0000,1.0000,-0.0927,0.0519,0.2188
742,Pelvis,2,0.7256,0.2323,-0.3422,-0.5500,5.7049,-0.9562,-2.5940,2.6442,8.5390,2.4266,4.4024,-14.5069,0.5320,0.0712,-0.0119,-0.0324,0.9969,0.0983,-0.3658,-0.0115
743,Left,2,0.2020,0.0345,-0.9747,-0.0894,0.0098,0.0024,-0.0006,0.0193,0.0366,-0.0271,-3.8033,-1.0517,8.9548,0.0001,0.0000,-0.0000,1.0000,-0.0951,-0.0263,0.2239
743,Right,2,0.1555,-0.1672,-0.9342,-0.2741,0.0067,-0.0031,0.0000,0.0297,0.0849,-0.0759,-3.7069,2.1275,8.7490,0.0001,-0.0000,0.0000,1.0000,-0.0927,0.0532,0.2187
743,Pelvis,2,0.6714,0.2435,-0.3456,-0.6087,5.5070,-1.0139,-3.0671,1.0051,7.2428,3.2520,3.2864,-14.3613,2.7485,0.0688,-0.0127,-0.0383,0.9968,0.0676,-0.3654,0.0446
744,Left,2,0.2020,0.0345,-0.9747,-0.0892,0.0092,0.0043,0.0000,-0.0040,0.0162,-0.0062,-3.7945,-1.0297,8.9838,0.0001,0.0001,0.0000,1.0000,-0.0949,-0.0258,0.2246
744,Right,2,0.1556,-0.1671,-0.9342,-0.2740,0.0079,-0.0055,-0.0011,0.0319,0.1272,-0.0826,-3.6867,2.0901,8.7597,0.0001,-0.0001,-0.0000,1.0000,-0.0922,0.0522,0.2190
744,Pelvis,2,0.6110,0.2499,-0.3481,-0.6656,5.8048,-0.9493,-2.9248,-0.3355,8.2986,3.9318,4.3108,-14.1085,6.3888,0.0725,-0.0119,-0.0365,0.9966,0.0928,-0.3667,0.1346
745,Left,2,0.2021,0.0344,-0.9747,-0.0895,0.0061,0.0055,-0.0018,0.0194,0.0449,-0.0260,-3.8051,-1.0578,8.9545,0.0001,0.0001,-0.0000,1.0000,-0.0951,-0.0265,0.2239
745,Right,2,0.1557,-0.1672,-0.9342,-0.2741,0.0085,-0.0018,0.0031,0.0206,0.1224,-0.0717,-3.6859,2.1019,8.7692,0.0001,-0.0000,0.0000,1.0000,-0.0922,0.0525,0.2192
745,Pelvis,2,0.5479,0.2625,-0.3362,-0.7196,5.3342,-0.6885,-3.9634,1.7134,7.1505,7.9355,5.8907,-17.0395,6.6980,0.0666,-0.0086,-0.0495,0.9965,0.1243,-0.4425,0.1394
746,Left,2,0.2023,0.0344,-0.9746,-0.0894,0.0037,0.0049,-0.0000,-0.0109,0.0399,-0.0383,-3.7769,-1.0469,8.9543,0.0000,0.0001,-0.0000,1.0000,-0.0944,-0.0262,0.2239
746,Right,2,0.1558,-0.1672,-0.9342,-0.2741,0.0091,-0.0006,0.0043,0.0215,0.1140,-0.0893,-3.6853,2.1038,8.7493,0.0001,-0.0000,0.0001,1.0000,-0.0921,0.0526,0.2187
746,Pelvis,2,0.4846,0.2940,-0.2983,-0.7679,4.0316,-0.7895,-6.1379,5.4520,2.8969,12.2573,7.6498,-21.1536,4.5477,0.0503,-0.0099,-0.0766,0.9957,0.1488,-0.5462,0.0880
747,Left,2,0.2025,0.0345,-0.9746,-0.0893,0.0018,0.0079,-0.0019,-0.0268,0.0304,-0.0342,-3.7687,-1.0365,8.9634,0.0000,0.0001,-0.0000,1.0000,-0.0942,-0.0259,0.2241
747,Right,2,0.1558,-0.1672,-0.9341,-0.2741,0.0073,-0.0006,0.0049,0.0200,0.1129,-0.0893,-3.6849,2.1060,8.7489,0.0001,-0.0000,0.0001,1.0000,-0.0921,0.0526,0.2187
747,Pelvis,2,0.4419,0.3179,-0.2610,-0.7972,2.2359,-0.3641,-4.8182,5.6882,-1.2689,11.3198,7.4953,-20.3663,3.2076,0.0279,-0.0045,-0.0602,0.9978,0.1559,-0.5212,0.0665
748,Left,2,0.2024,0.0346,-0.9746,-0.0890,0.0024,0.0073,-0.0013,0.0010,0.0540,-0.0323,-3.7897,-1.0656,8.9532,0.0000,0.0001,-0.0000,1.0000,-0.0947,-0.0266,0.2238
748,Right,2,0.1557,-0.1672,-0.9342,-0.2740,0.0061,-0.0018,0.0025,0.0101,0.1194,-0.0842,-3.6748,2.1080,8.7585,0.0001,-0.0000,0.0000,1.0000,-0.0919,0.0527,0.2190
748,Pelvis,2,0.4204,0.3347,-0.2283,-0.8119,0.6786,-0.0764,-3.3906,2.4945,-3.5233,8.4021,5.0355,-17.6193,3.8512,0.0085,-0.0010,-0.0424,0.9991,0.1070,-0.4461,0.0926
749,Left,2,0.2026,0.0346,-0.9746,-0.0891,0.0067,0.0043,-0.0006,-0.0061,0.0437,-0.0245,-3.7911,-1.0548,8.9624,0.0001,0.0001,-0.0000,1.0000,-0.0948,-0.0264,0.2241
749,Right,2,0.1559,-0.1671,-0.9342,-0.2739,0.0055,-0.0031,0.0007,0.0302,0.1371,-0.0865,-3.6841,2.0802,8.7589,0.0001,-0.0000,0.0000,1.0000,-0.0921,0.0520,0.2190
749,Pelvis,2,0.4232,0.3674,-0.1683,-0.8109,-2.4219,-0.1874,-4.7697,2.3372,-3.0255,5.2863,5.8109,-14.2224,2.6237,-0.0303,-0.0023,-0.0596,0.9978,0.1237,-0.3612,0.0768
750,Left,2,0.2027,0.0345,-0.9746,-0.0891,0.0061,0.0031,0.0006,-0.0021,0.0408,-0.0118,-3.8018,-1.0533,8.9720,0.0001,0.0000,0.0000,1.0000,-0.0950,-0.0263,0.2243
750,Right,2,0.1559,-0.1671,-0.9342,-0.2739,0.0085,-0.0006,0.0031,0.0360,0.1227,-0.0682,-3.7031,2.0920,8.7682,0.0001,-0.0000,0.0000,1.0000,-0.0926,0.0523,0.2192
750,Pelvis,2,0.4097,0.3934,-0.0991,-0.8171,-1.2641,0.5475,-5.7217,-0.3426,-4.0995,5.8205,5.5501,-14.7739,3.5574,-0.0158,0.0068,-0.0715,0.9973,0.1126,-0.3766,0.0940
751,Left,2,0.2026,0.0346,-0.9746,-0.0890,0.0024,0.0073,-0.0019,0.0005,0.0208,-0.0230,-3.8029,-1.0330,8.9616,0.0000,0.0001,-0.0000,1.0000,-0.0951,-0.0258,0.2240
751,Right,2,0.1559,-0.1671,-0.9342,-0.2738,0.0091,0.0019,0.0049,0.0409,0.1290,-0.0702,-3.7031,2.0845,8.7679,0.0001,0.0000,0.0001,1.0000,-0.0926,0.0521,0.2192
751,Pelvis,2,0.3933,0.4070,-0.0131,-0.8243,-1.4650,1.9305,-6.5364,3.0639,-5.9857,5.8362,9.2071,-14.3497,-0.2688,-0.0183,0.0241,-0.0816,0.9962,0.1998,-0.3760,-0.0050
752,Left,2,0.2027,0.0346,-0.9746,-0.0890,0.0018,0.0091,-0.0037,-0.0010,0.0417,-0.0334,-3.7948,-1.0524,8.9514,0.0000,0.0001,-0.0000,1.0000,-0.0948,-0.0263,0.2238
752,Right,2,0.1560,-0.1672,-0.9342,-0.2737,0.0128,0.0018,0.0037,0.0189,0.1528,-0.0745,-3.6741,2.0776,8.7773,0.0002,0.0000,0.0000,1.0000,-0.0919,0.0519,0.2194
752,Pelvis,2,0.3765,0.4204,0.0459,-0.8243,-0.7408,0.8457,-4.7322,0.6912,-8.0863,5.5657,8.8160,-14.9989,-0.1680,-0.0093,0.0106,-0.0591,0.9982,0.1977,-0.3871,-0.0028
753,Left,2,0.2027,0.0345,-0.9746,-0.0892,0.0025,0.0049,-0.0043,0.0132,0.0400,-0.0387,-3.8059,-1.0524,8.9410,0.0000,0.0001,-0.0001,1.0000,-0.0951,-0.0263,0.2235
753,Right,2,0.1560,-0.1673,-0.9343,-0.2736,0.0140,0.0012,0.0031,0.0237,0.1317,-0.0864,-3.6839,2.0902,8.7566,0.0002,0.0000,0.0000,1.0000,-0.0921,0.0522,0.2189
753,Pelvis,2,0.3638,0.4353,0.0894,-0.8186,-0.6171,0.0907,-3.6587,0.3047,-7.6182,3.5201,8.6885,-12.6621,-0.4916,-0.0077,0.0011,-0.0457,0.9989,0.2024,-0.3261,-0.0100
754,Left,2,0.2028,0.0345,-0.9745,-0.0894,0.0018,0.0055,-0.0055,0.0183,0.0379,-0.0260,-3.8168,-1.0523,8.9502,0.0000,0.0001,-0.0001,1.0000,-0.0954,-0.0263,0.2238
754,Right,2,0.1561,-0.1674,-0.9342,-0.2737,0.0153,0.0024,0.0043,0.0175,0.1384,-0.0688,-3.6842,2.0942,8.7752,0.0002,0.0000,0.0001,1.0000,-0.0921,0.0523,0.2194
754,Pelvis,2,0.3561,0.4515,0.1443,-0.8053,-1.5396,0.0566,-4.3335,0.5368,-6.2172,2.3266,9.2927,-9.9985,-0.4200,-0.0192,0.0007,-0.0541,0.9983,0.2183,-0.2622,-0.0057
755,Left,2,0.2029,0.0346,-0.9745,-0.0891,0.0031,0.0061,-0.0031,-0.0044,0.0514,-0.0450,-3.7886,-1.0620,8.9403,0.0000,0.0001,-0.0000,1.0000,-0.0947,-0.0266,0.2235
755,Right,2,0.1562,-0.1675,-0.9342,-0.2735,0.0159,0.0043,0.0043,0.0343,0.1288,-0.0934,-3.6944,2.0877,8.7450,0.0002,0.0001,0.0001,1.0000,-0.0924,0.0521,0.2186
755,Pelvis,2,0.3334,0.4654,0.2321,-0.7864,-1.9331,1.1312,-7.0121,-0.2945,-3.6626,1.9570,9.9462,-7.1503,1.5251,-0.0241,0.0141,-0.0875,0.9958,0.2324,-0.1987,0.0394
756,Left,2,0.2030,0.0347,-0.9745,-0.0890,0.0006,0.0091,-0.0013,-0.0170,0.0514,-0.0398,-3.7805,-1.0616,8.9495,0.0000,0.0001,-0.0000,1.0000,-0.0945,-0.0265,0.2237
756,Right,2,0.1563,-0.1676,-0.9342,-0.2733,0.0177,0.0079,0.0036,0.0075,0.1357,-0.0812,-3.6760,2.1018,8.7630,0.0002,0.0001,0.0000,1.0000,-0.0919,0.0525,0.2191
756,Pelvis,2,0.3108,0.4800,0.2977,-0.7645,-1.1708,0.4130,-5.6843,-1.9929,-4.0678,2.4411,10.7161,-7.1351,2.2779,-0.0146,0.0052,-0.0710,0.9974,0.2547,-0.1960,0.0584
757,Left,2,0.2030,0.0348,-0.9745,-0.0888,-0.0006,0.0091,-0.0025,0.0086,0.0251,-0.0308,-3.8119,-1.0424,8.9481,-0.0000,0.0001,-0.0000,1.0000,-0.0953,-0.0261,0.2237
757,Right,2,0.1563,-0.1678,-0.9342,-0.2733,0.0183,0.0085,0.0042,0.0210,0.1377,-0.0795,-3.6874,2.0964,8.7614,0.0002,0.0001,0.0001,1.0000,-0.0922,0.0524,0.2191
757,Pelvis,2,0.2757,0.4788,0.3613,-0.7511,-0.5167,1.9882,-5.4594,-3.7120,-4.0274,-0.0612,8.6780,-6.6166,2.4847,-0.0065,0.0248,-0.0682,0.9973,0.2065,-0.1794,0.0580
758,Left,2,0.2029,0.0348,-0.9745,-0.0889,0.0037,0.0067,-0.0019,0.0105,0.0436,-0.0196,-3.8136,-1.0616,8.9574,0.0000,0.0001,-0.0000,1.0000,-0.0953,-0.0265,0.2239
758,Right,2,0.1564,-0.1679,-0.9342,-0.2732,0.0159,0.0091,0.0030,0.0218,0.1412,-0.1028,-3.6794,2.0902,8.7405,0.0002,0.0001,0.0000,1.0000,-0.0920,0.0522,0.2185
758,Pelvis,2,0.2469,0.4688,0.4171,-0.7385,-0.8653,2.2089,-4.5550,-4.2389,-3.0651,-3.2596,5.9419,-5.3635,2.5077,-0.0108,0.0276,-0.0569,0.9979,0.1423,-0.1417,0.0602
759,Left,2,0.2028,0.0348,-0.9746,-0.0888,0.0079,0.0031,-0.0012,0.0119,0.0329,-0.0207,-3.8147,-1.0507,8.9570,0.0001,0.0000,-0.0000,1.0000,-0.0954,-0.0263,0.2239
759,Right,2,0.1564,-0.1679,-0.9343,-0.2729,0.0153,0.0030,0.0037,0.0258,0.1423,-0.0814,-3.6904,2.0944,8.7586,0.0002,0.0000,0.0000,1.0000,-0.0923,0.0523,0.2190
759,Pelvis,2,0.2361,0.4653,0.4498,-0.7249,-0.9145,0.7298,-2.6975,-4.2733,-1.2233,-4.5916,4.3638,-4.0298,3.4267,-0.0114,0.0091,-0.0337,0.9993,0.1064,-0.1034,0.0859
760,Left,2,0.2027,0.0347,-0.9746,-0.0889,0.0079,0.0018,-0.0012,0.0260,0.0337,-0.0476,-3.8149,-1.0495,8.9277,0.0001,0.0000,-0.0000,1.0000,-0.0954,-0.0263,0.2232
760,Right,2,0.1563,-0.1681,-0.9342,-0.2730,0.0134,0.0025,0.0055,0.0259,0.1325,-0.0669,-3.7005,2.1080,8.7670,0.0002,0.0000,0.0001,1.0000,-0.0925,0.0527,0.2192
760,Pelvis,2,0.2330,0.4687,0.4688,-0.7115,-0.6277,-0.1993,-1.7654,-3.0037,0.3876,-3.1101,5.3465,-1.8436,4.7028,-0.0078,-0.0025,-0.0221,0.9997,0.1323,-0.0481,0.1183
761,Left,2,0.2025,0.0346,-0.9746,-0.0889,0.0086,-0.0031,-0.0024,0.0101,0.0243,-0.0345,-3.8052,-1.0377,8.9474,0.0001,-0.0000,-0.0000,1.0000,-0.0951,-0.0260,0.2237
761,Right,2,0.1564,-0.1681,-0.9343,-0.2726,0.0146,0.0031,0.0073,0.0250,0.1395,-0.0814,-3.6910,2.1016,8.7566,0.0002,0.0000,0.0001,1.0000,-0.0923,0.0525,0.2189
761,Pelvis,2,0.2294,0.4746,0.4895,-0.6946,-0.6651,-0.4243,-2.0701,-2.2894,-0.4014,-1.7778,7.0758,-1.1992,4.2972,-0.0083,-0.0053,-0.0259,0.9996,0.1755,-0.0336,0.1086
762,Left,2,0.2026,0.0345,-0.9746,-0.0890,0.0061,-0.0037,-0.0018,0.0205,0.0512,-0.0274,-3.8141,-1.0656,8.9483,0.0001,-0.0000,-0.0000,1.0000,-0.0954,-0.0267,0.2237
762,Right,2,0.1565,-0.1682,-0.9343,-0.2727,0.0146,0.0037,0.0067,0.0016,0.1361,-0.0956,-3.6717,2.1149,8.7456,0.0002,0.0000,0.0001,1.0000,-0.0918,0.0528,0.2187
762,Pelvis,2,0.2270,0.4799,0.5052,-0.6804,-0.5273,-0.4324,-1.6502,-2.3717,-0.5687,-1.1332,7.8149,-0.9730,4.3896,-0.0066,-0.0054,-0.0206,0.9998,0.1942,-0.0276,0.1110
763,Left,2,0.2025,0.0345,-0.9746,-0.0890,0.0086,-0.0049,-0.0011,0.0055,0.0325,-0.0245,-3.8035,-1.0444,8.9584,0.0001,-0.0001,-0.0000,1.0000,-0.0951,-0.0261,0.2240
763,Right,2,0.1565,-0.1683,-0.9342,-0.2727,0.0122,0.0043,0.0061,0.0195,0.1373,-0.0813,-3.6919,2.1090,8.7544,0.0002,0.0001,0.0001,1.0000,-0.0923,0.0527,0.2189
763,Pelvis,2,0.2291,0.4857,0.5074,-0.6739,-0.1084,-0.6005,-0.4473,-1.1958,-2.0092,-0.7016,8.9717,-0.2167,2.8184,-0.0014,-0.0075,-0.0056,1.0000,0.2237,-0.0066,0.0721
764,Left,2,0.2022,0.0344,-0.9747,-0.0891,0.0086,-0.0049,-0.0018,0.0032,0.0528,-0.0259,-3.7925,-1.0621,8.9595,0.0001,-0.0001,-0.0000,1.0000,-0.0948,-0.0266,0.2240
764,Right,2,0.1565,-0.1684,-0.9342,-0.2727,0.0116,0.0037,0.0049,0.0124,0.1405,-0.0850,-3.6828,2.1121,8.7535,0.0001,0.0000,0.0001,1.0000,-0.0921,0.0528,0.2188
764,Pelvis,2,0.2381,0.5026,0.4949,-0.6676,0.5437,-1.7420,0.4199,-0.0992,-2.8130,-0.2824,9.7931,0.5471,1.6007,0.0068,-0.0218,0.0052,0.9997,0.2438,0.0147,0.0454
765,Left,2,0.2022,0.0344,-0.9747,-0.0891,0.0092,-0.0043,-0.0024,0.0194,0.0513,-0.0401,-3.8010,-1.0607,8.9405,0.0001,-0.0001,-0.0000,1.0000,-0.0950,-0.0265,0.2235
765,Right,2,0.1566,-0.1685,-0.9342,-0.2726,0.0110,0.0025,0.0043,0.0248,0.1576,-0.0676,-3.6933,2.0960,8.7726,0.0001,0.0000,0.0001,1.0000,-0.0923,0.0524,0.2193
765,Pelvis,2,0.2605,0.5211,0.4748,-0.6597,0.1766,-2.5555,1.2749,-1.5755,-2.9189,2.0537,12.0622,-0.6415,2.4426,0.0022,-0.0319,0.0159,0.9994,0.2996,-0.0114,0.0706
766,Left,2,0.2020,0.0343,-0.9747,-0.0891,0.0092,-0.0024,-0.0012,0.0084,0.0391,-0.0144,-3.8005,-1.0486,8.9703,0.0001,-0.0000,-0.0000,1.0000,-0.0950,-0.0262,0.2243
766,Right,2,0.1566,-0.1685,-0.9343,-0.2725,0.0104,0.0024,0.0024,0.0215,0.1358,-0.0599,-3.7032,2.1183,8.7712,0.0001,0.0000,0.0000,1.0000,-0.0926,0.0529,0.2193
766,Pelvis,2,0.2915,0.5355,0.4658,-0.6413,-1.1138,-2.8684,0.7294,-0.8825,0.2587,-3.8367,5.5811,0.1281,2.3263,-0.0139,-0.0358,0.0091,0.9992,0.1373,0.0053,0.0630
767,Left,2,0.2021,0.0343,-0.9747,-0.0891,0.0067,-0.0006,-0.0036,0.0044,0.0471,-0.0043,-3.8001,-1.0566,8.9805,0.0001,-0.0000,-0.0000,1.0000,-0.0950,-0.0264,0.2245
767,Right,2,0.1566,-0.1686,-0.9342,-0.2727,0.0128,0.0043,0.0061,0.0225,0.1635,-0.0821,-3.6844,2.0915,8.7614,0.0002,0.0001,0.0001,1.0000,-0.0921,0.0522,0.2190
767,Pelvis,2,0.2975,0.5430,0.4645,-0.6331,-0.1858,-0.9712,-0.1930,0.3396,0.5085,-2.0518,7.3172,1.4863,2.2037,-0.0023,-0.0121,-0.0024,0.9999,0.1823,0.0368,0.0572
768,Left,2,0.2020,0.0343,-0.9747,-0.0890,0.0086,-0.0024,-0.0018,0.0251,0.0358,-0.0286,-3.8093,-1.0459,8.9513,0.0001,-0.0000,-0.0000,1.0000,-0.0952,-0.0262,0.2238
768,Right,2,0.1565,-0.1687,-0.9342,-0.2727,0.0122,0.0000,0.0055,0.0226,0.1621,-0.0821,-3.6845,2.0948,8.7606,0.0002,0.0000,0.0001,1.0000,-0.0921,0.0523,0.2190
769,Left,2,0.2020,0.0343,-0.9748,-0.0888,0.0098,-0.0037,-0.0018,0.0043,0.0284,-0.0371,-3.7891,-1.0342,8.9519,0.0001,-0.0000,-0.0000,1.0000,-0.0947,-0.0259,0.2238
769,Right,2,0.1566,-0.1687,-0.9342,-0.2724,0.0128,0.0006,0.0067,0.0176,0.1640,-0.0732,-3.6844,2.0983,8.7696,0.0002,0.0000,0.0001,1.0000,-0.0921,0.0524,0.2193
769,Pelvis,2,0.3208,0.5462,0.4631,-0.6199,-0.6678,-0.8073,0.2381,0.7600,1.1247,0.1744,9.3910,2.2958,2.8524,-0.0167,-0.0202,0.0060,0.9996,0.4659,0.1200,0.1501
770,Left,2,0.2019,0.0343,-0.9748,-0.0888,0.0055,-0.0012,-0.0024,0.0076,0.0468,-0.0349,-3.7884,-1.0522,8.9526,0.0001,-0.0000,-0.0000,1.0000,-0.0947,-0.0263,0.2238
770,Right,2,0.1567,-0.1688,-0.9343,-0.2721,0.0159,0.0031,0.0079,0.0176,0.1586,-0.0820,-3.6843,2.1019,8.7590,0.0002,0.0000,0.0001,1.0000,-0.0921,0.0525,0.2190
770,Pelvis,2,0.3389,0.5448,0.4658,-0.6094,-1.3463,-0.9468,0.2554,-0.0504,1.1309,-0.0585,9.2959,1.3320,2.8708,-0.0168,-0.0118,0.0032,0.9998,0.2314,0.0353,0.0739
771,Left,2,0.2019,0.0343,-0.9748,-0.0888,0.0067,-0.0006,-0.0012,-0.0013,0.0479,-0.0386,-3.7784,-1.0510,8.9529,0.0001,-0.0000,-0.0000,1.0000,-0.0945,-0.0263,0.2238
771,Right,2,0.1567,-0.1689,-0.9342,-0.2722,0.0134,0.0043,0.0067,0.0105,0.1496,-0.0800,-3.6847,2.1155,8.7576,0.0002,0.0001,0.0001,1.0000,-0.0921,0.0528,0.2190
771,Pelvis,2,0.3601,0.5375,0.4710,-0.5996,-1.8185,-0.7029,0.4801,-0.2539,-0.5565,1.0819,10.8084,0.5003,1.4144,-0.0227,-0.0088,0.0060,0.9997,0.2698,0.0150,0.0374
772,Left,2,0.2018,0.0343,-0.9748,-0.0886,0.0086,-0.0006,-0.0030,-0.0006,0.0339,-0.0181,-3.7881,-1.0394,8.9725,0.0001,-0.0000,-0.0000,1.0000,-0.0947,-0.0260,0.2243
772,Right,2,0.1567,-0.1689,-0.9343,-0.2720,0.0104,0.0019,0.0049,0.0135,0.1592,-0.0731,-3.6852,2.1092,8.7667,0.0001,0.0000,0.0001,1.0000,-0.0921,0.0527,0.2192
772,Pelvis,2,0.3755,0.5229,0.4833,-0.5933,-2.0068,0.2213,0.2333,-0.0982,-0.3756,0.3409,10.0571,0.4831,1.3671,-0.0251,0.0028,0.0029,0.9997,0.2515,0.0137,0.0332
773,Left,2,0.2018,0.0343,-0.9748,-0.0886,0.0073,0.0018,-0.0030,0.0176,0.0417,-0.0311,-3.7978,-1.0480,8.9532,0.0001,0.0000,-0.0000,1.0000,-0.0949,-0.0262,0.2238
773,Right,2,0.1568,-0.1690,-0.9343,-0.2719,0.0110,0.0018,0.0037,0.0325,0.1564,-0.0676,-3.7050,2.1023,8.7661,0.0001,0.0000,0.0000,1.0000,-0.0926,0.0525,0.2192
773,Pelvis,2,0.3875,0.5110,0.4958,-0.5855,-1.7854,0.1716,-0.0543,-0.5587,-0.0763,-0.0883,9.5820,-0.0136,1.7516,-0.0223,0.0021,-0.0007,0.9997,0.2396,0.0005,0.0433
774,Right,2,0.1569,-0.1690,-0.9343,-0.2718,0.0153,0.0037,0.0049,0.0282,0.1670,-0.0733,-3.6957,2.0958,8.7655,0.0002,0.0000,0.0001,1.0000,-0.0924,0.0523,0.2192
775,Left,2,0.2018,0.0343,-0.9748,-0.0884,0.0067,0.0003,-0.0018,0.0135,0.0396,-0.0222,-3.7980,-1.0459,8.9631,0.0002,0.0000,-0.0000,1.0000,-0.1899,-0.0524,0.4481
775,Right,2,0.1569,-0.1691,-0.9342,-0.2720,0.0110,0.0012,0.0043,0.0330,0.1549,-0.0997,-3.6958,2.0982,8.7353,0.0001,0.0000,0.0001,1.0000,-0.0924,0.0524,0.2184
775,Pelvis,2,0.3981,0.4926,0.5305,-0.5634,-1.6689,0.3189,-0.7577,-1.2872,-0.8674,-0.3547,9.4807,-0.8087,1.1539,-0.0417,0.0080,-0.0189,0.9989,0.4736,-0.0471,0.0558
776,Left,2,0.2015,0.0344,-0.9749,-0.0881,0.0061,-0.0012,-0.0018,0.0199,0.0276,-0.0322,-3.7978,-1.0343,8.9535,0.0001,-0.0000,-0.0000,1.0000,-0.0950,-0.0259,0.2238
776,Right,2,0.1568,-0.1691,-0.9343,-0.2717,0.0110,0.0000,0.0055,0.0291,0.1514,-0.0676,-3.7055,2.1118,8.7636,0.0001,0.0000,0.0001,1.0000,-0.0926,0.0528,0.2191
776,Pelvis,2,0.3854,0.4882,0.5669,-0.5401,-1.8096,1.0232,-3.0397,-1.6083,-0.9852,4.0226,13.7991,-0.2224,2.1430,-0.0226,0.0128,-0.0380,0.9989,0.3451,-0.0175,0.0495
777,Left,2,0.2017,0.0344,-0.9749,-0.0882,0.0055,0.0006,-0.0024,-0.0023,0.0368,-0.0079,-3.7881,-1.0424,8.9832,0.0001,0.0000,-0.0000,1.0000,-0.0947,-0.0261,0.2246
777,Right,2,0.1569,-0.1692,-0.9343,-0.2719,0.0110,-0.0012,0.0062,0.0116,0.1469,-0.0693,-3.6952,2.1244,8.7629,0.0001,-0.0000,0.0001,1.0000,-0.0924,0.0531,0.2191
777,Pelvis,2,0.3698,0.5069,0.5817,-0.5176,0.2323,-0.5075,-2.8704,-0.4316,0.9035,-3.2734,6.1395,0.7498,2.3511,0.0029,-0.0063,-0.0359,0.9993,0.1536,0.0131,0.0598
778,Left,2,0.2017,0.0343,-0.9748,-0.0885,0.0031,0.0018,-0.0031,0.0110,0.0479,-0.0337,-3.7881,-1.0520,8.9541,0.0000,0.0000,-0.0000,1.0000,-0.0947,-0.0263,0.2239
778,Right,2,0.1569,-0.1693,-0.9342,-0.2720,0.0128,0.0012,0.0049,0.0154,0.1623,-0.0857,-3.6853,2.1076,8.7531,0.0002,0.0000,0.0001,1.0000,-0.0921,0.0526,0.2188
778,Pelvis,2,0.3610,0.5199,0.5840,-0.5083,0.5869,-0.4228,-1.2931,0.6000,0.5273,-1.3284,7.8433,2.5080,2.1960,0.0073,-0.0053,-0.0162,0.9998,0.1968,0.0591,0.0564
779,Left,2,0.2017,0.0343,-0.9748,-0.0885,0.0049,0.0006,-0.0043,0.0184,0.0357,-0.0311,-3.7980,-1.0417,8.9538,0.0001,0.0000,-0.0001,1.0000,-0.0950,-0.0261,0.2238
779,Right,2,0.1569,-0.1694,-0.9342,-0.2721,0.0128,0.0001,0.0080,0.0201,0.1601,-0.0732,-3.6949,2.1114,8.7621,0.0002,0.0000,0.0001,1.0000,-0.0924,0.0527,0.2191
779,Pelvis,2,0.3637,0.5323,0.5744,-0.5044,0.7442,-1.0483,-0.0568,-0.1736,0.3585,-0.5820,8.7597,2.0926,2.0639,0.0093,-0.0131,-0.0007,0.9999,0.2183,0.0517,0.0549
780,Left,2,0.2018,0.0344,-0.9748,-0.0885,0.0037,0.0024,-0.0043,-0.0060,0.0561,-0.0183,-3.7788,-1.0603,8.9738,0.0000,0.0000,-0.0001,1.0000,-0.0945,-0.0265,0.2243
780,Right,2,0.1569,-0.1694,-0.9342,-0.2720,0.0122,-0.0006,0.0074,0.0385,0.1658,-0.0821,-3.7044,2.0951,8.7522,0.0002,-0.0000,0.0001,1.0000,-0.0926,0.0523,0.2188
780,Pelvis,2,0.3703,0.5431,0.5597,-0.5047,0.8454,-1.1425,0.5500,-0.1384,0.3559,0.4323,9.7925,2.3491,1.9245,0.0106,-0.0143,0.0069,0.9998,0.2437,0.0599,0.0522
781,Left,2,0.2019,0.0343,-0.9748,-0.0887,0.0025,0.0024,-0.0061,0.0151,0.0247,-0.0322,-3.7987,-1.0312,8.9535,0.0000,0.0000,-0.0001,1.0000,-0.0950,-0.0258,0.2238
781,Right,2,0.1569,-0.1695,-0.9342,-0.2720,0.0158,0.0000,0.0074,0.0135,0.1696,-0.0788,-3.6844,2.1087,8.7611,0.0002,0.0000,0.0001,1.0000,-0.0921,0.0527,0.2190
781,Pelvis,2,0.3798,0.5499,0.5415,-0.5100,0.8488,-0.9940,1.1616,-0.0505,-0.9649,-0.2195,9.4377,1.9638,0.2202,0.0106,-0.0124,0.0145,0.9998,0.2351,0.0524,0.0090
782,Left,2,0.2018,0.0343,-0.9748,-0.0888,0.0055,-0.0012,-0.0036,0.0025,0.0379,-0.0475,-3.7791,-1.0407,8.9441,0.0001,-0.0000,-0.0000,1.0000,-0.0945,-0.0260,0.2236
782,Right,2,0.1569,-0.1696,-0.9342,-0.2719,0.0158,-0.0018,0.0080,0.0293,0.1553,-0.0801,-3.7032,2.1128,8.7504,0.0002,-0.0000,0.0001,1.0000,-0.0926,0.0528,0.2188
782,Pelvis,2,0.3875,0.5551,0.5298,-0.5109,0.4407,-0.8470,0.6787,0.2193,-0.8129,-0.0945,9.5366,2.0500,0.0886,0.0055,-0.0106,0.0085,0.9999,0.2379,0.0532,0.0050
783,Left,2,0.2019,0.0343,-0.9748,-0.0888,0.0049,-0.0012,-0.0030,-0.0069,0.0361,-0.0296,-3.7789,-1.0395,8.9639,0.0001,-0.0000,-0.0000,1.0000,-0.0945,-0.0260,0.2241
783,Right,2,0.1570,-0.1697,-0.9342,-0.2718,0.0140,-0.0006,0.0074,0.0065,0.1701,-0.0699,-3.6832,2.1172,8.7694,0.0002,-0.0000,0.0001,1.0000,-0.0921,0.0529,0.2192
783,Pelvis,2,0.3973,0.5554,0.5217,-0.5114,-0.0150,-0.6387,0.7575,0.3641,-0.5418,0.0123,9.6252,2.0723,0.1489,-0.0002,-0.0080,0.0095,0.9999,0.2401,0.0541,0.0056
784,Left,2,0.2018,0.0344,-0.9748,-0.0886,0.0000,0.0048,-0.0055,-0.0024,0.0256,-0.0397,-3.7791,-1.0297,8.9538,0.0000,0.0001,-0.0001,1.0000,-0.0945,-0.0257,0.2239
784,Right,2,0.1569,-0.1697,-0.9342,-0.2716,0.0171,0.0012,0.0055,0.0067,0.1582,-0.1088,-3.6729,2.1198,8.7296,0.0002,0.0000,0.0001,1.0000,-0.0918,0.0529,0.2183
784,Pelvis,2,0.4045,0.5539,0.5169,-0.5123,-0.1137,-0.3318,0.5856,0.1377,0.1519,0.5306,10.1454,1.8674,0.7818,-0.0014,-0.0041,0.0073,1.0000,0.2532,0.0486,0.0205
785,Left,2,0.2019,0.0345,-0.9748,-0.0886,0.0024,0.0061,-0.0043,0.0120,0.0611,-0.0314,-3.7898,-1.0690,8.9539,0.0000,0.0001,-0.0001,1.0000,-0.0947,-0.0267,0.2239
785,Right,2,0.1570,-0.1698,-0.9342,-0.2716,0.0140,0.0031,0.0067,0.0232,0.1778,-0.0700,-3.6930,2.1057,8.7681,0.0002,0.0000,0.0001,1.0000,-0.0923,0.0526,0.2192
785,Pelvis,2,0.4065,0.5541,0.5182,-0.5092,-0.2234,-0.1674,-0.1130,0.0592,-0.5095,-0.6765,9.0362,1.4418,0.0107,-0.0028,-0.0021,-0.0014,1.0000,0.2260,0.0357,0.0006
786,Left,2,0.2019,0.0346,-0.9748,-0.0883,0.0055,0.0049,-0.0025,-0.0087,0.0441,-0.0411,-3.7715,-1.0488,8.9533,0.0001,0.0001,-0.0000,1.0000,-0.0943,-0.0262,0.2238
786,Right,2,0.1571,-0.1698,-0.9343,-0.2712,0.0122,0.0019,0.0055,0.0143,0.1529,-0.0837,-3.6929,2.1280,8.7470,0.0002,0.0000,0.0001,1.0000,-0.0923,0.0532,0.2187
786,Pelvis,2,0.3974,0.5598,0.5197,-0.5085,0.5166,0.1792,-0.6970,-0.1037,-0.1262,-0.0756,9.6084,1.5251,0.4391,0.0065,0.0022,-0.0087,0.9999,0.2406,0.0360,0.0107
787,Left,2,0.2019,0.0346,-0.9748,-0.0882,0.0055,0.0018,-0.0018,-0.0021,0.0505,-0.0272,-3.7820,-1.0574,8.9630,0.0001,0.0000,-0.0000,1.0000,-0.0945,-0.0264,0.2241
787,Right,2,0.1571,-0.1698,-0.9343,-0.2711,0.0116,0.0012,0.0043,0.0042,0.1833,-0.0774,-3.6738,2.1120,8.7666,0.0001,0.0000,0.0001,1.0000,-0.0918,0.0528,0.2192
787,Pelvis,2,0.3833,0.5650,0.5177,-0.5157,1.1207,0.6509,-0.4314,0.3843,-1.6227,1.0263,10.7172,2.1069,-0.9848,0.0140,0.0081,-0.0054,0.9999,0.2680,0.0516,-0.0261
788,Left,2,0.2020,0.0345,-0.9748,-0.0883,0.0067,0.0006,-0.0018,0.0142,0.0492,-0.0414,-3.7918,-1.0566,8.9435,0.0001,0.0000,-0.0000,1.0000,-0.0948,-0.0264,0.2236
788,Right,2,0.1571,-0.1699,-0.9344,-0.2710,0.0110,0.0018,0.0043,0.0258,0.1680,-0.0661,-3.7032,2.1152,8.7656,0.0001,0.0000,0.0001,1.0000,-0.0926,0.0528,0.2191
788,Pelvis,2,0.3627,0.5720,0.5093,-0.5309,2.0010,1.0162,-0.1873,0.7497,0.0458,1.5481,10.9785,2.9265,0.7376,0.0250,0.0127,-0.0023,0.9996,0.2749,0.0721,0.0168
789,Left,2,0.2020,0.0346,-0.9748,-0.0881,0.0043,-0.0006,-0.0012,-0.0004,0.0397,-0.0373,-3.7821,-1.0456,8.9533,0.0001,-0.0000,-0.0000,1.0000,-0.0946,-0.0261,0.2238
789,Right,2,0.1572,-0.1699,-0.9344,-0.2707,0.0128,0.0031,0.0049,0.0106,0.1716,-0.0824,-3.6839,2.1177,8.7551,0.0002,0.0000,0.0001,1.0000,-0.0921,0.0529,0.2189
789,Pelvis,2,0.3515,0.5747,0.5078,-0.5369,0.8491,0.5988,-0.2881,-0.5437,1.0499,-0.0233,9.5053,1.6949,2.0020,0.0106,0.0075,-0.0036,0.9999,0.2382,0.0410,0.0487
790,Left,2,0.2019,0.0345,-0.9748,-0.0882,0.0043,-0.0000,-0.0012,0.0075,0.0283,-0.0348,-3.7919,-1.0350,8.9532,0.0001,-0.0000,-0.0000,1.0000,-0.0948,-0.0259,0.2238
790,Right,2,0.1573,-0.1699,-0.9344,-0.2706,0.0134,0.0019,0.0067,0.0132,0.1542,-0.0855,-3.6937,2.1306,8.7441,0.0002,0.0000,0.0001,1.0000,-0.0923,0.0532,0.2186
790,Pelvis,2,0.3487,0.5699,0.5102,-0.5416,-0.0350,0.6196,0.0708,-0.7935,0.1856,-0.5377,9.1412,1.1902,1.3090,-0.0004,0.0077,0.0009,1.0000,0.2287,0.0300,0.0309
791,Left,2,0.2019,0.0345,-0.9748,-0.0881,0.0049,0.0012,-0.0030,0.0028,0.0579,-0.0350,-3.7820,-1.0634,8.9538,0.0001,0.0000,-0.0000,1.0000,-0.0945,-0.0266,0.2238
791,Right,2,0.1573,-0.1700,-0.9345,-0.2705,0.0140,0.0031,0.0049,-0.0059,0.1651,-0.0841,-3.6745,2.1343,8.7530,0.0002,0.0000,0.0001,1.0000,-0.0919,0.0533,0.2188
791,Pelvis,2,0.3559,0.5640,0.5092,-0.5440,-0.4306,0.0592,0.6191,-0.6583,-0.8737,-0.4961,9.3220,0.9908,0.3422,-0.0054,0.0007,0.0077,1.0000,0.2329,0.0266,0.0082
792,Left,2,0.2019,0.0345,-0.9748,-0.0881,0.0055,0.0006,-0.0024,-0.0062,0.0496,-0.0399,-3.7724,-1.0527,8.9538,0.0001,0.0000,-0.0000,1.0000,-0.0943,-0.0263,0.2238
792,Right,2,0.1573,-0.1700,-0.9345,-0.2703,0.0085,-0.0012,0.0043,-0.0073,0.1636,-0.0841,-3.6744,2.1372,8.7523,0.0001,-0.0000,0.0001,1.0000,-0.0919,0.0534,0.2188
792,Pelvis,2,0.3745,0.5590,0.4999,-0.5453,-0.5454,-0.7243,1.4268,-0.5581,-0.9598,0.2729,10.0996,0.9511,0.2432,-0.0068,-0.0091,0.0178,0.9998,0.2519,0.0283,0.0082
793,Left,2,0.2017,0.0346,-0.9749,-0.0879,0.0055,0.0006,-0.0018,0.0052,0.0460,-0.0362,-3.7823,-1.0517,8.9538,0.0001,0.0000,-0.0000,1.0000,-0.0946,-0.0263,0.2238
793,Right,2,0.1572,-0.1700,-0.9345,-0.2702,0.0110,0.0006,0.0055,0.0253,0.1761,-0.0824,-3.6940,2.1107,8.7527,0.0001,0.0000,0.0001,1.0000,-0.0924,0.0527,0.2188
793,Pelvis,2,0.3857,0.5500,0.4921,-0.5536,-0.2372,0.0936,1.4276,0.1694,-1.5145,0.2411,10.0880,1.1622,-0.5418,-0.0030,0.0012,0.0178,0.9998,0.2516,0.0335,-0.0139
794,Left,2,0.2017,0.0346,-0.9749,-0.0878,0.0037,0.0049,-0.0013,-0.0056,0.0468,-0.0309,-3.7732,-1.0506,8.9635,0.0000,0.0001,-0.0000,1.0000,-0.0943,-0.0263,0.2241
794,Right,2,0.1572,-0.1701,-0.9346,-0.2699,0.0116,0.0012,0.0031,0.0018,0.1795,-0.0791,-3.6744,2.1234,8.7616,0.0001,0.0000,0.0000,1.0000,-0.0919,0.0531,0.2190
794,Pelvis,2,0.3871,0.5212,0.5021,-0.5713,-1.0661,2.3326,1.1966,0.0351,-1.9621,-0.4814,9.4946,0.5409,-0.7197,-0.0133,0.0292,0.0150,0.9994,0.2365,0.0168,-0.0251
795,Left,2,0.2017,0.0344,-0.9749,-0.0880,0.0049,0.0061,0.0006,-0.0130,0.0581,-0.0335,-3.7646,-1.0594,8.9634,0.0001,0.0001,0.0000,1.0000,-0.0941,-0.0265,0.2241
795,Right,2,0.1573,-0.1701,-0.9346,-0.2700,0.0110,0.0024,0.0031,0.0080,0.1825,-0.0898,-3.6747,2.1161,8.7514,0.0001,0.0000,0.0000,1.0000,-0.0919,0.0529,0.2188
795,Pelvis,2,0.3885,0.4937,0.5208,-0.5780,-1.7001,2.0799,0.3122,-1.9037,1.8108,-1.4263,7.9433,-0.9373,3.6440,-0.0212,0.0260,0.0039,0.9994,0.2010,-0.0208,0.0864
796,Left,2,0.2019,0.0344,-0.9748,-0.0881,0.0043,0.0061,0.0006,-0.0086,0.0672,-0.0413,-3.7658,-1.0683,8.9533,0.0001,0.0001,0.0000,1.0000,-0.0941,-0.0267,0.2238
796,Right,2,0.1573,-0.1702,-0.9345,-0.2702,0.0098,0.0024,0.0012,0.0237,0.1680,-0.0911,-3.6946,2.1185,8.7407,0.0001,0.0000,0.0000,1.0000,-0.0924,0.0529,0.2185
796,Pelvis,2,0.3929,0.4991,0.5234,-0.5680,-0.3771,-0.7280,-0.5439,-0.3046,1.4980,-0.2084,9.0794,0.5993,3.4332,-0.0047,-0.0091,-0.0068,0.9999,0.2263,0.0139,0.0878
797,Left,2,0.2020,0.0345,-0.9748,-0.0880,0.0042,0.0092,0.0018,-0.0075,0.0445,-0.0309,-3.7775,-1.0475,8.9620,0.0001,0.0001,0.0000,1.0000,-0.0944,-0.0262,0.2241
797,Right,2,0.1574,-0.1702,-0.9345,-0.2703,0.0079,0.0024,0.0012,0.0114,0.1744,-0.0860,-3.6853,2.1207,8.7499,0.0001,0.0000,0.0000,1.0000,-0.0921,0.0530,0.2188
797,Pelvis,2,0.3962,0.5001,0.5226,-0.5655,-0.1488,-0.2949,0.0140,0.3670,-0.6230,0.8571,10.5528,1.0762,1.3593,-0.0019,-0.0037,0.0002,1.0000,0.2637,0.0270,0.0349
798,Left,2,0.2022,0.0345,-0.9748,-0.0878,0.0061,0.0080,0.0030,-0.0255,0.0556,-0.0372,-3.7599,-1.0558,8.9617,0.0001,0.0001,0.0000,1.0000,-0.0940,-0.0264,0.2241
798,Right,2,0.1575,-0.1701,-0.9344,-0.2704,0.0074,0.0054,-0.0007,0.0142,0.1800,-0.0878,-3.6863,2.1127,8.7494,0.0001,0.0001,-0.0000,1.0000,-0.0921,0.0528,0.2187
798,Pelvis,2,0.4019,0.5035,0.5143,-0.5661,0.2549,-0.6148,0.5104,-0.0417,-0.1915,0.0553,9.7248,0.6082,1.5738,0.0032,-0.0077,0.0064,0.9999,0.2427,0.0166,0.0413
799,Left,2,0.2022,0.0344,-0.9748,-0.0879,0.0073,0.0074,0.0018,0.0238,0.0466,-0.0276,-3.8104,-1.0545,8.9510,0.0001,0.0001,0.0000,1.0000,-0.0952,-0.0264,0.2238
799,Right,2,0.1575,-0.1702,-0.9343,-0.2706,0.0092,0.0030,-0.0000,0.0155,0.1749,-0.0966,-3.6872,2.1141,8.7389,0.0001,0.0000,-0.0000,1.0000,-0.0922,0.0528,0.2185
799,Pelvis,2,0.4089,0.5063,0.5077,-0.5645,0.0251,-0.6730,0.4106,-0.5920,0.1218,-1.0346,8.6471,-0.0617,1.6269,0.0003,-0.0084,0.0051,1.0000,0.2158,-0.0004,0.0425
800,Left,2,0.2022,0.0344,-0.9748,-0.0877,0.0067,0.0080,0.0036,0.0108,0.0495,-0.0439,-3.7926,-1.0528,8.9408,0.0001,0.0001,0.0000,1.0000,-0.0948,-0.0263,0.2235
800,Right,2,0.1576,-0.1701,-0.9344,-0.2704,0.0061,0.0024,0.0018,0.0126,0.1765,-0.0878,-3.6878,2.1162,8.7480,0.0001,0.0000,0.0000,1.0000,-0.0922,0.0529,0.2187
800,Pelvis,2,0.4166,0.5057,0.5062,-0.5608,-0.4135,-0.4737,0.2301,0.0742,-0.0699,-0.0261,9.6774,0.5374,1.3594,-0.0052,-0.0059,0.0029,1.0000,0.2417,0.0143,0.0353
801,Left,2,0.2023,0.0344,-0.9748,-0.0876,0.0085,0.0031,0.0025,0.0017,0.0471,-0.0260,-3.7941,-1.0504,8.9600,0.0001,0.0000,0.0000,1.0000,-0.0948,-0.0263,0.2240
801,Right,2,0.1576,-0.1701,-0.9344,-0.2704,0.0073,0.0006,0.0025,0.0115,0.1897,-0.0720,-3.6883,2.1088,8.7673,0.0001,0.0000,0.0000,1.0000,-0.0922,0.0527,0.2192
801,Pelvis,2,0.4236,0.5045,0.5082,-0.5547,-0.6377,-0.3890,-0.0205,0.0688,-0.2464,0.2028,9.9451,0.4725,1.1171,-0.0080,-0.0049,-0.0003,1.0000,0.2485,0.0120,0.0290
802,Left,2,0.2023,0.0343,-0.9748,-0.0875,0.0085,0.0037,0.0006,-0.0169,0.0403,-0.0346,-3.7754,-1.0385,8.9599,0.0001,0.0000,0.0000,1.0000,-0.0944,-0.0260,0.2240
802,Right,2,0.1577,-0.1701,-0.9344,-0.2704,0.0085,0.0025,0.0037,0.0266,0.2115,-0.0777,-3.6888,2.0816,8.7679,0.0001,0.0000,0.0000,1.0000,-0.0922,0.0520,0.2192
802,Pelvis,2,0.4309,0.5054,0.5100,-0.5466,-0.6154,-0.5907,-0.1569,0.0375,-0.2673,0.0420,9.8018,0.4339,0.9622,-0.0077,-0.0074,-0.0020,0.9999,0.2449,0.0106,0.0258
803,Left,2,0.2023,0.0343,-0.9748,-0.0874,0.0079,0.0037,0.0012,0.0035,0.0447,-0.0260,-3.7958,-1.0465,8.9598,0.0001,0.0000,0.0000,1.0000,-0.0949,-0.0262,0.2240
803,Right,2,0.1576,-0.1701,-0.9344,-0.2704,0.0098,0.0006,0.0043,0.0213,0.1829,-0.1003,-3.6885,2.1024,8.7373,0.0001,0.0000,0.0001,1.0000,-0.0922,0.0525,0.2184
803,Pelvis,2,0.4382,0.5094,0.5086,-0.5383,-0.3737,-0.8411,-0.1319,-0.2481,-0.5897,-0.4103,9.4127,0.1174,0.4522,-0.0047,-0.0105,-0.0016,0.9999,0.2352,0.0026,0.0138
804,Left,2,0.2022,0.0342,-0.9748,-0.0876,0.0073,0.0018,-0.0012,-0.0106,0.0578,-0.0323,-3.7768,-1.0544,8.9601,0.0001,0.0000,-0.0000,1.0000,-0.0944,-0.0264,0.2240
804,Right,2,0.1576,-0.1702,-0.9344,-0.2704,0.0091,0.0006,0.0037,0.0114,0.1809,-0.0807,-3.6884,2.1153,8.7558,0.0001,0.0000,0.0000,1.0000,-0.0922,0.0529,0.2189
804,Pelvis,2,0.4438,0.5155,0.5069,-0.5295,-0.2115,-0.8999,-0.2880,-0.3638,-0.1438,0.3049,10.0961,0.1238,0.7594,-0.0026,-0.0112,-0.0036,0.9999,0.2522,0.0022,0.0218
805,Left,2,0.2023,0.0342,-0.9748,-0.0876,0.0061,0.0049,-0.0031,-0.0037,0.0456,-0.0297,-3.7873,-1.0434,8.9597,0.0001,0.0001,-0.0000,1.0000,-0.0947,-0.0261,0.2240
805,Right,2,0.1576,-0.1702,-0.9344,-0.2704,0.0110,-0.0006,0.0043,0.0094,0.1790,-0.0807,-3.6882,2.1179,8.7553,0.0001,-0.0000,0.0001,1.0000,-0.0922,0.0529,0.2189
805,Pelvis,2,0.4500,0.5160,0.5119,-0.5189,-0.8101,-0.5123,-0.4140,0.3857,0.5117,0.4346,10.1500,1.0073,1.1760,-0.0101,-0.0064,-0.0052,0.9999,0.2537,0.0242,0.0308
806,Left,2,0.2022,0.0342,-0.9748,-0.0875,0.0061,0.0031,0.0006,-0.0154,0.0456,-0.0245,-3.7785,-1.0419,8.9693,0.0001,0.0000,0.0000,1.0000,-0.0945,-0.0261,0.2242
806,Right,2,0.1575,-0.1702,-0.9344,-0.2703,0.0116,0.0000,0.0049,-0.0009,0.1939,-0.0900,-3.6685,2.1107,8.7553,0.0001,0.0000,0.0001,1.0000,-0.0917,0.0527,0.2189
807,Left,2,0.2023,0.0342,-0.9748,-0.0876,0.0049,0.0049,-0.0031,0.0067,0.0419,-0.0260,-3.7988,-1.0411,8.9591,0.0001,0.0001,-0.0000,1.0000,-0.0950,-0.0260,0.2240
807,Right,2,0.1576,-0.1703,-0.9344,-0.2703,0.0110,0.0012,0.0043,0.0035,0.1911,-0.0774,-3.6783,2.1141,8.7643,0.0001,0.0000,0.0001,1.0000,-0.0920,0.0528,0.2191
808,Left,2,0.2024,0.0342,-0.9748,-0.0874,0.0037,0.0061,-0.0019,0.0019,0.0650,-0.0579,-3.7800,-1.0604,8.9301,0.0000,0.0001,-0.0000,1.0000,-0.0945,-0.0265,0.2233
808,Right,2,0.1576,-0.1702,-0.9345,-0.2701,0.0122,0.0012,0.0055,0.0052,0.1818,-0.0950,-3.6781,2.1164,8.7441,0.0002,0.0000,0.0001,1.0000,-0.0920,0.0529,0.2186
809,Left,2,0.2023,0.0343,-0.9748,-0.0873,0.0061,0.0018,-0.0006,-0.0049,0.0627,-0.0400,-3.7811,-1.0590,8.9493,0.0001,0.0000,-0.0000,1.0000,-0.0945,-0.0265,0.2237
809,Right,2,0.1576,-0.1702,-0.9345,-0.2700,0.0085,0.0006,0.0031,0.0078,0.1912,-0.0880,-3.6783,2.1097,8.7536,0.0001,0.0000,0.0000,1.0000,-0.0920,0.0527,0.2188
810,Left,2,0.2024,0.0341,-0.9748,-0.0875,0.0085,0.0025,0.0006,-0.0142,0.0518,-0.0233,-3.7818,-1.0472,8.9687,0.0001,0.0000,0.0000,1.0000,-0.0945,-0.0262,0.2242
810,Right,2,0.1576,-0.1703,-0.9344,-0.2702,0.0110,0.0024,0.0030,0.0099,0.2011,-0.0811,-3.6787,2.1027,8.7630,0.0001,0.0000,0.0000,1.0000,-0.0920,0.0525,0.2191
811,Left,2,0.2024,0.0341,-0.9748,-0.0875,0.0079,0.0025,0.0012,-0.0048,0.0615,-0.0400,-3.7821,-1.0554,8.9493,0.0001,0.0000,0.0000,1.0000,-0.0945,-0.0264,0.2237
811,Right,2,0.1576,-0.1703,-0.9344,-0.2703,0.0092,0.0037,0.0030,-0.0021,0.1923,-0.0917,-3.6692,2.1144,8.7522,0.0001,0.0000,0.0000,1.0000,-0.0917,0.0528,0.2188
812,Left,2,0.2024,0.0340,-0.9748,-0.0875,0.0079,0.0049,-0.0000,-0.0054,0.0508,-0.0412,-3.7830,-1.0439,8.9490,0.0001,0.0001,-0.0000,1.0000,-0.0946,-0.0261,0.2237
812,Right,2,0.1577,-0.1703,-0.9344,-0.2703,0.0067,0.0018,0.0006,0.0021,0.1893,-0.0791,-3.6796,2.1169,8.7612,0.0001,0.0000,0.0000,1.0000,-0.0920,0.0529,0.2190
813,Left,2,0.2025,0.0340,-0.9748,-0.0876,0.0055,0.0079,-0.0001,-0.0092,0.0592,-0.0310,-3.7845,-1.0519,8.9585,0.0001,0.0001,-0.0000,1.0000,-0.0946,-0.0263,0.2240
813,Right,2,0.1578,-0.1703,-0.9344,-0.2703,0.0086,0.0030,-0.0006,0.0103,0.1943,-0.0684,-3.6901,2.1093,8.7706,0.0001,0.0000,-0.0000,1.0000,-0.0922,0.0527,0.2193
814,Left,2,0.2027,0.0339,-0.9747,-0.0877,0.0036,0.0116,-0.0007,-0.0077,0.0684,-0.0299,-3.7867,-1.0607,8.9579,0.0000,0.0001,-0.0000,1.0000,-0.0946,-0.0265,0.2240
814,Right,2,0.1579,-0.1703,-0.9343,-0.2703,0.0080,0.0073,-0.0001,0.0130,0.1854,-0.0860,-3.6910,2.1103,8.7502,0.0001,0.0001,-0.0000,1.0000,-0.0923,0.0527,0.2188
815,Left,2,0.2028,0.0340,-0.9747,-0.0877,0.0018,0.0092,-0.0001,-0.0106,0.0481,-0.0322,-3.7891,-1.0406,8.9566,0.0000,0.0001,-0.0000,1.0000,-0.0947,-0.0260,0.2239
815,Right,2,0.1580,-0.1703,-0.9343,-0.2704,0.0080,0.0066,-0.0013,0.0015,0.1914,-0.0809,-3.6829,2.1122,8.7590,0.0001,0.0001,-0.0000,1.0000,-0.0921,0.0528,0.2190
816,Left,2,0.2028,0.0340,-0.9747,-0.0877,0.0018,0.0067,-0.0013,0.0059,0.0528,-0.0147,-3.8104,-1.0499,8.9656,0.0000,0.0001,-0.0000,1.0000,-0.0952,-0.0263,0.2241
816,Right,2,0.1580,-0.1702,-0.9343,-0.2705,0.0037,0.0036,-0.0019,0.0068,0.1885,-0.0683,-3.6940,2.1139,8.7679,0.0000,0.0000,-0.0000,1.0000,-0.0923,0.0528,0.2192
817,Left,2,0.2029,0.0340,-0.9747,-0.0877,0.0061,0.0037,-0.0006,0.0053,0.0643,-0.0351,-3.8015,-1.0592,8.9460,0.0001,0.0000,-0.0000,1.0000,-0.0950,-0.0265,0.2237
817,Right,2,0.1581,-0.1702,-0.9343,-0.2705,0.0043,0.0012,-0.0012,0.0200,0.1862,-0.0752,-3.7044,2.1046,8.7580,0.0001,0.0000,-0.0000,1.0000,-0.0926,0.0526,0.2190
818,Left,2,0.2028,0.0340,-0.9747,-0.0876,0.0049,0.0006,-0.0006,0.0008,0.0528,-0.0273,-3.8022,-1.0481,8.9555,0.0001,0.0000,-0.0000,1.0000,-0.0951,-0.0262,0.2239
818,Right,2,0.1581,-0.1701,-0.9343,-0.2705,0.0073,0.0006,0.0012,0.0319,0.1961,-0.0877,-3.7048,2.0860,8.7486,0.0001,0.0000,0.0000,1.0000,-0.0926,0.0521,0.2187
819,Left,2,0.2027,0.0340,-0.9747,-0.0877,0.0049,0.0012,-0.0006,-0.0002,0.0635,-0.0388,-3.7924,-1.0570,8.9461,0.0001,0.0000,-0.0000,1.0000,-0.0948,-0.0264,0.2237
819,Right,2,0.1580,-0.1702,-0.9343,-0.2706,0.0086,0.0024,0.0024,0.0191,0.1908,-0.0895,-3.6951,2.0975,8.7478,0.0001,0.0000,0.0000,1.0000,-0.0924,0.0524,0.2187
819,Pelvis,2,0.4536,0.5386,0.5098,-0.4942,-0.0016,-0.1539,-0.1156,-0.1069,-0.1126,-0.0148,9.7743,0.6806,0.2423,-0.0003,-0.0269,-0.0202,0.9994,3.4210,0.1690,0.1769
820,Left,2,0.2027,0.0340,-0.9747,-0.0876,0.0061,0.0018,-0.0006,-0.0025,0.0431,-0.0411,-3.7928,-1.0363,8.9457,0.0001,0.0000,-0.0000,1.0000,-0.0948,-0.0259,0.2236
820,Right,2,0.1581,-0.1701,-0.9343,-0.2705,0.0086,0.0030,0.0006,-0.0075,0.1970,-0.0774,-3.6761,2.1098,8.7664,0.0001,0.0000,0.0000,1.0000,-0.0919,0.0527,0.2192
820,Pelvis,2,0.4510,0.5409,0.5049,-0.4992,0.8491,0.2507,0.0370,-0.0842,-0.0556,-0.1248,9.6514,0.8459,0.0101,0.0106,0.0031,0.0005,0.9999,0.2413,0.0213,-0.0003
821,Left,2,0.2027,0.0340,-0.9747,-0.0876,0.0030,0.0061,-0.0013,-0.0148,0.0617,-0.0246,-3.7841,-1.0544,8.9655,0.0000,0.0001,-0.0000,1.0000,-0.0946,-0.0264,0.2241
821,Right,2,0.1581,-0.1701,-0.9343,-0.2706,0.0073,0.0036,0.0006,-0.0035,0.1787,-0.0806,-3.6864,2.1211,8.7554,0.0001,0.0000,0.0000,1.0000,-0.0921,0.0530,0.2189
821,Pelvis,2,0.4478,0.5385,0.5074,-0.5020,0.0334,0.4429,-0.0478,0.4646,0.1510,0.4971,10.2136,1.4665,0.2495,0.0004,0.0055,-0.0006,1.0000,0.2554,0.0365,0.0048
822,Left,2,0.2027,0.0341,-0.9747,-0.0874,0.0043,0.0049,-0.0000,-0.0204,0.0528,-0.0384,-3.7755,-1.0440,8.9552,0.0001,0.0001,-0.0000,1.0000,-0.0944,-0.0261,0.2239
823,Left,2,0.2027,0.0341,-0.9748,-0.0872,0.0049,0.0061,0.0006,-0.0000,0.0569,-0.0298,-3.7962,-1.0529,8.9548,0.0001,0.0001,0.0000,1.0000,-0.0949,-0.0263,0.2239
823,Right,2,0.1582,-0.1702,-0.9342,-0.2707,0.0061,0.0058,-0.0001,0.0067,0.1922,-0.0843,-3.6883,2.1037,8.7550,0.0002,0.0001,-0.0000,1.0000,-0.1844,0.1051,0.4378
823,Pelvis,2,0.4425,0.5254,0.5225,-0.5051,-0.4237,0.7175,-0.1253,-0.0690,-0.2485,-0.1448,9.6315,0.8756,0.1208,-0.0106,0.0179,-0.0031,0.9998,0.4817,0.0423,-0.0031
824,Left,2,0.2027,0.0342,-0.9748,-0.0871,0.0036,0.0073,-0.0007,-0.0013,0.0456,-0.0310,-3.7977,-1.0421,8.9541,0.0000,0.0001,-0.0000,1.0000,-0.0949,-0.0261,0.2239
824,Right,2,0.1583,-0.1700,-0.9342,-0.2707,0.0049,0.0048,-0.0031,0.0097,0.1953,-0.0861,-3.6903,2.0957,8.7542,0.0001,0.0001,-0.0000,1.0000,-0.0922,0.0524,0.2189
824,Pelvis,2,0.4454,0.5245,0.5251,-0.5007,-0.3865,-0.1573,-0.1529,0.3259,-0.7389,-1.2161,8.5500,1.1695,-0.2882,-0.0048,-0.0020,-0.0019,1.0000,0.2138,0.0288,-0.0069
825,Left,2,0.2028,0.0342,-0.9747,-0.0871,0.0049,0.0061,0.0006,0.0004,0.0637,-0.0286,-3.7991,-1.0607,8.9540,0.0001,0.0001,0.0000,1.0000,-0.0950,-0.0265,0.2239
825,Right,2,0.1583,-0.1700,-0.9342,-0.2709,0.0061,0.0048,-0.0007,0.0105,0.1807,-0.0804,-3.7011,2.1066,8.7529,0.0001,0.0001,-0.0000,1.0000,-0.0925,0.0526,0.2188
825,Pelvis,2,0.4498,0.5218,0.5261,-0.4986,-0.3821,-0.1206,0.1466,0.0028,-0.1478,0.4783,10.2309,1.0517,0.3854,-0.0048,-0.0015,0.0018,1.0000,0.2557,0.0268,0.0099
826,Left,2,0.2029,0.0342,-0.9747,-0.0871,0.0055,0.0049,0.0018,-0.0261,0.0616,-0.0714,-3.7610,-1.0502,8.9246,0.0001,0.0001,0.0000,1.0000,-0.0940,-0.0263,0.2231
826,Right,2,0.1585,-0.1699,-0.9341,-0.2709,0.0055,0.0030,-0.0006,0.0100,0.1926,-0.1180,-3.6824,2.0869,8.7240,0.0001,0.0000,-0.0000,1.0000,-0.0921,0.0522,0.2181
827,Left,2,0.2029,0.0341,-0.9747,-0.0871,0.0067,0.0043,0.0049,0.0017,0.0430,-0.0399,-3.8015,-1.0385,8.9431,0.0001,0.0001,0.0001,1.0000,-0.0950,-0.0260,0.2236
827,Right,2,0.1584,-0.1700,-0.9341,-0.2712,0.0086,0.0018,-0.0006,0.0170,0.1957,-0.0752,-3.7029,2.0902,8.7622,0.0001,0.0000,-0.0000,1.0000,-0.0926,0.0522,0.2191
827,Pelvis,2,0.4521,0.5227,0.5224,-0.4995,0.0723,-0.1031,0.1183,-0.3330,0.1062,0.2556,10.0350,0.6548,0.6029,0.0018,-0.0026,0.0030,1.0000,0.5016,0.0342,0.0315
828,Left,2,0.2030,0.0341,-0.9747,-0.0870,0.0079,0.0050,0.0049,0.0013,0.0701,-0.0274,-3.8026,-1.0654,8.9533,0.0001,0.0001,0.0001,1.0000,-0.0951,-0.0267,0.2238
828,Right,2,0.1585,-0.1698,-0.9341,-0.2711,0.0049,0.0018,-0.0000,-0.0043,0.1910,-0.0896,-3.6835,2.1008,8.7518,0.0001,0.0000,-0.0000,1.0000,-0.0921,0.0525,0.2188
828,Pelvis,2,0.4522,0.5237,0.5209,-0.4998,0.1476,-0.0704,0.0263,0.2415,0.2273,0.1939,9.9198,1.1902,0.6497,0.0018,-0.0009,0.0003,1.0000,0.2480,0.0298,0.0165
829,Left,2,0.2029,0.0340,-0.9747,-0.0869,0.0067,0.0062,0.0055,-0.0103,0.0605,-0.0233,-3.7944,-1.0533,8.9626,0.0001,0.0001,0.0001,1.0000,-0.0948,-0.0264,0.2241
829,Right,2,0.1585,-0.1698,-0.9341,-0.2712,0.0055,0.0060,-0.0013,0.0072,0.1956,-0.0788,-3.6944,2.0926,8.7612,0.0001,0.0001,-0.0000,1.0000,-0.0923,0.0523,0.2190
830,Left,2,0.2031,0.0340,-0.9747,-0.0868,0.0061,0.0104,0.0042,-0.0079,0.0501,-0.0334,-3.7963,-1.0419,8.9520,0.0001,0.0001,0.0001,1.0000,-0.0949,-0.0261,0.2238
830,Right,2,0.1586,-0.1698,-0.9340,-0.2713,0.0074,0.0102,-0.0045,0.0138,0.1975,-0.0895,-3.6964,2.0836,8.7508,0.0001,0.0001,-0.0001,1.0000,-0.0924,0.0521,0.2188
831,Left,2,0.2031,0.0340,-0.9747,-0.0867,0.0067,0.0104,-0.0013,0.0047,0.0378,-0.0399,-3.8084,-1.0308,8.9411,0.0001,0.0001,-0.0000,1.0000,-0.0952,-0.0258,0.2235
831,Right,2,0.1586,-0.1698,-0.9340,-0.2714,0.0086,0.0085,-0.0007,0.0271,0.1894,-0.0731,-3.7182,2.0858,8.7590,0.0001,0.0001,-0.0000,1.0000,-0.0929,0.0521,0.2190
831,Pelvis,2,0.4523,0.5272,0.5192,-0.4979,0.0517,-0.0924,-0.0487,-0.0167,0.1762,-0.0458,9.7090,0.9232,0.5536,0.0019,-0.0035,-0.0018,1.0000,0.7282,0.0678,0.0442
832,Left,2,0.2031,0.0340,-0.9747,-0.0867,0.0091,0.0043,0.0000,0.0170,0.0544,-0.0338,-3.8197,-1.0487,8.9409,0.0001,0.0001,0.0000,1.0000,-0.0955,-0.0262,0.2235
832,Right,2,0.1587,-0.1698,-0.9340,-0.2713,0.0086,0.0036,0.0006,0.0201,0.1881,-0.0856,-3.7096,2.0871,8.7484,0.0001,0.0000,0.0000,1.0000,-0.0927,0.0522,0.2187
833,Left,2,0.2030,0.0339,-0.9747,-0.0867,0.0091,-0.0006,0.0013,0.0045,0.0448,-0.0297,-3.8105,-1.0365,8.9506,0.0001,-0.0000,0.0000,1.0000,-0.0953,-0.0259,0.2238
833,Right,2,0.1586,-0.1698,-0.9340,-0.2714,0.0091,-0.0019,0.0013,0.0287,0.2050,-0.0804,-3.7102,2.0701,8.7584,0.0001,-0.0000,0.0000,1.0000,-0.0928,0.0517,0.2190
834,Left,2,0.2030,0.0339,-0.9748,-0.0866,0.0079,0.0000,-0.0012,0.0083,0.0444,-0.0387,-3.8103,-1.0349,8.9411,0.0001,0.0000,-0.0000,1.0000,-0.0953,-0.0259,0.2235
834,Right,2,0.1586,-0.1698,-0.9340,-0.2713,0.0110,-0.0012,0.0031,0.0115,0.2028,-0.0734,-3.6999,2.0825,8.7675,0.0001,-0.0000,0.0000,1.0000,-0.0925,0.0520,0.2192
835,Left,2,0.2029,0.0338,-0.9748,-0.0868,0.0086,-0.0006,-0.0030,-0.0060,0.0567,-0.0449,-3.7906,-1.0429,8.9419,0.0001,-0.0000,-0.0000,1.0000,-0.0948,-0.0261,0.2235
835,Right,2,0.1586,-0.1698,-0.9340,-0.2713,0.0116,0.0006,0.0031,0.0012,0.2086,-0.0682,-3.6900,2.0856,8.7768,0.0001,0.0000,0.0000,1.0000,-0.0923,0.0521,0.2194
836,Left,2,0.2028,0.0338,-0.9748,-0.0868,0.0055,0.0024,-0.0024,0.0047,0.0411,-0.0208,-3.8106,-1.0314,8.9610,0.0001,0.0000,-0.0000,1.0000,-0.0953,-0.0258,0.2240
836,Right,2,0.1585,-0.1698,-0.9340,-0.2713,0.0110,0.0013,0.0049,0.0057,0.1990,-0.0859,-3.6898,2.0876,8.7566,0.0001,0.0000,0.0001,1.0000,-0.0922,0.0522,0.2189
837,Left,2,0.2028,0.0338,-0.9748,-0.0869,0.0061,0.0036,-0.0031,-0.0070,0.0542,-0.0359,-3.7915,-1.0403,8.9516,0.0001,0.0000,-0.0000,1.0000,-0.0948,-0.0260,0.2238
837,Right,2,0.1585,-0.1698,-0.9341,-0.2712,0.0098,0.0006,0.0043,0.0176,0.2000,-0.0839,-3.6997,2.0806,8.7563,0.0001,0.0000,0.0001,1.0000,-0.0925,0.0520,0.2189
838,Left,2,0.2027,0.0337,-0.9748,-0.0870,0.0073,0.0043,-0.0006,0.0110,0.0403,-0.0297,-3.8119,-1.0293,8.9509,0.0001,0.0001,-0.0000,1.0000,-0.0953,-0.0258,0.2238
838,Right,2,0.1584,-0.1698,-0.9341,-0.2713,0.0097,-0.0006,0.0043,0.0194,0.1853,-0.0783,-3.7091,2.0930,8.7552,0.0001,-0.0000,0.0001,1.0000,-0.0927,0.0523,0.2189
839,Left,2,0.2026,0.0336,-0.9748,-0.0871,0.0086,-0.0000,-0.0054,0.0279,0.0475,-0.0338,-3.8219,-1.0379,8.9412,0.0001,-0.0000,-0.0001,1.0000,-0.0955,-0.0260,0.2235
839,Right,2,0.1583,-0.1698,-0.9341,-0.2713,0.0103,-0.0005,0.0062,0.0253,0.1995,-0.0945,-3.6991,2.0757,8.7460,0.0001,-0.0000,0.0001,1.0000,-0.0925,0.0519,0.2187
839,Pelvis,2,0.4596,0.5389,0.5086,-0.4895,0.0459,-0.1830,-0.0106,0.0114,0.0709,-0.0644,9.6984,0.9680,0.2228,0.0046,-0.0183,-0.0011,0.9998,1.9386,0.1912,0.0809
840,Left,2,0.2025,0.0336,-0.9748,-0.0872,0.0080,-0.0006,-0.0036,0.0043,0.0485,-0.0232,-3.8025,-1.0358,8.9613,0.0001,-0.0000,-0.0000,1.0000,-0.0951,-0.0259,0.2240
840,Right,2,0.1582,-0.1699,-0.9341,-0.2714,0.0121,-0.0023,0.0093,0.0386,0.1825,-0.0638,-3.7277,2.0899,8.7643,0.0002,-0.0000,0.0001,1.0000,-0.0932,0.0522,0.2191
841,Left,2,0.2024,0.0336,-0.9748,-0.0872,0.0074,-0.0025,-0.0042,0.0024,0.0377,-0.0244,-3.8021,-1.0247,8.9614,0.0001,-0.0000,-0.0001,1.0000,-0.0951,-0.0256,0.2240
841,Right,2,0.1581,-0.1699,-0.9341,-0.2713,0.0121,-0.0035,0.0099,0.0150,0.1991,-0.0981,-3.6875,2.0822,8.7453,0.0002,-0.0000,0.0001,1.0000,-0.0922,0.0520,0.2186
841,Pelvis,2,0.4612,0.5447,0.4981,-0.4924,0.4028,-0.2495,0.1702,-0.3065,0.1585,-0.0828,9.7168,0.6103,0.0658,0.0101,-0.0062,0.0043,0.9999,0.4857,0.0325,0.0066
842,Left,2,0.2024,0.0337,-0.9748,-0.0872,0.0055,-0.0025,-0.0066,0.0046,0.0430,-0.0016,-3.8113,-1.0331,8.9814,0.0001,-0.0000,-0.0001,1.0000,-0.0953,-0.0258,0.2245
842,Right,2,0.1581,-0.1699,-0.9341,-0.2712,0.0121,-0.0023,0.0105,0.0049,0.2195,-0.0770,-3.6770,2.0773,8.7747,0.0002,-0.0000,0.0001,1.0000,-0.0919,0.0519,0.2194
842,Pelvis,2,0.4573,0.5490,0.4938,-0.4956,0.6366,-0.0288,-0.0493,-0.1679,-0.0867,0.3372,10.1219,0.7248,-0.2761,0.0080,-0.0004,-0.0006,1.0000,0.2531,0.0180,-0.0067
843,Left,2,0.2023,0.0338,-0.9748,-0.0871,0.0056,-0.0056,-0.0090,0.0221,0.0504,-0.0146,-3.8197,-1.0429,8.9625,0.0001,-0.0001,-0.0001,1.0000,-0.0955,-0.0261,0.2241
843,Right,2,0.1580,-0.1699,-0.9342,-0.2711,0.0133,-0.0072,0.0112,0.0388,0.1825,-0.0654,-3.7240,2.0911,8.7638,0.0002,-0.0001,0.0001,1.0000,-0.0931,0.0522,0.2191
843,Pelvis,2,0.4533,0.5517,0.4929,-0.4972,0.3667,0.1010,-0.1792,0.2784,0.0370,0.2945,10.0379,1.1987,-0.1969,0.0046,0.0013,-0.0022,1.0000,0.2510,0.0294,-0.0051
844,Left,2,0.2022,0.0338,-0.9749,-0.0871,0.0062,-0.0062,-0.0096,0.0106,0.0501,-0.0093,-3.8085,-1.0422,8.9732,0.0001,-0.0001,-0.0001,1.0000,-0.0952,-0.0261,0.2243
844,Right,2,0.1578,-0.1699,-0.9342,-0.2710,0.0139,-0.0060,0.0112,0.0031,0.2229,-0.0913,-3.6637,2.0747,8.7652,0.0002,-0.0001,0.0001,1.0000,-0.0916,0.0518,0.2191
844,Pelvis,2,0.4506,0.5475,0.4967,-0.5005,-0.1047,0.5626,-0.0025,0.4565,0.2811,0.2196,9.9462,1.4131,0.1067,-0.0013,0.0070,-0.0000,1.0000,0.2487,0.0353,0.0009
845,Left,2,0.2020,0.0338,-0.9749,-0.0871,0.0086,-0.0086,-0.0072,0.0097,0.0641,-0.0514,-3.7865,-1.0520,8.9355,0.0001,-0.0001,-0.0001,1.0000,-0.0947,-0.0263,0.2234
845,Right,2,0.1577,-0.1699,-0.9343,-0.2709,0.0152,-0.0054,0.0112,0.0005,0.1964,-0.0927,-3.6712,2.0981,8.7542,0.0002,-0.0001,0.0001,1.0000,-0.0918,0.0524,0.2189
845,Pelvis,2,0.4482,0.5387,0.5004,-0.5085,-0.1217,0.9384,0.3731,0.0573,-0.2325,-0.7063,9.0695,0.8366,-0.1809,-0.0015,0.0117,0.0047,0.9999,0.2266,0.0220,-0.0072
846,Left,2,0.2019,0.0338,-0.9749,-0.0871,0.0092,-0.0098,-0.0035,-0.0162,0.0655,-0.0408,-3.7650,-1.0499,8.9564,0.0001,-0.0001,-0.0000,1.0000,-0.0942,-0.0263,0.2239
846,Right,2,0.1577,-0.1699,-0.9343,-0.2708,0.0128,-0.0011,0.0086,0.0036,0.2018,-0.0945,-3.6701,2.0923,8.7542,0.0002,-0.0000,0.0001,1.0000,-0.0918,0.0523,0.2189
846,Pelvis,2,0.4391,0.5455,0.4900,-0.5192,1.4785,0.1827,0.2130,-0.8410,0.1641,-0.8868,8.9563,-0.0907,0.4277,0.0185,0.0023,0.0027,0.9998,0.2239,-0.0019,0.0101
847,Left,2,0.2019,0.0338,-0.9749,-0.0871,0.0086,-0.0049,-0.0054,-0.0131,0.0520,-0.0293,-3.7732,-1.0383,8.9667,0.0001,-0.0001,-0.0001,1.0000,-0.0943,-0.0260,0.2242
847,Right,2,0.1578,-0.1699,-0.9343,-0.2707,0.0134,0.0013,0.0068,0.0095,0.1945,-0.0907,-3.6795,2.0961,8.7534,0.0002,0.0000,0.0001,1.0000,-0.0920,0.0524,0.2188
847,Pelvis,2,0.4389,0.5520,0.4809,-0.5210,0.7266,-0.4968,0.2009,0.6013,-0.6694,1.2951,11.0461,1.3433,-0.6118,0.0091,-0.0062,0.0025,0.9999,0.2762,0.0344,-0.0133
848,Left,2,0.2019,0.0339,-0.9749,-0.0871,0.0049,-0.0013,-0.0054,-0.0151,0.0537,-0.0509,-3.7623,-1.0378,8.9478,0.0001,-0.0000,-0.0001,1.0000,-0.0941,-0.0260,0.2237
848,Right,2,0.1578,-0.1699,-0.9343,-0.2706,0.0122,0.0012,0.0043,-0.0057,0.1796,-0.0782,-3.6793,2.1194,8.7615,0.0002,0.0000,0.0001,1.0000,-0.0920,0.0529,0.2190
848,Pelvis,2,0.4387,0.5451,0.4873,-0.5224,-0.4868,0.5848,0.0164,0.2997,0.5834,0.1137,9.8640,1.1082,0.6628,-0.0061,0.0073,0.0002,1.0000,0.2467,0.0278,0.0146
849,Left,2,0.2019,0.0339,-0.9749,-0.0872,0.0043,0.0030,-0.0043,-0.0047,0.0478,-0.0256,-3.7822,-1.0368,8.9671,0.0001,0.0000,-0.0001,1.0000,-0.0945,-0.0259,0.2242
849,Right,2,0.1578,-0.1699,-0.9343,-0.2707,0.0098,0.0031,0.0055,0.0274,0.1879,-0.0849,-3.6994,2.0928,8.7521,0.0001,0.0000,0.0001,1.0000,-0.0925,0.0523,0.2188
849,Pelvis,2,0.4409,0.5363,0.4957,-0.5218,-0.8119,0.5578,0.0230,-0.0164,0.0837,-0.4060,9.3763,0.6744,0.3522,-0.0101,0.0070,0.0003,0.9999,0.2345,0.0170,0.0070
850,Left,2,0.2019,0.0338,-0.9749,-0.0872,0.0055,0.0036,-0.0025,0.0042,0.0453,-0.0220,-3.7926,-1.0361,8.9668,0.0001,0.0000,-0.0000,1.0000,-0.0948,-0.0259,0.2242
850,Right,2,0.1578,-0.1699,-0.9343,-0.2707,0.0079,0.0012,0.0031,0.0177,0.1900,-0.0886,-3.6899,2.0950,8.7516,0.0001,0.0000,0.0000,1.0000,-0.0922,0.0523,0.2188
850,Pelvis,2,0.4436,0.5336,0.4984,-0.5196,-0.4108,0.0104,0.0012,-0.0990,0.8724,-1.0046,8.7476,0.6295,1.1984,-0.0051,0.0001,0.0000,1.0000,0.2187,0.0159,0.0298
851,Left,2,0.2019,0.0339,-0.9749,-0.0872,0.0049,0.0024,-0.0043,-0.0075,0.0390,-0.0484,-3.7735,-1.0259,8.9471,0.0001,0.0000,-0.0001,1.0000,-0.0943,-0.0257,0.2237
851,Right,2,0.1579,-0.1698,-0.9344,-0.2706,0.0067,0.0013,0.0037,0.0185,0.1748,-0.0831,-3.6996,2.1068,8.7505,0.0001,0.0000,0.0000,1.0000,-0.0925,0.0526,0.2188
851,Pelvis,2,0.4544,0.5397,0.4940,-0.5082,-0.4251,-1.3215,-0.0309,-0.1093,-0.8292,0.1095,9.9261,0.5106,-0.6070,-0.0053,-0.0165,-0.0004,0.9998,0.2484,0.0126,-0.0111
852,Left,2,0.2019,0.0339,-0.9749,-0.0872,0.0049,0.0036,-0.0055,0.0280,0.0496,-0.0223,-3.8131,-1.0448,8.9567,0.0001,0.0000,-0.0001,1.0000,-0.0953,-0.0261,0.2239
852,Right,2,0.1578,-0.1697,-0.9344,-0.2706,0.0079,0.0000,0.0031,0.0240,0.2039,-0.0832,-3.6904,2.0798,8.7613,0.0001,0.0000,0.0000,1.0000,-0.0923,0.0520,0.2190
852,Pelvis,2,0.4555,0.5410,0.4928,-0.5069,0.0186,-0.1932,-0.0066,0.2835,-1.5666,1.2051,10.9840,0.9122,-1.5640,0.0002,-0.0024,-0.0001,1.0000,0.2747,0.0228,-0.0384
853,Left,2,0.2020,0.0340,-0.9749,-0.0871,0.0055,0.0006,-0.0042,-0.0172,0.0694,-0.0611,-3.7545,-1.0540,8.9382,0.0001,0.0000,-0.0001,1.0000,-0.0939,-0.0264,0.2235
853,Right,2,0.1579,-0.1697,-0.9344,-0.2705,0.0079,-0.0024,0.0062,0.0007,0.1935,-0.0745,-3.6799,2.1017,8.7699,0.0001,-0.0000,0.0001,1.0000,-0.0920,0.0525,0.2193
853,Pelvis,2,0.4535,0.5377,0.4956,-0.5095,-0.0721,0.4346,0.0132,0.1971,0.4466,-0.2598,9.5094,0.9188,0.4726,-0.0009,0.0054,0.0002,1.0000,0.2378,0.0230,0.0105
854,Left,2,0.2019,0.0339,-0.9749,-0.0872,0.0074,-0.0031,-0.0030,-0.0045,0.0423,-0.0256,-3.7840,-1.0327,8.9668,0.0001,-0.0000,-0.0000,1.0000,-0.0946,-0.0258,0.2242
854,Right,2,0.1578,-0.1697,-0.9344,-0.2705,0.0103,-0.0012,0.0050,0.0160,0.2146,-0.0797,-3.6797,2.0750,8.7710,0.0001,-0.0000,0.0001,1.0000,-0.0920,0.0518,0.2193
854,Pelvis,2,0.4550,0.5378,0.4953,-0.5083,-0.0741,-0.1214,0.0215,-0.3265,-0.0329,-0.1409,9.6705,0.3544,0.0848,-0.0009,-0.0015,0.0003,1.0000,0.2418,0.0089,0.0025
855,Left,2,0.2019,0.0340,-0.9750,-0.0869,0.0037,0.0024,-0.0043,-0.0141,0.0325,-0.0305,-3.7741,-1.0220,8.9668,0.0000,0.0000,-0.0001,1.0000,-0.0943,-0.0256,0.2242
855,Right,2,0.1578,-0.1696,-0.9345,-0.2703,0.0116,0.0018,0.0037,-0.0050,0.1854,-0.0958,-3.6691,2.1059,8.7496,0.0001,0.0000,0.0000,1.0000,-0.0917,0.0526,0.2187
855,Pelvis,2,0.4546,0.5374,0.4956,-0.5088,0.0095,0.0705,-0.0060,-0.1070,-0.1145,0.1310,9.9279,0.5802,-0.0226,0.0001,0.0009,-0.0001,1.0000,0.2482,0.0145,-0.0008
856,Left,2,0.2019,0.0341,-0.9750,-0.0868,0.0024,0.0049,-0.0019,-0.0214,0.0549,-0.0533,-3.7549,-1.0415,8.9479,0.0000,0.0001,-0.0000,1.0000,-0.0939,-0.0260,0.2237
856,Right,2,0.1579,-0.1696,-0.9345,-0.2703,0.0116,0.0030,0.0024,-0.0140,0.1872,-0.0995,-3.6597,2.1086,8.7489,0.0001,0.0000,0.0000,1.0000,-0.0915,0.0527,0.2187
856,Pelvis,2,0.4543,0.5373,0.4958,-0.5090,0.0206,0.0391,-0.0112,0.0139,0.0241,0.0751,9.8616,0.7100,0.1152,0.0003,0.0005,-0.0001,1.0000,0.2465,0.0177,0.0028
857,Left,2,0.2019,0.0341,-0.9750,-0.0868,0.0055,0.0061,0.0012,0.0001,0.0697,-0.0435,-3.7755,-1.0604,8.9478,0.0001,0.0001,0.0000,1.0000,-0.0944,-0.0265,0.2237
857,Right,2,0.1579,-0.1696,-0.9345,-0.2703,0.0086,0.0054,-0.0001,-0.0085,0.2163,-0.0996,-3.6514,2.0820,8.7593,0.0001,0.0001,-0.0000,1.0000,-0.0913,0.0520,0.2190
857,Pelvis,2,0.4539,0.5368,0.4960,-0.5097,0.0157,0.0803,0.0084,-0.0027,-0.0279,0.0178,9.8064,0.6833,0.0774,0.0002,0.0010,0.0001,1.0000,0.2452,0.0171,0.0017
858,Left,2,0.2019,0.0341,-0.9750,-0.0867,0.0030,0.0086,0.0029,-0.0175,0.0627,-0.0521,-3.7578,-1.0493,8.9472,0.0000,0.0001,0.0000,1.0000,-0.0939,-0.0262,0.2237
858,Right,2,0.1580,-0.1696,-0.9345,-0.2703,0.0111,0.0072,-0.0001,-0.0071,0.1922,-0.0797,-3.6720,2.1044,8.7667,0.0001,0.0001,-0.0000,1.0000,-0.0918,0.0526,0.2192
858,Pelvis,2,0.4535,0.5362,0.4962,-0.5105,0.0247,0.0911,0.0223,0.0524,0.0993,-0.0135,9.7692,0.7427,0.2175,0.0003,0.0011,0.0003,1.0000,0.2442,0.0186,0.0052
859,Left,2,0.2020,0.0341,-0.9750,-0.0865,0.0030,0.0123,0.0035,0.0114,0.0376,-0.0525,-3.7895,-1.0293,8.9355,0.0000,0.0002,0.0000,1.0000,-0.0947,-0.0257,0.2234
859,Right,2,0.1581,-0.1695,-0.9345,-0.2701,0.0086,0.0085,-0.0008,0.0017,0.1812,-0.0848,-3.6835,2.1062,8.7556,0.0001,0.0001,-0.0000,1.0000,-0.0921,0.0526,0.2189
859,Pelvis,2,0.4524,0.5358,0.4963,-0.5118,0.0775,0.1256,0.0079,0.1773,0.0601,-0.0745,9.7006,0.8537,0.1895,0.0010,0.0016,0.0001,1.0000,0.2425,0.0214,0.0044
860,Left,2,0.2020,0.0341,-0.9750,-0.0865,0.0030,0.0086,0.0017,0.0369,0.0406,-0.0313,-3.8212,-1.0381,8.9442,0.0000,0.0001,0.0000,1.0000,-0.0955,-0.0260,0.2236
860,Right,2,0.1581,-0.1695,-0.9345,-0.2701,0.0068,0.0042,-0.0001,0.0367,0.1955,-0.0611,-3.7149,2.0801,8.7753,0.0001,0.0001,-0.0000,1.0000,-0.0929,0.0520,0.2194
860,Pelvis,2,0.4520,0.5349,0.4970,-0.5124,-0.0227,0.1081,0.0105,0.2881,0.0387,-0.0912,9.6769,0.9569,0.1834,-0.0003,0.0014,0.0001,1.0000,0.2419,0.0240,0.0043
861,Left,2,0.2021,0.0342,-0.9749,-0.0864,0.0042,0.0086,-0.0001,-0.0026,0.0328,-0.0166,-3.7944,-1.0264,8.9729,0.0001,0.0001,-0.0000,1.0000,-0.0948,-0.0257,0.2243
861,Right,2,0.1581,-0.1694,-0.9345,-0.2702,0.0068,0.0029,-0.0025,0.0299,0.1937,-0.0736,-3.7058,2.0808,8.7650,0.0001,0.0000,-0.0000,1.0000,-0.0926,0.0520,0.2191
861,Pelvis,2,0.4523,0.5338,0.4979,-0.5123,-0.0892,0.0679,0.0042,0.2540,0.1204,0.1212,9.8887,0.9419,0.2937,-0.0011,0.0008,0.0001,1.0000,0.2472,0.0236,0.0071
862,Left,2,0.2022,0.0342,-0.9749,-0.0863,0.0018,0.0061,-0.0025,0.0119,0.0400,-0.0207,-3.8055,-1.0359,8.9627,0.0000,0.0001,-0.0000,1.0000,-0.0951,-0.0259,0.2241
862,Right,2,0.1581,-0.1693,-0.9345,-0.2702,0.0079,0.0012,0.0012,0.0345,0.1898,-0.0610,-3.7162,2.0830,8.7741,0.0001,0.0000,0.0000,1.0000,-0.0929,0.0521,0.2194
862,Pelvis,2,0.4527,0.5332,0.4986,-0.5121,-0.0689,0.0312,-0.0066,0.2307,0.0765,0.2046,9.9745,0.9186,0.2669,-0.0009,0.0004,-0.0001,1.0000,0.2494,0.0229,0.0066
863,Left,2,0.2022,0.0343,-0.9749,-0.0864,0.0031,0.0066,-0.0062,-0.0019,0.0424,-0.0370,-3.7872,-1.0359,8.9527,0.0000,0.0001,-0.0001,1.0000,-0.0947,-0.0259,0.2238
863,Right,2,0.1581,-0.1694,-0.9345,-0.2704,0.0110,0.0036,0.0030,-0.0005,0.1938,-0.0829,-3.6773,2.0939,8.7635,0.0001,0.0000,0.0000,1.0000,-0.0919,0.0523,0.2191
863,Pelvis,2,0.4534,0.5327,0.4992,-0.5113,-0.0946,-0.0132,-0.0146,0.4292,0.2366,0.0565,9.8091,1.1210,0.4074,-0.0012,-0.0002,-0.0002,1.0000,0.2452,0.0280,0.0102
864,Left,2,0.2023,0.0344,-0.9749,-0.0865,0.0025,0.0048,-0.0068,0.0197,0.0506,-0.0590,-3.7975,-1.0466,8.9231,0.0000,0.0001,-0.0001,1.0000,-0.0949,-0.0262,0.2231
864,Right,2,0.1580,-0.1694,-0.9344,-0.2706,0.0128,-0.0031,0.0026,0.0271,0.1941,-0.0878,-3.6970,2.0771,8.7539,0.0002,-0.0000,0.0000,1.0000,-0.0924,0.0519,0.2189
864,Pelvis,2,0.4540,0.5320,0.5003,-0.5105,-0.1232,0.0152,-0.0327,-0.0314,-0.0718,-0.3228,9.4694,0.6134,0.1360,-0.0015,0.0002,-0.0004,1.0000,0.2367,0.0152,0.0033
865,Left,2,0.2023,0.0343,-0.9749,-0.0865,0.0074,0.0036,-0.0067,0.0189,0.0556,-0.0272,-3.8084,-1.0551,8.9522,0.0001,0.0000,-0.0001,1.0000,-0.0952,-0.0264,0.2238
865,Right,2,0.1579,-0.1694,-0.9344,-0.2706,0.0122,-0.0031,0.0014,0.0368,0.1981,-0.0769,-3.7062,2.0709,8.7637,0.0002,-0.0000,0.0000,1.0000,-0.0927,0.0517,0.2191
865,Pelvis,2,0.4547,0.5307,0.5018,-0.5097,-0.1640,0.0486,-0.0141,0.1655,-0.0263,0.0432,9.8196,0.8421,0.1811,-0.0020,0.0006,-0.0002,1.0000,0.2455,0.0210,0.0043
866,Left,2,0.2022,0.0344,-0.9749,-0.0865,0.0086,0.0018,-0.0055,-0.0032,0.0472,-0.0268,-3.7896,-1.0437,8.9619,0.0001,0.0000,-0.0001,1.0000,-0.0947,-0.0261,0.2240
866,Right,2,0.1579,-0.1693,-0.9344,-0.2706,0.0122,-0.0037,0.0044,-0.0062,0.1887,-0.0739,-3.6756,2.1031,8.7719,0.0002,-0.0000,0.0001,1.0000,-0.0919,0.0525,0.2193
866,Pelvis,2,0.4555,0.5296,0.5032,-0.5087,-0.1642,0.0231,-0.0304,0.0880,0.0711,-0.1985,9.5804,0.7597,0.2900,-0.0021,0.0003,-0.0004,1.0000,0.2395,0.0189,0.0071
867,Left,2,0.2021,0.0344,-0.9749,-0.0864,0.0061,0.0042,-0.0055,-0.0097,0.0475,-0.0304,-3.7803,-1.0425,8.9620,0.0001,0.0001,-0.0001,1.0000,-0.0945,-0.0261,0.2241
867,Right,2,0.1577,-0.1693,-0.9345,-0.2706,0.0128,-0.0031,0.0038,0.0182,0.2047,-0.0753,-3.6849,2.0771,8.7730,0.0002,-0.0000,0.0000,1.0000,-0.0921,0.0519,0.2193
867,Pelvis,2,0.4566,0.5285,0.5046,-0.5076,-0.1804,0.0108,-0.0204,0.0406,-0.0589,0.1099,9.8946,0.7277,0.1778,-0.0023,0.0001,-0.0003,1.0000,0.2474,0.0181,0.0044
868,Left,2,0.2022,0.0345,-0.9749,-0.0863,0.0018,0.0085,-0.0050,-0.0088,0.0590,-0.0508,-3.7715,-1.0524,8.9424,0.0000,0.0001,-0.0001,1.0000,-0.0943,-0.0263,0.2236
868,Right,2,0.1578,-0.1693,-0.9345,-0.2705,0.0116,0.0018,0.0012,-0.0122,0.2078,-0.0847,-3.6552,2.0893,8.7722,0.0001,0.0000,0.0000,1.0000,-0.0914,0.0522,0.2193
868,Pelvis,2,0.4575,0.5273,0.5060,-0.5065,-0.1739,0.0267,-0.0235,-0.0664,0.0257,0.1265,9.9154,0.6319,0.2770,-0.0022,0.0003,-0.0003,1.0000,0.2479,0.0157,0.0068
869,Left,2,0.2022,0.0345,-0.9749,-0.0864,0.0012,0.0109,-0.0032,0.0020,0.0563,-0.0471,-3.7833,-1.0525,8.9414,0.0000,0.0001,-0.0000,1.0000,-0.0946,-0.0263,0.2235
869,Right,2,0.1577,-0.1693,-0.9345,-0.2706,0.0098,0.0024,0.0024,0.0102,0.1764,-0.0895,-3.6845,2.1010,8.7511,0.0001,0.0000,0.0000,1.0000,-0.0921,0.0525,0.2188
869,Pelvis,2,0.4583,0.5266,0.5071,-0.5055,-0.1357,-0.0030,-0.0288,-0.1171,0.0386,-0.0513,9.7408,0.5741,0.2932,-0.0017,-0.0000,-0.0004,1.0000,0.2435,0.0143,0.0073
870,Left,2,0.2023,0.0345,-0.9749,-0.0864,0.0012,0.0103,-0.0044,0.0056,0.0430,-0.0357,-3.7956,-1.0426,8.9497,0.0000,0.0001,-0.0001,1.0000,-0.0949,-0.0261,0.2238
870,Right,2,0.1578,-0.1692,-0.9345,-0.2706,0.0086,0.0018,0.0018,0.0167,0.1928,-0.0840,-3.6853,2.0842,8.7613,0.0001,0.0000,0.0000,1.0000,-0.0921,0.0521,0.2190
870,Pelvis,2,0.4590,0.5260,0.5079,-0.5046,-0.1164,-0.0060,-0.0253,-0.1469,-0.0483,-0.0921,9.7046,0.5404,0.2069,-0.0015,-0.0001,-0.0003,1.0000,0.2426,0.0134,0.0052
871,Left,2,0.2023,0.0346,-0.9749,-0.0864,0.0013,-0.0037,-0.0018,0.0316,0.0398,-0.0463,-3.8154,-1.0434,8.9296,0.0000,-0.0000,-0.0000,1.0000,-0.0954,-0.0261,0.2232
871,Right,2,0.1578,-0.1692,-0.9345,-0.2706,0.0067,0.0006,0.0012,0.0098,0.1911,-0.0965,-3.6756,2.0854,8.7511,0.0001,0.0000,0.0000,1.0000,-0.0919,0.0521,0.2188
871,Pelvis,2,0.4597,0.5256,0.5085,-0.5038,-0.0930,-0.0199,-0.0180,-0.2162,-0.1137,-0.1237,9.6797,0.4687,0.1424,-0.0012,-0.0002,-0.0002,1.0000,0.2420,0.0117,0.0036
872,Left,2,0.2022,0.0346,-0.9749,-0.0864,0.0073,0.0037,-0.0006,0.0051,0.0499,-0.0255,-3.7963,-1.0513,8.9596,0.0001,0.0000,-0.0000,1.0000,-0.0949,-0.0263,0.2240
872,Right,2,0.1577,-0.1691,-0.9345,-0.2706,0.0061,-0.0000,0.0019,0.0201,0.1951,-0.0856,-3.6856,2.0778,8.7609,0.0001,-0.0000,0.0000,1.0000,-0.0921,0.0519,0.2190
872,Pelvis,2,0.4603,0.5254,0.5089,-0.5031,-0.0637,-0.0257,-0.0155,-0.2287,-0.1389,-0.0678,9.7370,0.4614,0.1136,-0.0008,-0.0003,-0.0002,1.0000,0.2434,0.0115,0.0029
873,Left,2,0.2023,0.0345,-0.9749,-0.0864,0.0085,0.0019,0.0013,0.0078,0.0496,-0.0345,-3.7968,-1.0498,8.9498,0.0001,0.0000,0.0000,1.0000,-0.0949,-0.0263,0.2237
873,Right,2,0.1578,-0.1690,-0.9345,-0.2706,0.0091,0.0000,0.0037,0.0074,0.2004,-0.0804,-3.6758,2.0801,8.7704,0.0001,0.0000,0.0000,1.0000,-0.0919,0.0520,0.2193
873,Pelvis,2,0.4606,0.5253,0.5090,-0.5027,-0.0345,-0.0156,-0.0081,-0.2579,-0.0733,0.0151,9.8198,0.4436,0.1772,-0.0004,-0.0002,-0.0001,1.0000,0.2455,0.0111,0.0045
874,Left,2,0.2023,0.0344,-0.9749,-0.0864,0.0079,0.0037,0.0018,-0.0015,0.0405,-0.0393,-3.7877,-1.0379,8.9496,0.0001,0.0000,0.0000,1.0000,-0.0947,-0.0260,0.2237
874,Right,2,0.1578,-0.1690,-0.9345,-0.2706,0.0104,0.0031,0.0061,0.0088,0.1941,-0.0892,-3.6758,2.0822,8.7600,0.0001,0.0000,0.0001,1.0000,-0.0919,0.0520,0.2190
874,Pelvis,2,0.4608,0.5254,0.5090,-0.5025,-0.0022,-0.0148,-0.0035,-0.2973,0.0099,0.0747,9.8798,0.4134,0.2593,-0.0000,-0.0002,-0.0000,1.0000,0.2470,0.0103,0.0065
875,Left,2,0.2024,0.0345,-0.9749,-0.0863,0.0073,0.0037,0.0024,-0.0041,0.0574,-0.0279,-3.7886,-1.0553,8.9598,0.0001,0.0000,0.0000,1.0000,-0.0947,-0.0264,0.2240
875,Right,2,0.1578,-0.1690,-0.9345,-0.2706,0.0098,0.0038,0.0067,0.0058,0.1672,-0.0909,-3.6855,2.1041,8.7482,0.0001,0.0000,0.0001,1.0000,-0.0921,0.0526,0.2187
875,Pelvis,2,0.4608,0.5257,0.5085,-0.5027,0.0423,-0.0191,0.0027,-0.2923,-0.0255,0.0412,9.8472,0.4127,0.2173,0.0005,-0.0002,0.0000,1.0000,0.2462,0.0103,0.0055
876,Left,2,0.2024,0.0345,-0.9749,-0.0862,0.0067,0.0056,0.0030,-0.0139,0.0356,-0.0124,-3.7902,-1.0333,8.9785,0.0001,0.0001,0.0000,1.0000,-0.0947,-0.0259,0.2245
876,Right,2,0.1579,-0.1689,-0.9345,-0.2705,0.0079,0.0037,0.0054,0.0221,0.1936,-0.0656,-3.6966,2.0791,8.7781,0.0001,0.0000,0.0001,1.0000,-0.0924,0.0519,0.2195
876,Pelvis,2,0.4604,0.5264,0.5078,-0.5031,0.0887,-0.0136,0.0026,-0.2636,-0.0441,-0.0024,9.8024,0.4355,0.1902,0.0011,-0.0002,0.0000,1.0000,0.2451,0.0109,0.0048
877,Left,2,0.2026,0.0344,-0.9749,-0.0863,0.0054,0.0086,0.0036,0.0169,0.0366,-0.0626,-3.8007,-1.0335,8.9192,0.0001,0.0001,0.0000,1.0000,-0.0950,-0.0259,0.2230
877,Right,2,0.1579,-0.1689,-0.9345,-0.2706,0.0080,0.0050,0.0054,0.0011,0.1977,-0.0944,-3.6678,2.0798,8.7581,0.0001,0.0001,0.0001,1.0000,-0.0917,0.0520,0.2190
877,Pelvis,2,0.4597,0.5271,0.5069,-0.5039,0.1311,0.0002,0.0075,-0.2020,0.0414,0.0060,9.8044,0.5004,0.2677,0.0016,0.0000,0.0001,1.0000,0.2451,0.0125,0.0067
878,Left,2,0.2027,0.0344,-0.9748,-0.0864,0.0067,0.0074,0.0036,0.0098,0.0438,-0.0434,-3.8028,-1.0410,8.9385,0.0001,0.0001,0.0000,1.0000,-0.0950,-0.0260,0.2235
878,Right,2,0.1580,-0.1689,-0.9345,-0.2706,0.0079,0.0038,0.0060,0.0275,0.1890,-0.0849,-3.6979,2.0728,8.7575,0.0001,0.0000,0.0001,1.0000,-0.0924,0.0518,0.2189
878,Pelvis,2,0.4589,0.5281,0.5057,-0.5048,0.1581,-0.0007,0.0088,-0.1454,0.0792,-0.0196,9.7742,0.5550,0.2981,0.0020,-0.0000,0.0001,1.0000,0.2444,0.0139,0.0075
879,Left,2,0.2026,0.0343,-0.9748,-0.0863,0.0091,0.0031,0.0025,0.0216,0.0500,-0.0385,-3.8138,-1.0488,8.9383,0.0001,0.0000,0.0000,1.0000,-0.0953,-0.0262,0.2235
879,Right,2,0.1580,-0.1688,-0.9345,-0.2707,0.0061,0.0013,0.0043,0.0142,0.1735,-0.0726,-3.6980,2.0949,8.7656,0.0001,0.0000,0.0001,1.0000,-0.0924,0.0524,0.2191
879,Pelvis,2,0.4580,0.5291,0.5044,-0.5058,0.1688,-0.0057,0.0118,-0.0816,0.0677,-0.0445,9.7455,0.6132,0.2775,0.0021,-0.0001,0.0001,1.0000,0.2436,0.0154,0.0070
880,Left,2,0.2025,0.0343,-0.9749,-0.0859,0.0091,-0.0005,0.0025,0.0002,0.0417,-0.0381,-3.7948,-1.0363,8.9482,0.0001,-0.0000,0.0000,1.0000,-0.0949,-0.0259,0.2237
880,Right,2,0.1580,-0.1687,-0.9346,-0.2705,0.0049,0.0013,0.0043,0.0141,0.2032,-0.0851,-3.6791,2.0669,8.7670,0.0001,0.0000,0.0001,1.0000,-0.0920,0.0517,0.2192
880,Pelvis,2,0.4572,0.5301,0.5031,-0.5068,0.1660,-0.0127,0.0183,-0.0366,0.0709,-0.0705,9.7169,0.6523,0.2709,0.0021,-0.0002,0.0002,1.0000,0.2429,0.0163,0.0068
881,Left,2,0.2024,0.0343,-0.9749,-0.0858,0.0116,-0.0048,0.0051,-0.0066,0.0393,-0.0201,-3.7947,-1.0330,8.9682,0.0001,-0.0001,0.0001,1.0000,-0.0949,-0.0259,0.2242
881,Right,2,0.1580,-0.1686,-0.9346,-0.2704,0.0085,0.0019,0.0061,0.0109,0.1946,-0.0618,-3.6889,2.0798,8.7854,0.0001,0.0000,0.0001,1.0000,-0.0922,0.0520,0.2196
881,Pelvis,2,0.4565,0.5311,0.5017,-0.5078,0.1629,-0.0162,0.0279,0.0264,0.0312,-0.0220,9.7626,0.7092,0.2201,0.0020,-0.0002,0.0003,1.0000,0.2441,0.0178,0.0056
882,Left,2,0.2023,0.0342,-0.9750,-0.0858,0.0116,-0.0054,0.0026,0.0040,0.0457,-0.0152,-3.8033,-1.0399,8.9692,0.0001,-0.0001,0.0000,1.0000,-0.0951,-0.0260,0.2242
882,Right,2,0.1579,-0.1686,-0.9346,-0.2704,0.0116,0.0019,0.0067,0.0042,0.2017,-0.0886,-3.6695,2.0714,8.7660,0.0001,0.0000,0.0001,1.0000,-0.0917,0.0517,0.2192
883,Left,2,0.2023,0.0341,-0.9749,-0.0859,0.0085,0.0001,0.0025,-0.0234,0.0497,-0.0262,-3.7735,-1.0371,8.9702,0.0001,0.0000,0.0000,1.0000,-0.0943,-0.0260,0.2243
883,Right,2,0.1580,-0.1687,-0.9346,-0.2705,0.0134,0.0056,0.0072,0.0022,0.1898,-0.0743,-3.6796,2.0853,8.7741,0.0002,0.0001,0.0001,1.0000,-0.0920,0.0521,0.2194
883,Pelvis,2,0.4551,0.5325,0.4993,-0.5100,0.1470,0.0055,0.0308,0.0873,0.0662,0.0655,9.8459,0.7675,0.2458,0.0037,0.0001,0.0008,1.0000,0.4923,0.0387,0.0124
884,Left,2,0.2023,0.0341,-0.9750,-0.0857,0.0073,0.0019,0.0025,-0.0090,0.0567,-0.0302,-3.7833,-1.0453,8.9607,0.0001,0.0000,0.0000,1.0000,-0.0946,-0.0262,0.2240
884,Right,2,0.1580,-0.1687,-0.9346,-0.2704,0.0116,0.0061,0.0054,-0.0009,0.1900,-0.0654,-3.6807,2.0892,8.7826,0.0001,0.0001,0.0001,1.0000,-0.0920,0.0522,0.2196
885,Left,2,0.2023,0.0341,-0.9750,-0.0857,0.0079,0.0049,0.0012,-0.0104,0.0364,-0.0327,-3.7843,-1.0239,8.9599,0.0001,0.0001,0.0000,1.0000,-0.0946,-0.0256,0.2240
885,Right,2,0.1580,-0.1687,-0.9346,-0.2703,0.0128,0.0068,0.0072,0.0246,0.2027,-0.0755,-3.6920,2.0628,8.7732,0.0002,0.0001,0.0001,1.0000,-0.0923,0.0515,0.2193
885,Pelvis,2,0.4533,0.5332,0.4978,-0.5122,0.1218,0.0438,0.0140,0.1629,0.1569,0.0404,9.8145,0.8369,0.3337,0.0030,0.0011,0.0003,1.0000,0.4907,0.0420,0.0163
886,Left,2,0.2024,0.0342,-0.9750,-0.0856,0.0042,0.0098,-0.0001,0.0033,0.0433,-0.0368,-3.7955,-1.0326,8.9498,0.0001,0.0001,-0.0000,1.0000,-0.0949,-0.0258,0.2238
886,Right,2,0.1581,-0.1687,-0.9346,-0.2704,0.0116,0.0049,0.0048,0.0145,0.1803,-0.0810,-3.6925,2.0850,8.7611,0.0001,0.0001,0.0001,1.0000,-0.0923,0.0521,0.2190
886,Pelvis,2,0.4526,0.5337,0.4971,-0.5130,0.1116,0.0270,0.0088,0.2396,0.1567,-0.0518,9.7177,0.9014,0.3329,0.0014,0.0003,0.0001,1.0000,0.2429,0.0225,0.0083
887,Left,2,0.2024,0.0342,-0.9750,-0.0855,0.0037,0.0061,-0.0019,-0.0026,0.0503,-0.0176,-3.7975,-1.0410,8.9690,0.0000,0.0001,-0.0000,1.0000,-0.0949,-0.0260,0.2242
887,Right,2,0.1581,-0.1687,-0.9346,-0.2703,0.0104,0.0043,0.0036,0.0021,0.1705,-0.0918,-3.6832,2.0968,8.7500,0.0001,0.0001,0.0000,1.0000,-0.0921,0.0524,0.2188
887,Pelvis,2,0.4518,0.5343,0.4964,-0.5139,0.1163,0.0215,0.0051,0.2480,0.1004,-0.0737,9.6969,0.9006,0.2780,0.0015,0.0003,0.0001,1.0000,0.2424,0.0225,0.0069
888,Left,2,0.2025,0.0342,-0.9750,-0.0855,0.0030,0.0043,-0.0013,0.0091,0.0386,-0.0242,-3.8083,-1.0310,8.9583,0.0000,0.0001,-0.0000,1.0000,-0.0952,-0.0258,0.2240
888,Right,2,0.1581,-0.1686,-0.9346,-0.2703,0.0104,0.0031,0.0049,0.0020,0.1822,-0.0757,-3.6842,2.0908,8.7691,0.0001,0.0000,0.0001,1.0000,-0.0921,0.0522,0.2192
888,Pelvis,2,0.4511,0.5349,0.4956,-0.5146,0.1144,0.0038,0.0027,0.2543,0.0967,-0.0509,9.7195,0.9066,0.2737,0.0014,0.0000,0.0000,1.0000,0.2430,0.0227,0.0069
889,Left,2,0.2024,0.0342,-0.9750,-0.0856,0.0018,0.0042,-0.0037,-0.0062,0.0410,-0.0314,-3.7896,-1.0305,8.9583,0.0000,0.0001,-0.0000,1.0000,-0.0947,-0.0258,0.2240
889,Right,2,0.1580,-0.1686,-0.9346,-0.2705,0.0061,0.0018,0.0024,0.0024,0.1884,-0.0899,-3.6748,2.0825,8.7594,0.0001,0.0000,0.0000,1.0000,-0.0919,0.0520,0.2190
890,Left,2,0.2024,0.0343,-0.9750,-0.0855,0.0025,0.0066,-0.0062,-0.0005,0.0374,-0.0188,-3.8006,-1.0303,8.9674,0.0000,0.0001,-0.0001,1.0000,-0.0950,-0.0258,0.2242
890,Right,2,0.1580,-0.1685,-0.9346,-0.2704,0.0055,-0.0012,0.0019,0.0164,0.1760,-0.0824,-3.6943,2.0843,8.7588,0.0001,-0.0000,0.0000,1.0000,-0.0924,0.0521,0.2190
890,Pelvis,2,0.4499,0.5363,0.4940,-0.5156,0.1045,-0.0069,-0.0034,0.2265,0.0895,-0.0524,9.7202,0.8785,0.2639,0.0026,-0.0002,-0.0001,1.0000,0.4860,0.0439,0.0134
891,Left,2,0.2025,0.0344,-0.9749,-0.0855,0.0006,0.0115,-0.0057,-0.0033,0.0452,-0.0086,-3.8026,-1.0399,8.9767,0.0000,0.0001,-0.0001,1.0000,-0.0950,-0.0260,0.2244
891,Right,2,0.1580,-0.1684,-0.9347,-0.2704,0.0054,-0.0043,0.0026,0.0127,0.1855,-0.0877,-3.6840,2.0758,8.7595,0.0001,-0.0001,0.0000,1.0000,-0.0921,0.0519,0.2190
891,Pelvis,2,0.4493,0.5373,0.4932,-0.5159,0.1125,-0.0259,-0.0210,0.0289,0.0585,-0.0622,9.7239,0.6809,0.2448,0.0014,-0.0003,-0.0003,1.0000,0.2431,0.0169,0.0062
892,Left,2,0.2026,0.0344,-0.9749,-0.0856,0.0000,0.0109,-0.0075,-0.0077,0.0464,-0.0212,-3.7950,-1.0407,8.9661,0.0000,0.0001,-0.0001,1.0000,-0.0948,-0.0260,0.2242
892,Right,2,0.1579,-0.1682,-0.9347,-0.2704,0.0030,-0.0036,0.0032,-0.0016,0.1791,-0.0897,-3.6731,2.0865,8.7592,0.0000,-0.0000,0.0000,1.0000,-0.0918,0.0522,0.2190
893,Left,2,0.2027,0.0345,-0.9749,-0.0858,0.0000,0.0072,-0.0074,0.0113,0.0513,-0.0126,-3.8163,-1.0514,8.9652,0.0000,0.0001,-0.0001,1.0000,-0.0954,-0.0263,0.2241
893,Right,2,0.1579,-0.1681,-0.9347,-0.2704,0.0054,-0.0030,0.0044,0.0036,0.1987,-0.0752,-3.6728,2.0694,8.7799,0.0001,-0.0000,0.0001,1.0000,-0.0918,0.0517,0.2195
893,Pelvis,2,0.4474,0.5397,0.4914,-0.5167,0.1384,-0.0294,-0.0347,-0.0322,0.0620,0.0025,9.7918,0.6360,0.2421,0.0035,-0.0007,-0.0009,1.0000,0.4896,0.0313,0.0126
894,Left,2,0.2027,0.0346,-0.9749,-0.0859,0.0013,0.0017,-0.0067,0.0177,0.0416,-0.0318,-3.8168,-1.0428,8.9449,0.0000,0.0000,-0.0001,1.0000,-0.0954,-0.0261,0.2236
894,Right,2,0.1578,-0.1680,-0.9347,-0.2705,0.0048,-0.0054,0.0045,0.0068,0.1887,-0.0929,-3.6714,2.0698,8.7605,0.0001,-0.0001,0.0001,1.0000,-0.0918,0.0517,0.2190
894,Pelvis,2,0.4465,0.5410,0.4904,-0.5171,0.1525,-0.0335,-0.0371,0.0217,0.0424,-0.0344,9.7516,0.6960,0.1995,0.0019,-0.0004,-0.0005,1.0000,0.2438,0.0173,0.0051
895,Left,2,0.2027,0.0346,-0.9748,-0.0862,0.0007,0.0005,-0.0073,-0.0074,0.0425,-0.0212,-3.7977,-1.0424,8.9647,0.0000,0.0000,-0.0001,1.0000,-0.0949,-0.0261,0.2241
895,Right,2,0.1577,-0.1680,-0.9347,-0.2707,0.0048,-0.0035,0.0056,0.0036,0.1801,-0.0697,-3.6799,2.0824,8.7795,0.0001,-0.0000,0.0001,1.0000,-0.0920,0.0520,0.2195
895,Pelvis,2,0.4456,0.5423,0.4894,-0.5175,0.1557,-0.0358,-0.0277,0.0337,0.0250,-0.0280,9.7572,0.7140,0.1695,0.0019,-0.0004,-0.0003,1.0000,0.2439,0.0178,0.0044
896,Left,2,0.2028,0.0347,-0.9748,-0.0862,0.0031,0.0054,-0.0074,0.0078,0.0313,-0.0367,-3.8077,-1.0337,8.9445,0.0000,0.0001,-0.0001,1.0000,-0.0952,-0.0258,0.2236
896,Right,2,0.1577,-0.1678,-0.9347,-0.2707,0.0060,-0.0047,0.0069,0.0213,0.1702,-0.0943,-3.6884,2.0729,8.7508,0.0001,-0.0001,0.0001,1.0000,-0.0922,0.0518,0.2188
896,Pelvis,2,0.4446,0.5438,0.4881,-0.5180,0.1617,-0.0367,-0.0280,0.0280,0.0314,-0.0171,9.7681,0.7161,0.1638,0.0020,-0.0005,-0.0003,1.0000,0.2442,0.0178,0.0042
897,Left,2,0.2027,0.0347,-0.9748,-0.0863,0.0001,-0.0007,-0.0061,-0.0043,0.0436,-0.0517,-3.7882,-1.0438,8.9352,0.0000,-0.0000,-0.0001,1.0000,-0.0947,-0.0261,0.2234
897,Right,2,0.1576,-0.1677,-0.9347,-0.2707,0.0036,-0.0048,0.0044,-0.0085,0.1730,-0.1037,-3.6575,2.0837,8.7508,0.0000,-0.0001,0.0001,1.0000,-0.0915,0.0521,0.2188
897,Pelvis,2,0.4437,0.5451,0.4869,-0.5186,0.1636,-0.0352,-0.0254,0.0308,0.0042,0.0057,9.7910,0.7230,0.1240,0.0020,-0.0004,-0.0003,1.0000,0.2448,0.0180,0.0032
898,Left,2,0.2026,0.0348,-0.9748,-0.0864,-0.0005,0.0017,-0.0074,0.0043,0.0498,-0.0378,-3.7980,-1.0541,8.9451,-0.0000,0.0000,-0.0001,1.0000,-0.0949,-0.0263,0.2236
898,Right,2,0.1575,-0.1676,-0.9348,-0.2707,0.0066,-0.0048,0.0069,0.0187,0.1912,-0.0833,-3.6765,2.0576,8.7719,0.0001,-0.0001,0.0001,1.0000,-0.0919,0.0514,0.2193
898,Pelvis,2,0.4427,0.5464,0.4857,-0.5192,0.1616,-0.0252,-0.0216,0.0711,0.0362,0.0074,9.7890,0.7722,0.1388,0.0020,-0.0003,-0.0003,1.0000,0.2447,0.0192,0.0036
899,Left,2,0.2027,0.0349,-0.9748,-0.0864,-0.0006,0.0066,-0.0050,-0.0018,0.0415,-0.0517,-3.7889,-1.0453,8.9347,-0.0000,0.0001,-0.0001,1.0000,-0.0947,-0.0261,0.2234
899,Right,2,0.1575,-0.1676,-0.9348,-0.2706,0.0073,-0.0023,0.0062,0.0092,0.1927,-0.0870,-3.6657,2.0595,8.7720,0.0001,-0.0000,0.0001,1.0000,-0.0917,0.0515,0.2193
899,Pelvis,2,0.4418,0.5475,0.4847,-0.5197,0.1528,-0.0194,-0.0172,0.1446,0.1039,0.0217,9.7967,0.8582,0.1865,0.0019,-0.0002,-0.0002,1.0000,0.2449,0.0214,0.0048
900,Left,2,0.2027,0.0350,-0.9748,-0.0865,-0.0006,0.0036,-0.0062,-0.0078,0.0483,-0.0325,-3.7902,-1.0550,8.9541,-0.0000,0.0000,-0.0001,1.0000,-0.0947,-0.0264,0.2239
900,Right,2,0.1574,-0.1675,-0.9348,-0.2707,0.0060,-0.0030,0.0050,0.0007,0.1850,-0.0764,-3.6647,2.0718,8.7811,0.0001,-0.0000,0.0001,1.0000,-0.0916,0.0518,0.2195
900,Pelvis,2,0.4410,0.5484,0.4837,-0.5203,0.1450,-0.0174,-0.0111,0.1568,0.1832,0.0272,9.7997,0.8845,0.2555,0.0018,-0.0002,-0.0001,1.0000,0.2450,0.0221,0.0065
901,Left,2,0.2027,0.0351,-0.9748,-0.0864,0.0012,0.0055,-0.0025,-0.0200,0.0605,-0.0475,-3.7713,-1.0653,8.9446,0.0000,0.0001,-0.0000,1.0000,-0.0943,-0.0266,0.2236
901,Right,2,0.1573,-0.1674,-0.9349,-0.2707,0.0079,-0.0024,0.0032,0.0072,0.1772,-0.0726,-3.6736,2.0739,8.7808,0.0001,-0.0000,0.0000,1.0000,-0.0918,0.0518,0.2195
901,Pelvis,2,0.4403,0.5493,0.4827,-0.5210,0.1240,-0.0117,-0.0067,0.1904,0.1684,0.0458,9.8163,0.9177,0.2282,0.0015,-0.0001,-0.0001,1.0000,0.2454,0.0229,0.0058
902,Left,2,0.2028,0.0351,-0.9748,-0.0864,0.0012,0.0079,-0.0044,-0.0023,0.0431,-0.0199,-3.8025,-1.0552,8.9626,0.0000,0.0001,-0.0001,1.0000,-0.0950,-0.0264,0.2241
902,Right,2,0.1573,-0.1673,-0.9349,-0.2707,0.0079,0.0001,0.0061,0.0203,0.2010,-0.0686,-3.6739,2.0474,8.7920,0.0001,0.0000,0.0001,1.0000,-0.0919,0.0512,0.2198
902,Pelvis,2,0.4399,0.5496,0.4823,-0.5214,0.0896,0.0094,-0.0046,0.2307,0.1108,0.1044,9.8732,0.9529,0.1634,0.0011,0.0001,-0.0001,1.0000,0.2468,0.0238,0.0041
903,Left,2,0.2029,0.0352,-0.9747,-0.0866,-0.0036,0.0072,-0.0056,-0.0118,0.0467,-0.0451,-3.7841,-1.0564,8.9427,-0.0000,0.0001,-0.0001,1.0000,-0.0946,-0.0264,0.2236
903,Right,2,0.1573,-0.1673,-0.9348,-0.2708,0.0122,0.0013,0.0055,0.0179,0.1834,-0.0847,-3.6733,2.0588,8.7714,0.0002,0.0000,0.0001,1.0000,-0.0918,0.0514,0.2193
903,Pelvis,2,0.4396,0.5495,0.4821,-0.5219,0.0554,0.0270,0.0024,0.2477,0.0918,0.0600,9.8283,0.9610,0.1459,0.0007,0.0003,0.0000,1.0000,0.2457,0.0240,0.0036
904,Left,2,0.2029,0.0353,-0.9747,-0.0865,0.0006,0.0067,-0.0038,0.0085,0.0609,-0.0353,-3.8049,-1.0769,8.9423,0.0000,0.0001,-0.0000,1.0000,-0.0951,-0.0269,0.2236
904,Right,2,0.1573,-0.1673,-0.9349,-0.2708,0.0128,0.0007,0.0062,0.0133,0.1688,-0.0919,-3.6729,2.0712,8.7603,0.0002,0.0000,0.0001,1.0000,-0.0918,0.0517,0.2190
904,Pelvis,2,0.4391,0.5497,0.4816,-0.5225,0.0252,0.0207,0.0036,0.2241,0.1095,-0.0600,9.7102,0.9278,0.1692,0.0003,0.0003,0.0000,1.0000,0.2428,0.0232,0.0042
905,Left,2,0.2030,0.0354,-0.9747,-0.0865,0.0031,0.0042,-0.0043,0.0147,0.0387,-0.0342,-3.8159,-1.0574,8.9410,0.0000,0.0001,-0.0001,1.0000,-0.0954,-0.0264,0.2235
905,Right,2,0.1573,-0.1673,-0.9349,-0.2707,0.0134,0.0024,0.0037,0.0072,0.1816,-0.0882,-3.6635,2.0652,8.7699,0.0002,0.0000,0.0000,1.0000,-0.0916,0.0516,0.2193
905,Pelvis,2,0.4390,0.5498,0.4814,-0.5228,-0.0080,0.0135,0.0026,0.1954,0.1285,-0.0956,9.6765,0.8966,0.1936,-0.0001,0.0002,0.0000,1.0000,0.2419,0.0224,0.0048
906,Left,2,0.2030,0.0353,-0.9747,-0.0866,0.0055,0.0037,-0.0012,-0.0093,0.0492,-0.0222,-3.7975,-1.0657,8.9610,0.0001,0.0000,-0.0000,1.0000,-0.0949,-0.0267,0.2240
906,Right,2,0.1572,-0.1673,-0.9348,-0.2708,0.0134,-0.0000,0.0043,0.0038,0.1818,-0.0793,-3.6637,2.0691,8.7789,0.0002,-0.0000,0.0001,1.0000,-0.0916,0.0517,0.2195
906,Pelvis,2,0.4397,0.5492,0.4819,-0.5224,-0.0350,0.0027,0.0028,0.1805,0.1226,-0.0343,9.7390,0.8818,0.1939,-0.0004,0.0000,0.0000,1.0000,0.2435,0.0221,0.0048
907,Left,2,0.2030,0.0354,-0.9747,-0.0866,0.0061,0.0012,-0.0030,-0.0012,0.0493,-0.0402,-3.7976,-1.0652,8.9414,0.0001,0.0000,-0.0000,1.0000,-0.0949,-0.0266,0.2235
907,Right,2,0.1572,-0.1673,-0.9349,-0.2708,0.0134,-0.0006,0.0044,0.0100,0.1740,-0.0755,-3.6732,2.0726,8.7781,0.0002,-0.0000,0.0001,1.0000,-0.0918,0.0518,0.2195
907,Pelvis,2,0.4403,0.5487,0.4824,-0.5219,-0.0585,-0.0099,0.0027,0.1386,0.1202,-0.0250,9.7513,0.8393,0.1985,-0.0007,-0.0001,0.0000,1.0000,0.2438,0.0210,0.0050
908,Left,2,0.2030,0.0354,-0.9747,-0.0866,0.0079,0.0018,-0.0018,0.0063,0.0367,-0.0378,-3.8077,-1.0542,8.9409,0.0001,0.0000,-0.0000,1.0000,-0.0952,-0.0264,0.2235
908,Right,2,0.1572,-0.1673,-0.9349,-0.2707,0.0134,0.0006,0.0049,-0.0039,0.1822,-0.0614,-3.6634,2.0770,8.7970,0.0002,0.0000,0.0001,1.0000,-0.0916,0.0519,0.2199
908,Pelvis,2,0.4411,0.5482,0.4827,-0.5214,-0.0759,-0.0217,0.0043,0.0831,0.0962,-0.0333,9.7477,0.7760,0.1809,-0.0009,-0.0003,0.0001,1.0000,0.2437,0.0194,0.0046
909,Left,2,0.2029,0.0353,-0.9747,-0.0866,0.0092,-0.0006,-0.0011,0.0163,0.0337,-0.0341,-3.8176,-1.0525,8.9409,0.0001,-0.0000,-0.0000,1.0000,-0.0954,-0.0263,0.2235
909,Right,2,0.1571,-0.1673,-0.9349,-0.2708,0.0134,0.0018,0.0043,-0.0024,0.1756,-0.0702,-3.6633,2.0797,8.7864,0.0002,0.0000,0.0001,1.0000,-0.0916,0.0520,0.2197
909,Pelvis,2,0.4418,0.5479,0.4831,-0.5208,-0.0829,-0.0257,0.0064,0.0438,0.0746,-0.0124,9.7719,0.7339,0.1601,-0.0010,-0.0003,0.0001,1.0000,0.2443,0.0184,0.0041
910,Left,2,0.2029,0.0352,-0.9747,-0.0867,0.0098,-0.0006,-0.0017,-0.0008,0.0359,-0.0414,-3.7979,-1.0504,8.9416,0.0001,-0.0000,-0.0000,1.0000,-0.0949,-0.0263,0.2235
910,Right,2,0.1571,-0.1673,-0.9349,-0.2709,0.0159,0.0006,0.0056,0.0073,0.1883,-0.0734,-3.6637,2.0639,8.7868,0.0002,0.0000,0.0001,1.0000,-0.0916,0.0515,0.2197
910,Pelvis,2,0.4424,0.5476,0.4833,-0.5204,-0.0886,-0.0096,0.0100,0.1189,0.0864,0.0475,9.8266,0.8114,0.1567,-0.0011,-0.0001,0.0001,1.0000,0.2457,0.0203,0.0039
911,Left,2,0.2028,0.0352,-0.9747,-0.0867,0.0086,0.0012,-0.0018,0.0061,0.0417,-0.0275,-3.8078,-1.0580,8.9517,0.0001,0.0000,-0.0000,1.0000,-0.0952,-0.0265,0.2238
911,Right,2,0.1571,-0.1674,-0.9349,-0.2708,0.0177,0.0043,0.0061,0.0139,0.1896,-0.0838,-3.6641,2.0578,8.7765,0.0002,0.0001,0.0001,1.0000,-0.0916,0.0514,0.2194
911,Pelvis,2,0.4430,0.5471,0.4838,-0.5200,-0.1046,-0.0057,0.0156,0.1499,0.1313,0.0657,9.8419,0.8480,0.1955,-0.0013,-0.0001,0.0002,1.0000,0.2460,0.0213,0.0049
912,Left,2,0.2028,0.0352,-0.9748,-0.0866,0.0067,0.0006,-0.0024,0.0148,0.0416,-0.0455,-3.8076,-1.0572,8.9323,0.0001,0.0000,-0.0000,1.0000,-0.0952,-0.0264,0.2233
912,Right,2,0.1570,-0.1675,-0.9349,-0.2708,0.0196,0.0036,0.0055,0.0080,0.1783,-0.0821,-3.6644,2.0722,8.7746,0.0002,0.0000,0.0001,1.0000,-0.0916,0.0517,0.2194
912,Pelvis,2,0.4435,0.5467,0.4842,-0.5195,-0.1319,-0.0044,0.0165,0.1729,0.1568,-0.0066,9.7679,0.8693,0.2162,-0.0016,-0.0001,0.0002,1.0000,0.2442,0.0218,0.0054
913,Left,2,0.2027,0.0352,-0.9748,-0.0867,0.0086,0.0006,-0.0024,0.0087,0.0486,-0.0262,-3.8079,-1.0648,8.9523,0.0001,0.0000,-0.0000,1.0000,-0.0952,-0.0266,0.2238
913,Right,2,0.1570,-0.1676,-0.9349,-0.2708,0.0214,0.0037,0.0086,0.0065,0.1660,-0.0679,-3.6745,2.0879,8.7822,0.0003,0.0000,0.0001,1.0000,-0.0919,0.0521,0.2196
913,Pelvis,2,0.4442,0.5461,0.4849,-0.5189,-0.1659,-0.0030,0.0207,0.2336,0.1767,0.0077,9.7778,0.9316,0.2289,-0.0021,-0.0000,0.0003,1.0000,0.2444,0.0234,0.0057
914,Left,2,0.2027,0.0352,-0.9748,-0.0866,0.0086,-0.0018,-0.0029,-0.0003,0.0488,-0.0299,-3.7980,-1.0630,8.9528,0.0001,-0.0000,-0.0000,1.0000,-0.0950,-0.0266,0.2238
914,Right,2,0.1570,-0.1677,-0.9349,-0.2706,0.0244,0.0049,0.0085,0.0314,0.1691,-0.0636,-3.6950,2.0746,8.7816,0.0003,0.0001,0.0001,1.0000,-0.0924,0.0518,0.2196
914,Pelvis,2,0.4447,0.5456,0.4854,-0.5186,-0.2159,0.0016,0.0232,0.3148,0.1612,0.0348,9.7997,1.0111,0.2060,-0.0027,0.0000,0.0003,1.0000,0.2450,0.0254,0.0051
915,Left,2,0.2026,0.0352,-0.9748,-0.0866,0.0098,-0.0019,-0.0048,0.0128,0.0370,-0.0365,-3.8071,-1.0520,8.9429,0.0001,-0.0000,-0.0001,1.0000,-0.0952,-0.0263,0.2236
915,Right,2,0.1569,-0.1679,-0.9348,-0.2707,0.0244,0.0055,0.0079,0.0125,0.1639,-0.0783,-3.6758,2.0894,8.7698,0.0003,0.0001,0.0001,1.0000,-0.0919,0.0522,0.2193
915,Pelvis,2,0.4458,0.5443,0.4867,-0.5179,-0.2669,0.0051,0.0240,0.3287,0.1128,0.0135,9.7787,1.0122,0.1647,-0.0033,0.0001,0.0003,1.0000,0.2445,0.0254,0.0040
916,Left,2,0.2025,0.0352,-0.9748,-0.0865,0.0110,-0.0012,-0.0029,0.0070,0.0283,-0.0504,-3.7968,-1.0405,8.9334,0.0001,-0.0000,-0.0000,1.0000,-0.0949,-0.0260,0.2233
916,Right,2,0.1569,-0.1680,-0.9349,-0.2705,0.0263,0.0055,0.0091,0.0068,0.1765,-0.0746,-3.6672,2.0864,8.7784,0.0003,0.0001,0.0001,1.0000,-0.0917,0.0521,0.2195
916,Pelvis,2,0.4466,0.5431,0.4878,-0.5173,-0.3156,0.0167,0.0251,0.2636,0.1072,-0.0401,9.7297,0.9408,0.1776,-0.0039,0.0002,0.0003,1.0000,0.2432,0.0236,0.0043
917,Left,2,0.2024,0.0351,-0.9748,-0.0865,0.0135,-0.0024,-0.0017,-0.0027,0.0472,-0.0424,-3.7866,-1.0570,8.9445,0.0002,-0.0000,-0.0000,1.0000,-0.0947,-0.0265,0.2236
917,Right,2,0.1569,-0.1682,-0.9348,-0.2706,0.0263,0.0036,0.0061,-0.0040,0.1487,-0.1107,-3.6571,2.1096,8.7365,0.0003,0.0000,0.0001,1.0000,-0.0914,0.0527,0.2184
918,Left,2,0.2023,0.0350,-0.9749,-0.0865,0.0165,-0.0036,-0.0010,-0.0066,0.0354,-0.0347,-3.7862,-1.0437,8.9546,0.0002,-0.0000,-0.0000,1.0000,-0.0947,-0.0261,0.2239
918,Right,2,0.1568,-0.1684,-0.9348,-0.2706,0.0269,0.0054,0.0079,-0.0004,0.1620,-0.0729,-3.6681,2.1091,8.7742,0.0003,0.0001,0.0001,1.0000,-0.0917,0.0526,0.2194
918,Pelvis,2,0.4488,0.5403,0.4904,-0.5159,-0.3470,0.0167,0.0278,0.0975,0.0249,0.0092,9.7916,0.7651,0.1350,-0.0087,0.0004,0.0007,1.0000,0.4896,0.0386,0.0062
