PacketId,Role,StatusWord,Qx,Qy,Qz,Qw,Gx,Gy,Gz,FreeAx,FreeAy,FreeAz,Ax,Ay,Az,DQx,DQy,DQz,DQw,DVx,DVy,DVz
174443,Pelvis,0,-0.6695,0.0192,-0.7422,-0.0211,0.0025,0.0012,0.0016,0.0000,-0.0000,-0.0043,9.7566,-0.0017,1.0074,0.0000,0.0000,0.0000,1.0000,0.2439,-0.0000,0.0252
174443,Left,0,-0.0072,0.0011,-0.9988,-0.0490,0.0110,0.0037,0.0035,-0.0000,0.0000,-0.0843,0.1410,-0.0127,9.7274,0.0001,0.0000,0.0000,1.0000,0.0035,-0.0004,0.2432
174443,Right,606208,-0.0121,0.0078,-0.9373,-0.3482,0.0049,0.0058,0.0043,0.0000,-0.0000,0.1541,0.2789,-0.0615,9.9627,0.0001,0.0001,0.0001,1.0000,0.0070,-0.0016,0.2491
174444,Pelvis,0,-0.6695,0.0191,-0.7422,-0.0211,0.0024,0.0006,0.0017,0.0236,-0.0071,0.0087,9.7670,0.0041,1.0324,0.0000,0.0000,0.0000,1.0000,0.2442,0.0001,0.0258
174444,Left,0,-0.0072,0.0009,-0.9988,-0.0489,0.0106,0.0041,0.0025,-0.0049,0.0071,-0.1113,0.1461,-0.0193,9.7003,0.0001,0.0001,0.0000,1.0000,0.0037,-0.0005,0.2425
174444,Right,606208,-0.0120,0.0077,-0.9373,-0.3482,0.0047,0.0051,0.0035,0.0003,-0.0019,0.1541,0.2775,-0.0603,9.9627,0.0001,0.0001,0.0000,1.0000,0.0070,-0.0015,0.2491
174445,Pelvis,0,-0.6695,0.0192,-0.7422,-0.0210,0.0022,0.0010,0.0029,0.0189,-0.0147,0.0128,9.7715,0.0114,1.0288,0.0000,0.0000,0.0000,1.0000,0.2443,0.0003,0.0257
174445,Left,0,-0.0071,0.0008,-0.9988,-0.0489,0.0120,0.0037,0.0018,0.0077,-0.0021,-0.0961,0.1319,-0.0087,9.7157,0.0001,0.0000,0.0000,1.0000,0.0033,-0.0003,0.2429
174445,Right,606208,-0.0120,0.0077,-0.9373,-0.3481,0.0040,0.0045,0.0040,-0.0018,-0.0045,0.1633,0.2765,-0.0561,9.9720,0.0001,0.0001,0.0001,1.0000,0.0069,-0.0014,0.2493
174446,Pelvis,0,-0.6695,0.0192,-0.7423,-0.0210,0.0019,0.0023,0.0025,0.0031,-0.0131,-0.0023,9.7581,0.0101,1.0120,0.0000,0.0000,0.0000,1.0000,0.2440,0.0003,0.0253
174446,Left,0,-0.0071,0.0006,-0.9988,-0.0489,0.0127,0.0040,0.0044,0.0077,-0.0021,-0.0961,0.1309,-0.0057,9.7157,0.0002,0.0000,0.0001,1.0000,0.0033,-0.0002,0.2429
174446,Right,606208,-0.0119,0.0076,-0.9374,-0.3481,0.0026,0.0044,0.0035,-0.0130,-0.0088,0.1700,0.2812,-0.0447,9.9787,0.0000,0.0001,0.0000,1.0000,0.0070,-0.0011,0.2495
174447,Pelvis,0,-0.6695,0.0192,-0.7423,-0.0210,0.0007,0.0015,0.0011,0.0269,-0.0152,-0.0021,9.7558,0.0104,1.0362,0.0000,0.0000,0.0000,1.0000,0.2439,0.0003,0.0259
174447,Left,0,-0.0070,0.0005,-0.9988,-0.0488,0.0117,0.0047,0.0029,-0.0007,-0.0011,-0.1010,0.1382,-0.0030,9.7107,0.0001,0.0001,0.0000,1.0000,0.0035,-0.0001,0.2428
174447,Right,606208,-0.0119,0.0075,-0.9374,-0.3480,0.0050,0.0059,0.0034,-0.0090,-0.0038,0.1516,0.2797,-0.0501,9.9602,0.0001,0.0001,0.0000,1.0000,0.0070,-0.0013,0.2490
174448,Pelvis,0,-0.6695,0.0192,-0.7423,-0.0209,0.0025,0.0030,0.0031,-0.0051,-0.0126,0.0126,9.7736,0.0092,1.0064,0.0000,0.0000,0.0000,1.0000,0.2443,0.0002,0.0252
174448,Left,0,-0.0070,0.0003,-0.9988,-0.0488,0.0112,0.0050,0.0048,-0.0029,0.0192,-0.0932,0.1413,-0.0202,9.7184,0.0001,0.0001,0.0001,1.0000,0.0035,-0.0005,0.2430
174448,Right,606208,-0.0119,0.0075,-0.9374,-0.3480,0.0037,0.0048,0.0035,-0.0093,0.0080,0.1444,0.2861,-0.0577,9.9528,0.0000,0.0001,0.0000,1.0000,0.0072,-0.0015,0.2488
174449,Pelvis,0,-0.6695,0.0191,-0.7423,-0.0209,0.0032,0.0002,0.0007,-0.0121,-0.0012,0.0020,9.7638,-0.0020,0.9982,0.0000,0.0000,0.0000,1.0000,0.2441,-0.0000,0.0250
174449,Left,0,-0.0069,0.0002,-0.9988,-0.0487,0.0125,0.0040,0.0020,-0.0137,0.0234,-0.1318,0.1508,-0.0205,9.6797,0.0002,0.0001,0.0000,1.0000,0.0038,-0.0006,0.2420
174449,Right,606208,-0.0118,0.0074,-0.9374,-0.3480,0.0033,0.0061,0.0014,-0.0209,0.0155,0.1439,0.2984,-0.0549,9.9520,0.0000,0.0001,0.0000,1.0000,0.0075,-0.0014,0.2488
174450,Pelvis,0,-0.6694,0.0191,-0.7423,-0.0209,0.0039,0.0017,0.0018,-0.0018,-0.0204,0.0018,9.7624,0.0164,1.0098,0.0000,0.0000,0.0000,1.0000,0.2441,0.0004,0.0252
174450,Left,0,-0.0069,0.0000,-0.9988,-0.0487,0.0116,0.0034,0.0040,0.0015,0.0109,-0.0830,0.1344,-0.0066,9.7288,0.0001,0.0000,0.0000,1.0000,0.0034,-0.0002,0.2432
174450,Right,606208,-0.0118,0.0073,-0.9374,-0.3479,0.0039,0.0038,0.0032,-0.0015,-0.0045,0.1633,0.2701,-0.0516,9.9722,0.0000,0.0000,0.0000,1.0000,0.0068,-0.0013,0.2493
174451,Pelvis,0,-0.6694,0.0191,-0.7423,-0.0208,0.0020,0.0021,0.0019,0.0267,-0.0147,-0.0021,9.7556,0.0090,1.0378,0.0000,0.0000,0.0000,1.0000,0.2439,0.0002,0.0259
174451,Left,0,-0.0069,-0.0001,-0.9988,-0.0486,0.0121,0.0040,0.0025,0.0126,0.0185,-0.1001,0.1229,-0.0126,9.7119,0.0002,0.0001,0.0000,1.0000,0.0031,-0.0004,0.2428
174451,Right,606208,-0.0117,0.0073,-0.9374,-0.3479,0.0033,0.0050,0.0030,-0.0014,-0.0045,0.1633,0.2690,-0.0507,9.9722,0.0000,0.0001,0.0000,1.0000,0.0067,-0.0013,0.2493
174452,Pelvis,0,-0.6694,0.0191,-0.7424,-0.0208,0.0019,0.0013,0.0014,0.0069,-0.0103,0.0063,9.7660,0.0055,1.0193,0.0000,0.0000,0.0000,1.0000,0.2441,0.0001,0.0255
174452,Left,0,-0.0068,-0.0003,-0.9988,-0.0486,0.0125,0.0050,0.0025,0.0095,0.0248,-0.0935,0.1256,-0.0158,9.7184,0.0002,0.0001,0.0000,1.0000,0.0032,-0.0004,0.2430
174452,Right,606208,-0.0117,0.0072,-0.9374,-0.3479,0.0037,0.0048,0.0035,-0.0045,0.0012,0.1331,0.2732,-0.0519,9.9419,0.0000,0.0001,0.0000,1.0000,0.0068,-0.0013,0.2485
174453,Pelvis,0,-0.6694,0.0191,-0.7424,-0.0208,0.0010,0.0027,0.0008,0.0129,-0.0314,-0.0024,9.7564,0.0263,1.0263,0.0000,0.0000,0.0000,1.0000,0.2439,0.0007,0.0256
174453,Left,0,-0.0068,-0.0004,-0.9988,-0.0486,0.0113,0.0047,0.0035,-0.0144,0.0259,-0.0917,0.1483,-0.0120,9.7199,0.0001,0.0001,0.0000,1.0000,0.0037,-0.0003,0.2430
174453,Right,606208,-0.0117,0.0071,-0.9375,-0.3478,0.0044,0.0054,0.0030,-0.0104,-0.0063,0.1608,0.2723,-0.0414,9.9697,0.0001,0.0001,0.0000,1.0000,0.0068,-0.0010,0.2492
174454,Right,606208,-0.0116,0.0070,-0.9375,-0.3478,0.0054,0.0057,0.0039,-0.0179,0.0061,0.1419,0.2843,-0.0446,9.9504,0.0001,0.0001,0.0000,1.0000,0.0071,-0.0011,0.2488
174455,Pelvis,0,-0.6693,0.0190,-0.7424,-0.0208,0.0020,0.0008,0.0019,-0.0081,-0.0174,-0.0014,9.7596,0.0134,1.0054,0.0001,0.0000,0.0000,1.0000,0.4880,0.0007,0.0503
174455,Left,0,-0.0067,-0.0006,-0.9988,-0.0485,0.0108,0.0041,0.0022,-0.0037,0.0264,-0.1094,0.1360,-0.0100,9.7024,0.0003,0.0001,0.0001,1.0000,0.0068,-0.0006,0.4851
174455,Right,606208,-0.0116,0.0070,-0.9375,-0.3477,0.0034,0.0067,0.0032,-0.0067,0.0222,0.1279,0.2846,-0.0628,9.9364,0.0000,0.0001,0.0000,1.0000,0.0071,-0.0016,0.2484
174456,Right,606208,-0.0116,0.0069,-0.9375,-0.3477,0.0042,0.0036,0.0037,0.0012,0.0096,0.1469,0.2700,-0.0575,9.9557,0.0001,0.0000,0.0000,1.0000,0.0068,-0.0015,0.2489
174457,Pelvis,0,-0.6693,0.0190,-0.7424,-0.0207,0.0017,0.0017,0.0016,-0.0057,-0.0126,-0.0035,9.7573,0.0088,1.0079,0.0000,0.0000,0.0000,1.0000,0.4879,0.0005,0.0504
174457,Left,0,-0.0066,-0.0008,-0.9988,-0.0484,0.0113,0.0042,0.0032,-0.0101,0.0313,-0.0969,0.1414,-0.0102,9.7148,0.0003,0.0001,0.0001,1.0000,0.0071,-0.0006,0.4857
174457,Right,606208,-0.0115,0.0068,-0.9375,-0.3477,0.0042,0.0063,0.0033,-0.0195,0.0151,0.1439,0.2881,-0.0471,9.9523,0.0001,0.0001,0.0000,1.0000,0.0072,-0.0012,0.2488
174458,Right,606208,-0.0115,0.0068,-0.9375,-0.3476,0.0041,0.0035,0.0047,-0.0119,0.0142,0.1556,0.2813,-0.0503,9.9642,0.0001,0.0000,0.0001,1.0000,0.0070,-0.0013,0.2491
174459,Pelvis,0,-0.6693,0.0190,-0.7424,-0.0207,0.0021,0.0023,0.0015,0.0009,-0.0166,0.0061,9.7662,0.0123,1.0157,0.0001,0.0001,0.0000,1.0000,0.4883,0.0006,0.0508
174459,Left,0,-0.0065,-0.0011,-0.9988,-0.0483,0.0114,0.0045,0.0028,-0.0074,0.0404,-0.0989,0.1378,-0.0154,9.7128,0.0003,0.0001,0.0001,1.0000,0.0069,-0.0009,0.4856
174459,Right,606208,-0.0115,0.0067,-0.9376,-0.3476,0.0039,0.0055,0.0034,0.0017,0.0207,0.1397,0.2741,-0.0631,9.9484,0.0000,0.0001,0.0000,1.0000,0.0069,-0.0016,0.2487
174460,Pelvis,0,-0.6693,0.0189,-0.7425,-0.0207,0.0023,0.0015,0.0001,0.0027,-0.0092,-0.0023,9.7575,0.0055,1.0178,0.0000,0.0000,0.0000,1.0000,0.2439,0.0001,0.0254
174460,Left,0,-0.0066,-0.0011,-0.9988,-0.0484,0.0113,0.0028,0.0024,0.0132,0.0461,-0.0910,0.1182,-0.0214,9.7211,0.0001,0.0000,0.0000,1.0000,0.0030,-0.0006,0.2430
174460,Right,606208,-0.0115,0.0067,-0.9376,-0.3475,0.0050,0.0043,0.0023,-0.0073,0.0186,0.1371,0.2787,-0.0546,9.9458,0.0001,0.0001,0.0000,1.0000,0.0070,-0.0014,0.2486
174461,Pelvis,0,-0.6692,0.0188,-0.7426,-0.0207,0.0024,0.0031,0.0010,-0.0193,-0.0194,-0.0005,9.7613,0.0179,0.9983,0.0000,0.0000,0.0000,1.0000,0.2440,0.0004,0.0249
174461,Left,0,-0.0065,-0.0012,-0.9988,-0.0484,0.0115,0.0041,0.0037,-0.0148,0.0390,-0.0838,0.1446,-0.0102,9.7279,0.0001,0.0001,0.0000,1.0000,0.0036,-0.0003,0.2432
174461,Right,606208,-0.0115,0.0066,-0.9376,-0.3475,0.0042,0.0063,0.0033,-0.0041,0.0242,0.1601,0.2797,-0.0601,9.9687,0.0001,0.0001,0.0000,1.0000,0.0070,-0.0015,0.2492
174462,Pelvis,0,-0.6692,0.0188,-0.7426,-0.0207,0.0035,0.0031,0.0019,0.0094,-0.0130,-0.0044,9.7544,0.0105,1.0267,0.0000,0.0000,0.0000,1.0000,0.2439,0.0003,0.0257
174462,Left,0,-0.0065,-0.0012,-0.9988,-0.0484,0.0113,0.0037,0.0029,-0.0195,0.0462,-0.0941,0.1486,-0.0152,9.7176,0.0001,0.0000,0.0000,1.0000,0.0037,-0.0004,0.2429
174462,Right,606208,-0.0114,0.0065,-0.9376,-0.3475,0.0044,0.0054,0.0030,-0.0127,0.0101,0.1648,0.2763,-0.0429,9.9736,0.0001,0.0001,0.0000,1.0000,0.0069,-0.0011,0.2493
174463,Pelvis,0,-0.6692,0.0188,-0.7426,-0.0207,0.0010,0.0027,0.0008,-0.0175,-0.0124,-0.0132,9.7485,0.0119,0.9987,0.0000,0.0000,0.0000,1.0000,0.2437,0.0003,0.0250
174463,Left,0,-0.0065,-0.0013,-0.9988,-0.0484,0.0126,0.0034,0.0022,-0.0097,0.0588,-0.1046,0.1410,-0.0274,9.7072,0.0002,0.0000,0.0000,1.0000,0.0035,-0.0007,0.2427
174463,Right,606208,-0.0114,0.0065,-0.9376,-0.3474,0.0034,0.0040,0.0036,0.0025,0.0308,0.1324,0.2767,-0.0676,9.9411,0.0000,0.0000,0.0000,1.0000,0.0069,-0.0017,0.2485
174464,Pelvis,0,-0.6692,0.0188,-0.7425,-0.0207,0.0033,0.0001,0.0027,0.0128,0.0033,0.0022,9.7608,-0.0057,1.0288,0.0000,0.0000,0.0000,1.0000,0.2440,-0.0001,0.0257
174464,Left,0,-0.0065,-0.0013,-0.9988,-0.0485,0.0102,0.0053,0.0050,-0.0102,0.0289,-0.1071,0.1391,0.0028,9.7046,0.0001,0.0001,0.0001,1.0000,0.0035,0.0000,0.2426
174464,Right,606208,-0.0114,0.0064,-0.9376,-0.3474,0.0049,0.0058,0.0043,0.0012,0.0159,0.1489,0.2679,-0.0547,9.9578,0.0001,0.0001,0.0001,1.0000,0.0067,-0.0014,0.2489
174465,Pelvis,0,-0.6693,0.0188,-0.7425,-0.0206,0.0028,0.0009,0.0030,-0.0358,-0.0131,0.0079,9.7715,0.0132,0.9813,0.0000,0.0000,0.0000,1.0000,0.2443,0.0003,0.0245
174465,Left,0,-0.0065,-0.0014,-0.9988,-0.0482,0.0125,0.0050,0.0025,-0.0113,0.0327,-0.0838,0.1405,0.0009,9.7279,0.0002,0.0001,0.0000,1.0000,0.0035,-0.0000,0.2432
174465,Right,606208,-0.0114,0.0064,-0.9377,-0.3473,0.0044,0.0070,0.0041,-0.0151,0.0142,0.1346,0.2777,-0.0419,9.9434,0.0001,0.0001,0.0001,1.0000,0.0070,-0.0011,0.2486
174466,Pelvis,0,-0.6692,0.0187,-0.7425,-0.0206,0.0026,0.0011,0.0010,-0.0117,-0.0091,-0.0046,9.7565,0.0081,1.0043,0.0000,0.0000,0.0000,1.0000,0.2439,0.0002,0.0251
174466,Left,0,-0.0066,-0.0015,-0.9988,-0.0483,0.0110,0.0041,0.0019,-0.0134,0.0390,-0.0940,0.1443,-0.0040,9.7177,0.0001,0.0001,0.0000,1.0000,0.0036,-0.0001,0.2429
174466,Right,606208,-0.0114,0.0063,-0.9377,-0.3473,0.0032,0.0043,0.0022,-0.0070,0.0283,0.1713,0.2808,-0.0573,9.9800,0.0000,0.0001,0.0000,1.0000,0.0070,-0.0014,0.2495
174467,Pelvis,0,-0.6691,0.0187,-0.7426,-0.0206,0.0019,0.0013,0.0014,-0.0022,-0.0117,0.0018,9.7617,0.0109,1.0170,0.0000,0.0000,0.0000,1.0000,0.2440,0.0003,0.0254
174467,Left,0,-0.0065,-0.0016,-0.9988,-0.0485,0.0118,0.0041,0.0031,-0.0094,0.0587,-0.0980,0.1404,-0.0225,9.7138,0.0001,0.0001,0.0000,1.0000,0.0035,-0.0006,0.2428
174467,Right,606208,-0.0113,0.0063,-0.9377,-0.3473,0.0047,0.0051,0.0035,0.0036,0.0284,0.1324,0.2713,-0.0636,9.9413,0.0001,0.0001,0.0000,1.0000,0.0068,-0.0016,0.2485
174468,Pelvis,0,-0.6691,0.0187,-0.7426,-0.0207,0.0021,0.0019,0.0013,-0.0024,-0.0099,0.0018,9.7617,0.0106,1.0174,0.0000,0.0000,0.0000,1.0000,0.2440,0.0003,0.0254
174468,Left,0,-0.0065,-0.0016,-0.9988,-0.0487,0.0103,0.0041,0.0030,-0.0097,0.0571,-0.0980,0.1394,-0.0198,9.7139,0.0001,0.0001,0.0000,1.0000,0.0035,-0.0005,0.2428
174468,Right,606208,-0.0113,0.0063,-0.9377,-0.3472,0.0037,0.0047,0.0035,0.0131,0.0296,0.1349,0.2643,-0.0700,9.9439,0.0000,0.0001,0.0000,1.0000,0.0066,-0.0018,0.2486
174469,Pelvis,0,-0.6692,0.0187,-0.7426,-0.0208,0.0018,0.0007,0.0015,-0.0218,-0.0199,0.0036,9.7655,0.0228,0.9976,0.0000,0.0000,0.0000,1.0000,0.2441,0.0006,0.0249
174469,Left,0,-0.0066,-0.0016,-0.9988,-0.0487,0.0118,0.0019,0.0037,0.0003,0.0392,-0.0943,0.1299,-0.0032,9.7176,0.0001,0.0000,0.0000,1.0000,0.0033,-0.0001,0.2429
174469,Right,606208,-0.0113,0.0062,-0.9377,-0.3472,0.0034,0.0040,0.0036,-0.0162,0.0091,0.1439,0.2729,-0.0350,9.9528,0.0000,0.0000,0.0000,1.0000,0.0068,-0.0009,0.2488
174470,Pelvis,0,-0.6693,0.0187,-0.7424,-0.0209,0.0024,0.0031,0.0010,0.0039,-0.0089,0.0018,9.7616,0.0101,1.0182,0.0000,0.0000,0.0000,1.0000,0.2440,0.0003,0.0254
174470,Left,0,-0.0066,-0.0017,-0.9988,-0.0486,0.0120,0.0037,0.0017,0.0001,0.0393,-0.1111,0.1304,-0.0019,9.7008,0.0001,0.0000,0.0000,1.0000,0.0033,-0.0001,0.2425
174470,Right,606208,-0.0113,0.0062,-0.9377,-0.3471,0.0025,0.0053,0.0038,-0.0018,0.0189,0.1601,0.2682,-0.0514,9.9691,0.0000,0.0001,0.0000,1.0000,0.0067,-0.0013,0.2492
174471,Pelvis,0,-0.6695,0.0188,-0.7423,-0.0207,0.0016,0.0001,0.0017,0.0114,-0.0088,0.0104,9.7697,0.0074,1.0234,0.0000,0.0000,0.0000,1.0000,0.2442,0.0002,0.0256
174471,Left,0,-0.0066,-0.0017,-0.9988,-0.0486,0.0110,0.0047,0.0040,-0.0011,0.0566,-0.0864,0.1324,-0.0175,9.7255,0.0001,0.0001,0.0001,1.0000,0.0033,-0.0005,0.2431
174471,Right,606208,-0.0113,0.0062,-0.9377,-0.3471,0.0053,0.0041,0.0028,0.0092,0.0343,0.1462,0.2689,-0.0698,9.9551,0.0001,0.0001,0.0000,1.0000,0.0067,-0.0018,0.2489
174472,Pelvis,0,-0.6695,0.0188,-0.7423,-0.0205,0.0028,0.0009,0.0030,-0.0119,-0.0245,0.0036,9.7654,0.0217,0.9986,0.0000,0.0000,0.0000,1.0000,0.2441,0.0006,0.0250
174472,Left,0,-0.0065,-0.0018,-0.9988,-0.0486,0.0128,0.0028,0.0025,-0.0027,0.0570,-0.1032,0.1327,-0.0162,9.7087,0.0002,0.0000,0.0000,1.0000,0.0033,-0.0004,0.2427
174472,Right,606208,-0.0113,0.0061,-0.9378,-0.3471,0.0032,0.0032,0.0038,-0.0023,0.0411,0.1457,0.2816,-0.0668,9.9543,0.0000,0.0000,0.0000,1.0000,0.0071,-0.0017,0.2489
174473,Pelvis,0,-0.6695,0.0188,-0.7423,-0.0204,0.0018,0.0007,0.0015,0.0199,-0.0178,0.0083,9.7667,0.0119,1.0313,0.0000,0.0000,0.0000,1.0000,0.2442,0.0003,0.0258
174473,Left,0,-0.0065,-0.0019,-0.9988,-0.0485,0.0098,0.0047,0.0034,-0.0136,0.0477,-0.0861,0.1423,-0.0045,9.7257,0.0001,0.0001,0.0000,1.0000,0.0036,-0.0001,0.2431
174473,Right,606208,-0.0112,0.0061,-0.9378,-0.3470,0.0032,0.0059,0.0033,-0.0087,0.0175,0.1484,0.2706,-0.0444,9.9573,0.0000,0.0001,0.0000,1.0000,0.0068,-0.0011,0.2489
174474,Pelvis,0,-0.6693,0.0187,-0.7424,-0.0204,0.0029,0.0015,0.0029,0.0200,-0.0245,-0.0024,9.7556,0.0192,1.0343,0.0000,0.0000,0.0000,1.0000,0.2439,0.0005,0.0259
174474,Left,0,-0.0065,-0.0019,-0.9988,-0.0486,0.0108,0.0035,0.0027,0.0024,0.0467,-0.1097,0.1270,-0.0048,9.7022,0.0001,0.0000,0.0000,1.0000,0.0032,-0.0002,0.2426
174474,Right,606208,-0.0112,0.0060,-0.9378,-0.3470,0.0060,0.0046,0.0032,-0.0016,0.0278,0.1529,0.2714,-0.0562,9.9618,0.0001,0.0001,0.0000,1.0000,0.0068,-0.0014,0.2490
174475,Pelvis,0,-0.6693,0.0187,-0.7425,-0.0206,0.0014,-0.0003,0.0024,-0.0091,-0.0119,0.0081,9.7689,0.0100,1.0079,0.0000,-0.0000,0.0000,1.0000,0.2442,0.0003,0.0252
174475,Left,0,-0.0065,-0.0020,-0.9988,-0.0487,0.0115,0.0053,0.0026,-0.0111,0.0729,-0.1003,0.1423,-0.0284,9.7116,0.0001,0.0001,0.0000,1.0000,0.0036,-0.0007,0.2428
174475,Right,606208,-0.0112,0.0060,-0.9378,-0.3469,0.0042,0.0036,0.0037,-0.0064,0.0186,0.1392,0.2682,-0.0453,9.9482,0.0001,0.0000,0.0000,1.0000,0.0067,-0.0011,0.2487
174476,Pelvis,0,-0.6693,0.0187,-0.7425,-0.0206,0.0021,0.0027,0.0017,-0.0011,-0.0271,-0.0133,9.7468,0.0252,1.0136,0.0000,0.0000,0.0000,1.0000,0.2437,0.0006,0.0253
174476,Left,0,-0.0065,-0.0020,-0.9988,-0.0486,0.0120,0.0034,0.0034,0.0001,0.0500,-0.1032,0.1287,-0.0054,9.7088,0.0001,0.0000,0.0000,1.0000,0.0032,-0.0002,0.2427
174476,Right,606208,-0.0112,0.0060,-0.9378,-0.3469,0.0044,0.0054,0.0030,-0.0199,0.0228,0.1479,0.2808,-0.0391,9.9566,0.0001,0.0001,0.0000,1.0000,0.0070,-0.0010,0.2489
174477,Pelvis,0,-0.6694,0.0187,-0.7424,-0.0206,0.0033,0.0008,0.0006,0.0018,-0.0162,0.0060,9.7659,0.0148,1.0162,0.0000,0.0000,0.0000,1.0000,0.2441,0.0004,0.0254
174477,Left,0,-0.0065,-0.0021,-0.9988,-0.0485,0.0108,0.0044,0.0032,-0.0108,0.0409,-0.0861,0.1382,0.0063,9.7257,0.0001,0.0001,0.0000,1.0000,0.0035,0.0001,0.2431
174477,Right,606208,-0.0112,0.0059,-0.9378,-0.3469,0.0041,0.0046,0.0031,0.0052,0.0215,0.1325,0.2599,-0.0538,9.9416,0.0001,0.0001,0.0000,1.0000,0.0065,-0.0014,0.2485
174478,Pelvis,0,-0.6694,0.0186,-0.7424,-0.0205,0.0024,0.0031,0.0010,-0.0044,-0.0117,0.0081,9.7688,0.0092,1.0091,0.0000,0.0000,0.0000,1.0000,0.2442,0.0002,0.0252
174478,Left,0,-0.0065,-0.0021,-0.9988,-0.0485,0.0104,0.0022,0.0044,-0.0167,0.0538,-0.0897,0.1462,-0.0051,9.7220,0.0001,0.0000,0.0001,1.0000,0.0037,-0.0002,0.2431
174478,Right,606208,-0.0112,0.0059,-0.9378,-0.3468,0.0039,0.0038,0.0032,-0.0054,0.0318,0.1642,0.2750,-0.0543,9.9730,0.0000,0.0000,0.0000,1.0000,0.0069,-0.0014,0.2493
174479,Pelvis,0,-0.6692,0.0186,-0.7425,-0.0203,0.0022,0.0025,0.0012,-0.0072,-0.0071,-0.0046,9.7561,0.0036,1.0088,0.0000,0.0000,0.0000,1.0000,0.2439,0.0001,0.0252
174479,Left,0,-0.0064,-0.0022,-0.9988,-0.0485,0.0114,0.0060,0.0023,-0.0014,0.0519,-0.0966,0.1297,-0.0036,9.7154,0.0001,0.0001,0.0000,1.0000,0.0033,-0.0001,0.2429
174479,Right,606208,-0.0111,0.0059,-0.9379,-0.3468,0.0029,0.0051,0.0034,-0.0153,0.0529,0.1472,0.2951,-0.0634,9.9555,0.0000,0.0001,0.0000,1.0000,0.0074,-0.0016,0.2489
174480,Pelvis,0,-0.6691,0.0186,-0.7427,-0.0205,0.0013,-0.0001,0.0030,0.0071,-0.0297,-0.0069,9.7518,0.0273,1.0279,0.0000,-0.0000,0.0000,1.0000,0.2438,0.0007,0.0257
174480,Left,0,-0.0064,-0.0023,-0.9988,-0.0486,0.0098,0.0047,0.0034,-0.0205,0.0588,-0.0999,0.1489,-0.0077,9.7118,0.0001,0.0001,0.0000,1.0000,0.0037,-0.0002,0.2428
174480,Right,606208,-0.0111,0.0058,-0.9379,-0.3468,0.0042,0.0036,0.0037,-0.0051,0.0305,0.1642,0.2727,-0.0526,9.9730,0.0001,0.0000,0.0000,1.0000,0.0068,-0.0013,0.2493
174481,Pelvis,0,-0.6690,0.0186,-0.7427,-0.0208,0.0021,0.0019,0.0013,-0.0016,-0.0201,-0.0047,9.7547,0.0214,1.0206,0.0000,0.0000,0.0000,1.0000,0.2439,0.0005,0.0255
174481,Left,0,-0.0064,-0.0023,-0.9988,-0.0485,0.0115,0.0034,0.0015,-0.0001,0.0488,-0.0966,0.1274,0.0015,9.7154,0.0001,0.0000,0.0000,1.0000,0.0032,0.0000,0.2429
174481,Right,606208,-0.0111,0.0058,-0.9379,-0.3467,0.0044,0.0069,0.0041,-0.0083,0.0355,0.1340,0.2769,-0.0537,9.9427,0.0001,0.0001,0.0001,1.0000,0.0069,-0.0014,0.2486
174482,Pelvis,0,-0.6691,0.0187,-0.7426,-0.0210,0.0030,0.0006,0.0019,0.0141,-0.0002,-0.0044,9.7537,0.0032,1.0334,0.0000,0.0000,0.0000,1.0000,0.2438,0.0001,0.0258
174482,Left,0,-0.0064,-0.0024,-0.9988,-0.0485,0.0112,0.0063,0.0037,-0.0224,0.0625,-0.0933,0.1505,-0.0086,9.7184,0.0001,0.0001,0.0000,1.0000,0.0038,-0.0002,0.2430
174482,Right,606208,-0.0111,0.0058,-0.9379,-0.3467,0.0038,0.0037,0.0042,-0.0141,0.0272,0.1617,0.2759,-0.0431,9.9705,0.0000,0.0000,0.0001,1.0000,0.0069,-0.0011,0.2493
174483,Pelvis,0,-0.6693,0.0188,-0.7424,-0.0212,0.0014,0.0030,0.0022,0.0085,-0.0063,0.0146,9.7738,0.0104,1.0235,0.0000,0.0000,0.0000,1.0000,0.2443,0.0003,0.0256
174483,Left,0,-0.0064,-0.0025,-0.9988,-0.0485,0.0107,0.0038,0.0041,-0.0214,0.0902,-0.1074,0.1513,-0.0351,9.7045,0.0001,0.0000,0.0001,1.0000,0.0038,-0.0009,0.2426
174483,Right,606208,-0.0111,0.0057,-0.9379,-0.3466,0.0038,0.0049,0.0017,0.0010,0.0477,0.1293,0.2765,-0.0678,9.9380,0.0000,0.0001,0.0000,1.0000,0.0069,-0.0017,0.2485
174484,Pelvis,0,-0.6696,0.0190,-0.7422,-0.0211,0.0012,0.0025,0.0029,-0.0050,-0.0217,0.0164,9.7776,0.0223,1.0041,0.0000,0.0000,0.0000,1.0000,0.2444,0.0006,0.0251
174484,Left,0,-0.0064,-0.0025,-0.9988,-0.0484,0.0109,0.0028,0.0030,-0.0130,0.0586,-0.0883,0.1401,-0.0031,9.7235,0.0001,0.0000,0.0000,1.0000,0.0035,-0.0001,0.2431
174484,Right,606208,-0.0110,0.0057,-0.9379,-0.3466,0.0040,0.0045,0.0040,-0.0210,0.0265,0.1499,0.2793,-0.0370,9.9587,0.0001,0.0001,0.0001,1.0000,0.0070,-0.0009,0.2490
174485,Pelvis,0,-0.6697,0.0190,-0.7421,-0.0209,0.0023,0.0016,0.0027,0.0090,-0.0168,-0.0026,9.7574,0.0139,1.0149,0.0000,0.0000,0.0000,1.0000,0.2439,0.0004,0.0254
174485,Left,0,-0.0064,-0.0026,-0.9988,-0.0484,0.0120,0.0038,0.0017,-0.0117,0.0725,-0.1038,0.1409,-0.0157,9.7082,0.0001,0.0000,0.0000,1.0000,0.0035,-0.0004,0.2427
174485,Right,606208,-0.0110,0.0056,-0.9379,-0.3466,0.0039,0.0055,0.0034,-0.0003,0.0319,0.1457,0.2664,-0.0540,9.9548,0.0000,0.0001,0.0000,1.0000,0.0067,-0.0014,0.2489
174486,Pelvis,0,-0.6695,0.0190,-0.7422,-0.0207,0.0026,0.0011,0.0010,0.0133,-0.0290,0.0080,9.7671,0.0244,1.0238,0.0000,0.0000,0.0000,1.0000,0.2442,0.0006,0.0256
174486,Left,0,-0.0064,-0.0027,-0.9988,-0.0484,0.0111,0.0035,0.0021,-0.0121,0.0711,-0.1038,0.1400,-0.0129,9.7082,0.0001,0.0000,0.0000,1.0000,0.0035,-0.0004,0.2427
174486,Right,606208,-0.0110,0.0056,-0.9380,-0.3465,0.0027,0.0045,0.0026,-0.0049,0.0498,0.1498,0.2809,-0.0642,9.9584,0.0000,0.0001,0.0000,1.0000,0.0070,-0.0016,0.2490
174487,Pelvis,0,-0.6694,0.0189,-0.7424,-0.0207,0.0032,-0.0005,0.0029,-0.0072,-0.0252,-0.0071,9.7538,0.0233,1.0066,0.0000,-0.0000,0.0000,1.0000,0.2438,0.0006,0.0252
174487,Left,0,-0.0064,-0.0027,-0.9988,-0.0485,0.0117,0.0047,0.0028,-0.0112,0.0692,-0.1038,0.1390,-0.0101,9.7082,0.0001,0.0001,0.0000,1.0000,0.0035,-0.0003,0.2427
174487,Right,606208,-0.0110,0.0056,-0.9380,-0.3465,0.0055,0.0047,0.0036,-0.0140,0.0472,0.1473,0.2855,-0.0558,9.9558,0.0001,0.0001,0.0000,1.0000,0.0072,-0.0014,0.2489
174488,Pelvis,0,-0.6693,0.0188,-0.7425,-0.0209,0.0025,-0.0005,0.0001,-0.0052,-0.0200,0.0015,9.7620,0.0206,1.0114,0.0000,-0.0000,0.0000,1.0000,0.2440,0.0005,0.0253
174488,Left,0,-0.0064,-0.0028,-0.9988,-0.0486,0.0101,0.0026,0.0033,-0.0089,0.0794,-0.0856,0.1374,-0.0195,9.7264,0.0001,0.0000,0.0000,1.0000,0.0034,-0.0005,0.2432
174488,Right,606208,-0.0109,0.0055,-0.9380,-0.3465,0.0040,0.0056,0.0025,-0.0179,0.0415,0.1657,0.2844,-0.0483,9.9743,0.0001,0.0001,0.0000,1.0000,0.0071,-0.0012,0.2494
174489,Pelvis,0,-0.6693,0.0189,-0.7424,-0.0212,0.0019,0.0023,0.0025,-0.0117,-0.0162,0.0164,9.7775,0.0203,1.0051,0.0000,0.0000,0.0000,1.0000,0.2444,0.0005,0.0251
174489,Left,0,-0.0063,-0.0028,-0.9988,-0.0486,0.0122,0.0053,0.0014,-0.0149,0.0587,-0.0985,0.1406,0.0028,9.7134,0.0002,0.0001,0.0000,1.0000,0.0035,0.0000,0.2428
174489,Right,606208,-0.0109,0.0055,-0.9380,-0.3464,0.0028,0.0050,0.0044,-0.0041,0.0358,0.1570,0.2693,-0.0525,9.9660,0.0000,0.0001,0.0001,1.0000,0.0067,-0.0013,0.2491
174490,Pelvis,0,-0.6695,0.0189,-0.7423,-0.0212,0.0022,0.0000,0.0018,0.0293,-0.0119,-0.0024,9.7551,0.0129,1.0395,0.0000,0.0000,0.0000,1.0000,0.2439,0.0003,0.0260
174490,Left,0,-0.0063,-0.0029,-0.9988,-0.0486,0.0101,0.0038,0.0022,-0.0033,0.0680,-0.0754,0.1303,-0.0063,9.7367,0.0001,0.0000,0.0000,1.0000,0.0033,-0.0002,0.2434
174490,Right,606208,-0.0109,0.0055,-0.9380,-0.3464,0.0040,0.0056,0.0025,-0.0112,0.0358,0.1453,0.2737,-0.0475,9.9541,0.0001,0.0001,0.0000,1.0000,0.0069,-0.0012,0.2489
174491,Pelvis,0,-0.6695,0.0188,-0.7423,-0.0210,0.0028,0.0016,0.0009,0.0026,-0.0027,0.0081,9.7684,0.0040,1.0132,0.0000,0.0000,0.0000,1.0000,0.2442,0.0001,0.0253
174491,Left,0,-0.0063,-0.0030,-0.9988,-0.0486,0.0115,0.0041,0.0037,-0.0071,0.0901,-0.1010,0.1360,-0.0269,9.7111,0.0001,0.0001,0.0000,1.0000,0.0034,-0.0007,0.2428
174491,Right,606208,-0.0109,0.0054,-0.9380,-0.3464,0.0032,0.0043,0.0022,-0.0001,0.0512,0.1313,0.2743,-0.0659,9.9402,0.0000,0.0001,0.0000,1.0000,0.0069,-0.0017,0.2485
174492,Pelvis,0,-0.6694,0.0188,-0.7424,-0.0209,0.0030,0.0006,0.0019,0.0146,-0.0198,0.0166,9.7752,0.0201,1.0296,0.0000,0.0000,0.0000,1.0000,0.2444,0.0005,0.0257
174492,Left,0,-0.0063,-0.0030,-0.9988,-0.0485,0.0120,0.0044,0.0039,-0.0024,0.0804,-0.0908,0.1299,-0.0162,9.7213,0.0002,0.0001,0.0000,1.0000,0.0033,-0.0004,0.2430
174492,Right,606208,-0.0109,0.0054,-0.9380,-0.3463,0.0047,0.0050,0.0045,-0.0248,0.0511,0.1468,0.2928,-0.0493,9.9552,0.0001,0.0001,0.0001,1.0000,0.0073,-0.0012,0.2489
174493,Pelvis,0,-0.6692,0.0187,-0.7426,-0.0209,0.0025,0.0012,0.0016,0.0065,-0.0151,-0.0047,9.7544,0.0167,1.0239,0.0000,0.0000,0.0000,1.0000,0.2439,0.0004,0.0256
174493,Left,0,-0.0063,-0.0031,-0.9988,-0.0486,0.0118,0.0044,0.0015,-0.0139,0.0727,-0.0905,0.1406,-0.0060,9.7214,0.0001,0.0001,0.0000,1.0000,0.0035,-0.0002,0.2430
174493,Right,606208,-0.0108,0.0054,-0.9381,-0.3463,0.0039,0.0055,0.0034,-0.0130,0.0429,0.1473,0.2778,-0.0501,9.9561,0.0000,0.0001,0.0000,1.0000,0.0070,-0.0013,0.2489
174494,Pelvis,0,-0.6690,0.0187,-0.7427,-0.0213,0.0021,0.0019,0.0013,-0.0012,-0.0077,0.0187,9.7781,0.0140,1.0227,0.0000,0.0000,0.0000,1.0000,0.2445,0.0004,0.0256
174494,Left,0,-0.0063,-0.0032,-0.9988,-0.0485,0.0116,0.0050,0.0042,-0.0099,0.0786,-0.0957,0.1361,-0.0108,9.7163,0.0001,0.0001,0.0001,1.0000,0.0034,-0.0003,0.2429
174494,Right,606208,-0.0108,0.0053,-0.9381,-0.3462,0.0033,0.0049,0.0039,-0.0152,0.0515,0.1493,0.2844,-0.0548,9.9579,0.0000,0.0001,0.0000,1.0000,0.0071,-0.0014,0.2489
174495,Pelvis,0,-0.6691,0.0188,-0.7426,-0.0216,0.0019,0.0030,0.0003,-0.0017,-0.0015,-0.0026,9.7572,0.0108,1.0173,0.0000,0.0000,0.0000,1.0000,0.2439,0.0003,0.0254
174495,Left,0,-0.0063,-0.0033,-0.9988,-0.0485,0.0120,0.0035,0.0034,-0.0278,0.0841,-0.0823,0.1543,-0.0129,9.7296,0.0001,0.0000,0.0000,1.0000,0.0039,-0.0004,0.2432
174495,Right,606208,-0.0108,0.0053,-0.9381,-0.3462,0.0053,0.0041,0.0028,-0.0151,0.0507,0.1493,0.2833,-0.0537,9.9580,0.0001,0.0001,0.0000,1.0000,0.0071,-0.0014,0.2489
174496,Pelvis,0,-0.6693,0.0189,-0.7424,-0.0217,0.0018,0.0007,0.0015,-0.0001,-0.0089,0.0015,9.7617,0.0184,1.0140,0.0000,0.0000,0.0000,1.0000,0.2440,0.0005,0.0253
174496,Left,0,-0.0063,-0.0033,-0.9988,-0.0485,0.0115,0.0044,0.0020,-0.0189,0.0970,-0.0927,0.1466,-0.0253,9.7193,0.0001,0.0001,0.0000,1.0000,0.0037,-0.0007,0.2430
174496,Right,606208,-0.0108,0.0052,-0.9381,-0.3461,0.0044,0.0042,0.0046,-0.0036,0.0544,0.1426,0.2764,-0.0631,9.9514,0.0001,0.0001,0.0001,1.0000,0.0069,-0.0016,0.2488
174497,Pelvis,0,-0.6696,0.0190,-0.7422,-0.0216,0.0035,0.0016,0.0037,-0.0025,-0.0202,-0.0029,9.7581,0.0280,1.0056,0.0000,0.0000,0.0000,1.0000,0.2440,0.0007,0.0251
174497,Left,0,-0.0062,-0.0034,-0.9988,-0.0485,0.0109,0.0054,0.0037,-0.0196,0.0815,-0.0941,0.1450,-0.0088,9.7179,0.0001,0.0001,0.0000,1.0000,0.0036,-0.0003,0.2429
174497,Right,606208,-0.0108,0.0052,-0.9381,-0.3461,0.0037,0.0047,0.0035,-0.0260,0.0449,0.1560,0.2870,-0.0409,9.9647,0.0000,0.0001,0.0000,1.0000,0.0072,-0.0010,0.2491
174498,Pelvis,0,-0.6696,0.0190,-0.7422,-0.0213,0.0001,0.0008,0.0005,0.0263,-0.0242,0.0058,9.7639,0.0259,1.0345,0.0000,0.0000,0.0000,1.0000,0.2441,0.0006,0.0259
174498,Left,0,-0.0062,-0.0034,-0.9988,-0.0485,0.0113,0.0028,0.0024,-0.0117,0.0807,-0.1059,0.1369,-0.0076,9.7062,0.0001,0.0000,0.0000,1.0000,0.0034,-0.0002,0.2427
174498,Right,606208,-0.0108,0.0052,-0.9381,-0.3461,0.0044,0.0054,0.0030,-0.0145,0.0486,0.1493,0.2799,-0.0506,9.9581,0.0001,0.0001,0.0000,1.0000,0.0070,-0.0013,0.2490
174499,Right,606208,-0.0107,0.0051,-0.9382,-0.3460,0.0037,0.0047,0.0035,-0.0167,0.0571,0.1514,0.2865,-0.0551,9.9600,0.0000,0.0001,0.0000,1.0000,0.0072,-0.0014,0.2490
174500,Pelvis,0,-0.6694,0.0189,-0.7423,-0.0211,0.0017,0.0017,0.0016,0.0258,-0.0110,0.0007,9.7585,0.0112,1.0370,0.0000,0.0000,0.0000,1.0000,0.4879,0.0006,0.0518
174500,Left,0,-0.0062,-0.0037,-0.9988,-0.0485,0.0118,0.0036,0.0028,-0.0131,0.0916,-0.0902,0.1390,-0.0155,9.7219,0.0003,0.0001,0.0001,1.0000,0.0070,-0.0009,0.4861
174500,Right,606208,-0.0107,0.0051,-0.9382,-0.3460,0.0035,0.0056,0.0038,-0.0049,0.0489,0.1518,0.2715,-0.0561,9.9608,0.0000,0.0001,0.0000,1.0000,0.0068,-0.0014,0.2490
174501,Pelvis,0,-0.6693,0.0189,-0.7424,-0.0212,0.0025,0.0012,0.0016,-0.0180,-0.0035,-0.0028,9.7593,0.0079,0.9957,0.0000,0.0000,0.0000,1.0000,0.2440,0.0002,0.0249
174501,Left,0,-0.0062,-0.0036,-0.9988,-0.0485,0.0103,0.0041,0.0030,-0.0288,0.0830,-0.0924,0.1536,-0.0042,9.7195,0.0001,0.0001,0.0000,1.0000,0.0039,-0.0001,0.2430
174501,Right,606208,-0.0107,0.0051,-0.9382,-0.3459,0.0033,0.0049,0.0039,-0.0212,0.0471,0.1376,0.2817,-0.0437,9.9464,0.0000,0.0001,0.0000,1.0000,0.0071,-0.0011,0.2487
174502,Pelvis,0,-0.6694,0.0189,-0.7423,-0.0215,0.0022,0.0017,0.0007,-0.0050,-0.0197,-0.0029,9.7579,0.0264,1.0073,0.0000,0.0000,0.0000,1.0000,0.2439,0.0007,0.0252
174502,Left,0,-0.0062,-0.0037,-0.9988,-0.0485,0.0120,0.0035,0.0033,-0.0251,0.0751,-0.0989,0.1489,0.0046,9.7129,0.0001,0.0000,0.0000,1.0000,0.0037,0.0001,0.2428
174502,Right,606208,-0.0107,0.0050,-0.9382,-0.3459,0.0044,0.0054,0.0030,-0.0137,0.0457,0.1494,0.2747,-0.0470,9.9583,0.0001,0.0001,0.0000,1.0000,0.0069,-0.0012,0.2490
174503,Pelvis,0,-0.6695,0.0189,-0.7423,-0.0215,0.0022,0.0025,0.0012,0.0155,0.0001,0.0060,9.7650,0.0060,1.0252,0.0000,0.0000,0.0000,1.0000,0.2441,0.0002,0.0256
174503,Left,0,-0.0062,-0.0038,-0.9988,-0.0485,0.0107,0.0041,0.0024,-0.0101,0.0918,-0.0811,0.1354,-0.0119,9.7311,0.0001,0.0001,0.0000,1.0000,0.0034,-0.0003,0.2433
174503,Right,606208,-0.0106,0.0050,-0.9382,-0.3459,0.0032,0.0060,0.0024,-0.0027,0.0611,0.1355,0.2752,-0.0654,9.9443,0.0000,0.0001,0.0000,1.0000,0.0069,-0.0016,0.2486
174504,Pelvis,0,-0.6695,0.0189,-0.7422,-0.0214,0.0010,0.0020,0.0030,0.0046,-0.0026,0.0123,9.7724,0.0078,1.0144,0.0000,0.0000,0.0000,1.0000,0.2443,0.0002,0.0254
174504,Left,0,-0.0062,-0.0039,-0.9988,-0.0485,0.0115,0.0044,0.0020,-0.0141,0.1141,-0.1066,0.1409,-0.0326,9.7057,0.0001,0.0001,0.0000,1.0000,0.0035,-0.0009,0.2426
174504,Right,606208,-0.0106,0.0050,-0.9382,-0.3458,0.0044,0.0042,0.0046,-0.0134,0.0443,0.1494,0.2720,-0.0451,9.9583,0.0001,0.0001,0.0001,1.0000,0.0068,-0.0011,0.2490
174505,Pelvis,0,-0.6694,0.0188,-0.7424,-0.0214,0.0035,0.0014,0.0004,0.0037,-0.0252,-0.0050,9.7548,0.0308,1.0163,0.0000,0.0000,0.0000,1.0000,0.2439,0.0008,0.0254
174505,Left,0,-0.0061,-0.0039,-0.9988,-0.0485,0.0109,0.0054,0.0037,-0.0212,0.0826,-0.0808,0.1449,0.0008,9.7312,0.0001,0.0001,0.0000,1.0000,0.0036,-0.0000,0.2433
174505,Right,606208,-0.0106,0.0049,-0.9382,-0.3458,0.0032,0.0059,0.0033,-0.0228,0.0535,0.1397,0.2844,-0.0455,9.9484,0.0000,0.0001,0.0000,1.0000,0.0071,-0.0011,0.2487
174506,Pelvis,0,-0.6692,0.0188,-0.7426,-0.0214,0.0023,0.0016,0.0028,0.0003,-0.0025,-0.0112,9.7486,0.0096,1.0168,0.0000,0.0000,0.0000,1.0000,0.2437,0.0002,0.0254
174506,Left,0,-0.0061,-0.0040,-0.9988,-0.0485,0.0120,0.0047,0.0022,-0.0250,0.1049,-0.1063,0.1503,-0.0199,9.7058,0.0002,0.0001,0.0000,1.0000,0.0038,-0.0005,0.2426
174506,Right,606208,-0.0105,0.0049,-0.9382,-0.3458,0.0033,0.0061,0.0014,-0.0270,0.0595,0.1509,0.2908,-0.0470,9.9595,0.0000,0.0001,0.0000,1.0000,0.0073,-0.0012,0.2490
174507,Pelvis,0,-0.6691,0.0188,-0.7426,-0.0217,0.0028,0.0016,0.0009,-0.0022,-0.0041,0.0015,9.7613,0.0146,1.0182,0.0000,0.0000,0.0000,1.0000,0.2440,0.0004,0.0255
174507,Left,0,-0.0061,-0.0041,-0.9988,-0.0485,0.0111,0.0032,0.0037,-0.0232,0.1017,-0.0895,0.1481,-0.0153,9.7226,0.0001,0.0000,0.0000,1.0000,0.0037,-0.0004,0.2431
174507,Right,606208,-0.0105,0.0048,-0.9383,-0.3457,0.0044,0.0053,0.0030,-0.0146,0.0667,0.1764,0.2858,-0.0600,9.9851,0.0001,0.0001,0.0000,1.0000,0.0072,-0.0015,0.2496
174508,Pelvis,0,-0.6692,0.0189,-0.7426,-0.0219,0.0017,0.0009,0.0021,-0.0072,0.0045,0.0037,9.7642,0.0088,1.0110,0.0000,0.0000,0.0000,1.0000,0.2441,0.0002,0.0253
174508,Left,0,-0.0061,-0.0041,-0.9988,-0.0485,0.0115,0.0041,0.0037,-0.0156,0.1009,-0.1013,0.1401,-0.0140,9.7109,0.0001,0.0001,0.0000,1.0000,0.0035,-0.0004,0.2428
174508,Right,606208,-0.0105,0.0048,-0.9383,-0.3457,0.0044,0.0053,0.0030,-0.0106,0.0440,0.1402,0.2664,-0.0446,9.9493,0.0001,0.0001,0.0000,1.0000,0.0067,-0.0011,0.2487
174509,Pelvis,0,-0.6694,0.0190,-0.7423,-0.0222,0.0019,0.0005,0.0010,-0.0005,0.0050,0.0037,9.7641,0.0085,1.0112,0.0000,0.0000,0.0000,1.0000,0.2441,0.0002,0.0253
174509,Left,0,-0.0061,-0.0042,-0.9988,-0.0484,0.0122,0.0041,0.0025,-0.0271,0.0935,-0.1010,0.1508,-0.0038,9.7110,0.0002,0.0001,0.0000,1.0000,0.0038,-0.0001,0.2428
174509,Right,606208,-0.0105,0.0048,-0.9383,-0.3457,0.0042,0.0036,0.0038,-0.0264,0.0574,0.1509,0.2869,-0.0440,9.9596,0.0001,0.0000,0.0000,1.0000,0.0072,-0.0011,0.2490
174510,Pelvis,0,-0.6697,0.0192,-0.7421,-0.0221,0.0022,0.0000,0.0018,0.0232,0.0060,0.0060,9.7648,0.0035,1.0275,0.0000,0.0000,0.0000,1.0000,0.2441,0.0001,0.0257
174510,Right,606208,-0.0105,0.0047,-0.9383,-0.3456,0.0038,0.0048,0.0026,-0.0130,0.0636,0.1350,0.2799,-0.0568,9.9438,0.0000,0.0001,0.0000,1.0000,0.0070,-0.0014,0.2486
174511,Pelvis,0,-0.6698,0.0191,-0.7420,-0.0218,0.0005,0.0018,0.0023,0.0127,0.0018,0.0122,9.7722,0.0054,1.0163,0.0000,0.0000,0.0000,1.0000,0.2443,0.0001,0.0254
174511,Left,0,-0.0061,-0.0044,-0.9988,-0.0484,0.0106,0.0038,0.0028,-0.0204,0.1043,-0.0888,0.1450,-0.0125,9.7234,0.0003,0.0001,0.0001,1.0000,0.0073,-0.0008,0.4862
174511,Right,606208,-0.0105,0.0047,-0.9383,-0.3456,0.0036,0.0046,0.0045,-0.0211,0.0646,0.1647,0.2868,-0.0518,9.9734,0.0000,0.0001,0.0001,1.0000,0.0072,-0.0013,0.2493
174512,Pelvis,0,-0.6697,0.0191,-0.7421,-0.0216,0.0033,0.0017,0.0016,0.0097,-0.0152,0.0057,9.7657,0.0205,1.0156,0.0000,0.0000,0.0000,1.0000,0.2441,0.0005,0.0254
174512,Left,0,-0.0061,-0.0044,-0.9988,-0.0484,0.0129,0.0047,0.0035,-0.0112,0.0933,-0.0845,0.1349,-0.0012,9.7277,0.0002,0.0001,0.0000,1.0000,0.0034,-0.0001,0.2432
174512,Right,606208,-0.0105,0.0047,-0.9383,-0.3456,0.0044,0.0038,0.0019,-0.0142,0.0479,0.1514,0.2700,-0.0430,9.9605,0.0001,0.0000,0.0000,1.0000,0.0068,-0.0011,0.2490
174513,Pelvis,0,-0.6694,0.0190,-0.7423,-0.0216,0.0021,0.0019,0.0013,0.0075,-0.0122,0.0143,9.7738,0.0178,1.0210,0.0000,0.0000,0.0000,1.0000,0.2443,0.0004,0.0255
174513,Left,0,-0.0061,-0.0045,-0.9988,-0.0484,0.0104,0.0029,0.0011,-0.0097,0.1056,-0.0831,0.1344,-0.0121,9.7292,0.0001,0.0000,0.0000,1.0000,0.0034,-0.0003,0.2432
174513,Right,606208,-0.0104,0.0046,-0.9383,-0.3455,0.0039,0.0054,0.0044,-0.0280,0.0639,0.1530,0.2904,-0.0457,9.9616,0.0000,0.0001,0.0001,1.0000,0.0073,-0.0012,0.2490
174514,Pelvis,0,-0.6692,0.0190,-0.7425,-0.0217,0.0029,0.0032,0.0018,-0.0076,-0.0002,-0.0049,9.7558,0.0091,1.0081,0.0000,0.0000,0.0000,1.0000,0.2439,0.0002,0.0252
174514,Left,0,-0.0061,-0.0046,-0.9988,-0.0484,0.0112,0.0054,0.0031,-0.0216,0.0981,-0.0828,0.1451,-0.0022,9.7293,0.0001,0.0001,0.0000,1.0000,0.0036,-0.0001,0.2432
174514,Right,606208,-0.0104,0.0046,-0.9384,-0.3455,0.0043,0.0064,0.0024,-0.0069,0.0576,0.1560,0.2694,-0.0539,9.9650,0.0001,0.0001,0.0000,1.0000,0.0068,-0.0014,0.2491
174515,Pelvis,0,-0.6693,0.0190,-0.7425,-0.0219,0.0011,0.0010,0.0020,-0.0019,0.0042,0.0037,9.7639,0.0063,1.0135,0.0000,0.0000,0.0000,1.0000,0.2441,0.0002,0.0253
174515,Left,0,-0.0061,-0.0046,-0.9988,-0.0484,0.0119,0.0051,0.0036,-0.0098,0.1046,-0.0998,0.1333,-0.0085,9.7125,0.0001,0.0001,0.0000,1.0000,0.0033,-0.0002,0.2428
174515,Right,606208,-0.0104,0.0045,-0.9384,-0.3454,0.0039,0.0038,0.0032,-0.0140,0.0576,0.1443,0.2739,-0.0488,9.9532,0.0000,0.0000,0.0000,1.0000,0.0069,-0.0012,0.2488
174516,Pelvis,0,-0.6693,0.0190,-0.7424,-0.0218,0.0026,0.0020,0.0020,0.0026,-0.0040,-0.0070,9.7528,0.0137,1.0165,0.0000,0.0000,0.0000,1.0000,0.2438,0.0003,0.0254
174516,Left,0,-0.0060,-0.0047,-0.9988,-0.0484,0.0112,0.0054,0.0031,-0.0217,0.0971,-0.0995,0.1438,0.0016,9.7126,0.0001,0.0001,0.0000,1.0000,0.0036,0.0000,0.2428
174516,Right,606208,-0.0104,0.0045,-0.9384,-0.3454,0.0043,0.0052,0.0039,-0.0138,0.0569,0.1443,0.2728,-0.0478,9.9533,0.0001,0.0001,0.0000,1.0000,0.0068,-0.0012,0.2488
174517,Pelvis,0,-0.6694,0.0190,-0.7424,-0.0217,0.0021,0.0027,0.0017,-0.0075,-0.0068,-0.0008,9.7602,0.0156,1.0057,0.0000,0.0000,0.0000,1.0000,0.2440,0.0004,0.0251
174517,Left,0,-0.0060,-0.0048,-0.9988,-0.0484,0.0113,0.0038,0.0029,-0.0117,0.1082,-0.0932,0.1347,-0.0090,9.7192,0.0001,0.0000,0.0000,1.0000,0.0034,-0.0003,0.2430
174517,Right,606208,-0.0103,0.0045,-0.9384,-0.3454,0.0047,0.0051,0.0035,-0.0136,0.0562,0.1443,0.2715,-0.0467,9.9533,0.0001,0.0001,0.0000,1.0000,0.0068,-0.0012,0.2488
174518,Pelvis,0,-0.6693,0.0189,-0.7424,-0.0216,0.0027,0.0018,0.0014,0.0234,-0.0051,0.0166,9.7741,0.0113,1.0398,0.0000,0.0000,0.0000,1.0000,0.2444,0.0003,0.0260
174518,Left,0,-0.0060,-0.0049,-0.9988,-0.0484,0.0111,0.0035,0.0021,-0.0071,0.1140,-0.0984,0.1304,-0.0139,9.7141,0.0001,0.0000,0.0000,1.0000,0.0033,-0.0004,0.2429
174518,Right,606208,-0.0103,0.0044,-0.9384,-0.3453,0.0041,0.0062,0.0042,-0.0129,0.0708,0.1693,0.2801,-0.0576,9.9781,0.0001,0.0001,0.0001,1.0000,0.0070,-0.0015,0.2495
174519,Pelvis,0,-0.6692,0.0189,-0.7426,-0.0216,0.0004,0.0003,0.0013,0.0001,-0.0045,-0.0070,9.7527,0.0127,1.0179,0.0000,0.0000,0.0000,1.0000,0.2438,0.0003,0.0254
174519,Left,0,-0.0060,-0.0049,-0.9988,-0.0484,0.0117,0.0047,0.0028,-0.0106,0.1054,-0.0932,0.1328,-0.0036,9.7192,0.0001,0.0001,0.0000,1.0000,0.0033,-0.0001,0.2430
174519,Right,606208,-0.0103,0.0044,-0.9384,-0.3453,0.0039,0.0055,0.0034,-0.0132,0.0549,0.1443,0.2686,-0.0446,9.9534,0.0000,0.0001,0.0000,1.0000,0.0067,-0.0011,0.2488
174520,Pelvis,0,-0.6690,0.0189,-0.7427,-0.0218,0.0043,0.0020,0.0031,-0.0105,-0.0012,0.0078,9.7683,0.0121,1.0117,0.0001,0.0000,0.0000,1.0000,0.2442,0.0003,0.0253
174520,Left,0,-0.0060,-0.0050,-0.9988,-0.0484,0.0105,0.0048,0.0021,-0.0051,0.1250,-0.0969,0.1287,-0.0222,9.7157,0.0001,0.0001,0.0000,1.0000,0.0032,-0.0006,0.2429
174520,Right,606208,-0.0103,0.0043,-0.9385,-0.3452,0.0051,0.0033,0.0029,-0.0109,0.0838,0.1529,0.2852,-0.0675,9.9616,0.0001,0.0000,0.0000,1.0000,0.0071,-0.0017,0.2490
174521,Pelvis,0,-0.6690,0.0190,-0.7427,-0.0221,-0.0003,0.0006,0.0018,-0.0141,-0.0003,-0.0008,9.7601,0.0139,1.0071,-0.0000,0.0000,0.0000,1.0000,0.2440,0.0004,0.0252
174521,Left,0,-0.0060,-0.0051,-0.9988,-0.0483,0.0119,0.0041,0.0031,-0.0168,0.1175,-0.0966,0.1393,-0.0122,9.7158,0.0001,0.0001,0.0000,1.0000,0.0035,-0.0003,0.2429
174521,Right,606208,-0.0103,0.0043,-0.9385,-0.3452,0.0021,0.0055,0.0033,-0.0245,0.0609,0.1438,0.2801,-0.0408,9.9527,0.0000,0.0001,0.0000,1.0000,0.0070,-0.0010,0.2488
174522,Pelvis,0,-0.6693,0.0192,-0.7424,-0.0223,0.0020,0.0029,0.0023,0.0213,0.0008,0.0080,9.7659,0.0119,1.0362,0.0000,0.0000,0.0000,1.0000,0.2441,0.0003,0.0259
174522,Right,606208,-0.0102,0.0043,-0.9385,-0.3452,0.0042,0.0063,0.0033,-0.0058,0.0639,0.1488,0.2670,-0.0548,9.9580,0.0001,0.0001,0.0000,1.0000,0.0067,-0.0014,0.2489
174523,Pelvis,0,-0.6693,0.0197,-0.7424,-0.0227,0.0017,0.0009,0.0021,-0.0026,0.0005,0.0078,9.7681,0.0106,1.0129,0.0000,0.0000,0.0000,1.0000,0.2442,0.0003,0.0253
174523,Left,0,-0.0059,-0.0053,-0.9988,-0.0483,0.0114,0.0041,0.0024,-0.0219,0.1122,-0.0881,0.1431,-0.0034,9.7242,0.0003,0.0001,0.0001,1.0000,0.0072,-0.0003,0.4862
174523,Right,606208,-0.0121,0.0074,-0.9373,-0.3482,0.0032,0.0049,0.0040,-0.0097,-0.0116,0.1440,0.2772,-0.0391,9.9528,0.0000,0.0001,0.0000,1.0000,0.0069,-0.0010,0.2488
174524,Pelvis,2,-0.6693,0.0197,-0.7424,-0.0227,0.0026,0.0020,0.0020,0.0072,0.0158,-0.0005,9.7590,-0.0054,1.0209,0.0000,0.0000,0.0000,1.0000,0.2440,-0.0001,0.0255
174524,Left,2,-0.0060,-0.0053,-0.9988,-0.0483,0.0114,0.0048,0.0034,-0.0163,0.1333,-0.0886,0.1403,-0.0237,9.7240,0.0001,0.0001,0.0000,1.0000,0.0035,-0.0006,0.2431
174524,Right,606208,-0.0121,0.0074,-0.9373,-0.3482,0.0038,0.0048,0.0026,-0.0043,-0.0047,0.1578,0.2781,-0.0479,9.9665,0.0000,0.0001,0.0000,1.0000,0.0070,-0.0012,0.2492
174525,Pelvis,2,-0.6693,0.0197,-0.7424,-0.0227,0.0027,0.0018,0.0014,-0.0033,-0.0142,0.0013,9.7616,0.0253,1.0125,0.0000,0.0000,0.0000,1.0000,0.2440,0.0006,0.0253
174525,Left,2,-0.0059,-0.0054,-0.9988,-0.0483,0.0116,0.0054,0.0025,-0.0246,0.1176,-0.0781,0.1459,-0.0057,9.7342,0.0001,0.0001,0.0000,1.0000,0.0037,-0.0002,0.2434
174525,Right,606208,-0.0121,0.0074,-0.9373,-0.3482,0.0037,0.0047,0.0035,0.0053,-0.0045,0.1603,0.2711,-0.0544,9.9692,0.0000,0.0001,0.0000,1.0000,0.0068,-0.0014,0.2492
174526,Pelvis,2,-0.6693,0.0196,-0.7424,-0.0226,0.0024,0.0014,0.0022,-0.0056,-0.0003,-0.0007,9.7599,0.0118,1.0092,0.0000,0.0000,0.0000,1.0000,0.2440,0.0003,0.0252
174526,Left,2,-0.0059,-0.0054,-0.9988,-0.0483,0.0114,0.0051,0.0018,-0.0166,0.1167,-0.0899,0.1375,-0.0044,9.7225,0.0001,0.0001,0.0000,1.0000,0.0035,-0.0001,0.2431
174526,Right,606208,-0.0121,0.0074,-0.9373,-0.3482,0.0052,0.0049,0.0031,-0.0109,-0.0069,0.1461,0.2815,-0.0418,9.9548,0.0001,0.0001,0.0000,1.0000,0.0071,-0.0011,0.2489
174527,Pelvis,2,-0.6693,0.0196,-0.7424,-0.0226,0.0023,0.0008,0.0023,0.0143,-0.0043,-0.0092,9.7494,0.0145,1.0284,0.0000,0.0000,0.0000,1.0000,0.2437,0.0004,0.0257
174527,Left,2,-0.0059,-0.0055,-0.9988,-0.0483,0.0110,0.0048,0.0040,-0.0071,0.1280,-0.0836,0.1283,-0.0151,9.7291,0.0001,0.0001,0.0000,1.0000,0.0032,-0.0004,0.2432
174527,Right,606208,-0.0122,0.0074,-0.9373,-0.3482,0.0043,0.0037,0.0028,-0.0036,0.0026,0.1508,0.2824,-0.0535,9.9593,0.0001,0.0000,0.0000,1.0000,0.0071,-0.0014,0.2490
174528,Pelvis,2,-0.6693,0.0197,-0.7424,-0.0227,0.0007,0.0024,0.0021,-0.0097,-0.0070,0.0034,9.7644,0.0185,1.0061,0.0000,0.0000,0.0000,1.0000,0.2441,0.0005,0.0251
174528,Left,2,-0.0059,-0.0056,-0.9988,-0.0483,0.0128,0.0028,0.0024,-0.0218,0.1269,-0.0766,0.1428,-0.0110,9.7358,0.0002,0.0000,0.0000,1.0000,0.0036,-0.0003,0.2434
174528,Right,606208,-0.0121,0.0074,-0.9373,-0.3482,0.0028,0.0077,0.0039,-0.0053,-0.0016,0.1600,0.2811,-0.0495,9.9686,0.0000,0.0001,0.0000,1.0000,0.0071,-0.0012,0.2492
174529,Pelvis,2,-0.6693,0.0197,-0.7424,-0.0227,0.0023,-0.0001,0.0012,0.0112,-0.0008,0.0143,9.7731,0.0111,1.0275,0.0000,-0.0000,0.0000,1.0000,0.2443,0.0003,0.0257
174529,Left,2,-0.0058,-0.0057,-0.9988,-0.0483,0.0098,0.0039,0.0028,-0.0062,0.1252,-0.0835,0.1265,-0.0094,9.7291,0.0001,0.0000,0.0000,1.0000,0.0032,-0.0003,0.2432
174529,Right,606208,-0.0121,0.0074,-0.9373,-0.3482,0.0047,0.0051,0.0035,-0.0032,0.0114,0.1437,0.2872,-0.0605,9.9521,0.0001,0.0001,0.0000,1.0000,0.0072,-0.0015,0.2488
174530,Pelvis,2,-0.6693,0.0197,-0.7424,-0.0227,0.0027,0.0018,0.0014,-0.0001,0.0034,0.0078,9.7679,0.0078,1.0153,0.0000,0.0000,0.0000,1.0000,0.2442,0.0002,0.0254
174530,Left,2,-0.0058,-0.0057,-0.9988,-0.0483,0.0109,0.0045,0.0032,-0.0181,0.1331,-0.0986,0.1389,-0.0153,9.7140,0.0001,0.0001,0.0000,1.0000,0.0035,-0.0004,0.2429
174530,Right,606208,-0.0121,0.0074,-0.9373,-0.3482,0.0040,0.0045,0.0041,-0.0116,-0.0156,0.1553,0.2763,-0.0346,9.9642,0.0001,0.0001,0.0001,1.0000,0.0069,-0.0009,0.2491
174531,Pelvis,2,-0.6693,0.0196,-0.7424,-0.0226,0.0018,0.0015,0.0020,0.0166,0.0074,0.0101,9.7685,0.0028,1.0319,0.0000,0.0000,0.0000,1.0000,0.2442,0.0001,0.0258
174531,Left,2,-0.0058,-0.0058,-0.9988,-0.0483,0.0112,0.0054,0.0031,-0.0091,0.1305,-0.0936,0.1293,-0.0122,9.7191,0.0001,0.0001,0.0000,1.0000,0.0032,-0.0003,0.2430
174531,Right,606208,-0.0121,0.0074,-0.9373,-0.3482,0.0043,0.0052,0.0039,0.0050,-0.0044,0.1625,0.2712,-0.0538,9.9713,0.0001,0.0001,0.0000,1.0000,0.0068,-0.0014,0.2493
174532,Pelvis,2,-0.6693,0.0196,-0.7424,-0.0226,0.0020,0.0011,0.0008,0.0155,-0.0077,0.0036,9.7619,0.0180,1.0311,0.0000,0.0000,0.0000,1.0000,0.2440,0.0005,0.0258
174532,Left,2,-0.0058,-0.0059,-0.9988,-0.0483,0.0115,0.0044,0.0020,-0.0165,0.1301,-0.0985,0.1365,-0.0098,9.7141,0.0001,0.0001,0.0000,1.0000,0.0034,-0.0003,0.2429
174532,Right,606208,-0.0121,0.0074,-0.9373,-0.3482,0.0033,0.0050,0.0030,-0.0142,-0.0125,0.1252,0.2794,-0.0349,9.9340,0.0000,0.0001,0.0000,1.0000,0.0070,-0.0009,0.2483
174533,Pelvis,2,-0.6693,0.0196,-0.7424,-0.0226,0.0018,0.0007,0.0015,-0.0032,0.0024,-0.0007,9.7597,0.0092,1.0113,0.0000,0.0000,0.0000,1.0000,0.2440,0.0002,0.0253
174533,Left,2,-0.0058,-0.0059,-0.9988,-0.0483,0.0104,0.0051,0.0035,-0.0234,0.1280,-0.0867,0.1424,-0.0056,9.7258,0.0001,0.0001,0.0000,1.0000,0.0036,-0.0002,0.2431
174533,Right,606208,-0.0121,0.0074,-0.9373,-0.3482,0.0033,0.0050,0.0030,-0.0059,0.0001,0.1621,0.2824,-0.0503,9.9707,0.0000,0.0001,0.0000,1.0000,0.0071,-0.0013,0.2493
174534,Pelvis,2,-0.6693,0.0196,-0.7424,-0.0227,0.0019,0.0005,0.0010,-0.0192,-0.0009,-0.0030,9.7591,0.0136,0.9952,0.0000,0.0000,0.0000,1.0000,0.2440,0.0003,0.0249
174534,Left,2,-0.0057,-0.0060,-0.9988,-0.0483,0.0101,0.0026,0.0033,-0.0164,0.1273,-0.0985,0.1344,-0.0047,9.7141,0.0001,0.0000,0.0000,1.0000,0.0034,-0.0001,0.2429
174534,Right,606208,-0.0121,0.0074,-0.9373,-0.3482,0.0037,0.0047,0.0035,0.0061,-0.0090,0.1625,0.2675,-0.0513,9.9714,0.0000,0.0001,0.0000,1.0000,0.0067,-0.0013,0.2493
174535,Pelvis,2,-0.6693,0.0196,-0.7424,-0.0227,0.0028,0.0016,0.0009,0.0064,0.0127,0.0037,9.7632,-0.0013,1.0205,0.0000,0.0000,0.0000,1.0000,0.2441,-0.0000,0.0255
174535,Left,2,-0.0057,-0.0060,-0.9988,-0.0483,0.0111,0.0063,0.0012,-0.0285,0.1353,-0.1135,0.1467,-0.0105,9.6990,0.0001,0.0001,0.0000,1.0000,0.0037,-0.0003,0.2425
174535,Right,606208,-0.0122,0.0074,-0.9373,-0.3482,0.0039,0.0028,0.0039,-0.0052,-0.0030,0.1621,0.2802,-0.0485,9.9707,0.0000,0.0000,0.0000,1.0000,0.0070,-0.0012,0.2493
174536,Pelvis,2,-0.6693,0.0196,-0.7424,-0.0226,0.0040,0.0008,0.0034,0.0095,-0.0003,0.0057,9.7648,0.0115,1.0245,0.0001,0.0000,0.0000,1.0000,0.2441,0.0003,0.0256
174536,Left,2,-0.0058,-0.0061,-0.9988,-0.0482,0.0112,0.0032,0.0037,-0.0204,0.1373,-0.0852,0.1396,-0.0116,9.7275,0.0001,0.0000,0.0000,1.0000,0.0035,-0.0003,0.2432
174536,Right,606208,-0.0121,0.0074,-0.9373,-0.3482,0.0035,0.0067,0.0023,0.0045,-0.0028,0.1646,0.2732,-0.0550,9.9734,0.0000,0.0001,0.0000,1.0000,0.0069,-0.0014,0.2493
174537,Pelvis,2,-0.6693,0.0196,-0.7424,-0.0226,0.0021,0.0019,0.0013,-0.0065,-0.0036,0.0034,9.7641,0.0156,1.0085,0.0000,0.0000,0.0000,1.0000,0.2441,0.0004,0.0252
174537,Left,2,-0.0057,-0.0062,-0.9988,-0.0482,0.0126,0.0050,0.0024,-0.0134,0.1366,-0.0970,0.1315,-0.0103,9.7158,0.0002,0.0001,0.0000,1.0000,0.0033,-0.0003,0.2429
174537,Right,606208,-0.0122,0.0074,-0.9373,-0.3482,0.0042,0.0035,0.0038,-0.0035,-0.0065,0.1207,0.2755,-0.0467,9.9294,0.0001,0.0000,0.0000,1.0000,0.0069,-0.0012,0.2482
174538,Pelvis,2,-0.6693,0.0196,-0.7424,-0.0226,0.0025,0.0012,0.0016,0.0144,0.0026,0.0143,9.7728,0.0083,1.0301,0.0000,0.0000,0.0000,1.0000,0.2443,0.0002,0.0257
174538,Left,2,-0.0057,-0.0063,-0.9988,-0.0482,0.0110,0.0038,0.0034,-0.0312,0.1575,-0.0987,0.1512,-0.0280,9.7141,0.0001,0.0000,0.0000,1.0000,0.0038,-0.0007,0.2429
174538,Right,606208,-0.0122,0.0074,-0.9373,-0.3482,0.0043,0.0052,0.0039,0.0071,-0.0032,0.1554,0.2708,-0.0562,9.9643,0.0001,0.0001,0.0000,1.0000,0.0068,-0.0014,0.2491
174539,Pelvis,2,-0.6693,0.0196,-0.7424,-0.0226,0.0018,0.0015,0.0020,0.0058,-0.0067,0.0099,9.7692,0.0180,1.0217,0.0000,0.0000,0.0000,1.0000,0.2442,0.0005,0.0255
174539,Left,2,-0.0057,-0.0063,-0.9988,-0.0482,0.0114,0.0048,0.0034,-0.0286,0.1357,-0.1068,0.1461,-0.0055,9.7058,0.0001,0.0001,0.0000,1.0000,0.0037,-0.0002,0.2426
174539,Right,606208,-0.0122,0.0074,-0.9373,-0.3482,0.0040,0.0056,0.0025,0.0128,-0.0083,0.1763,0.2637,-0.0561,9.9853,0.0001,0.0001,0.0000,1.0000,0.0066,-0.0014,0.2496
174540,Right,606208,-0.0121,0.0074,-0.9373,-0.3482,0.0036,0.0057,0.0029,-0.0201,-0.0114,0.1479,0.2855,-0.0321,9.9565,0.0000,0.0001,0.0000,1.0000,0.0072,-0.0008,0.2489
174541,Pelvis,2,-0.6693,0.0196,-0.7424,-0.0226,0.0016,0.0018,0.0019,0.0038,-0.0100,0.0119,9.7715,0.0213,1.0204,0.0000,0.0000,0.0000,1.0000,0.4886,0.0011,0.0510
174541,Left,2,-0.0057,-0.0065,-0.9988,-0.0482,0.0115,0.0046,0.0027,-0.0251,0.1370,-0.1010,0.1421,-0.0042,9.7117,0.0003,0.0001,0.0001,1.0000,0.0072,-0.0003,0.4856
174541,Right,606208,-0.0121,0.0074,-0.9373,-0.3482,0.0036,0.0057,0.0029,0.0084,-0.0197,0.1624,0.2588,-0.0446,9.9717,0.0000,0.0001,0.0000,1.0000,0.0065,-0.0011,0.2493
174542,Pelvis,2,-0.6693,0.0196,-0.7424,-0.0227,0.0011,0.0018,0.0024,0.0075,-0.0002,-0.0029,9.7564,0.0114,1.0219,0.0000,0.0000,0.0000,1.0000,0.2439,0.0003,0.0255
174542,Left,2,-0.0057,-0.0065,-0.9988,-0.0482,0.0109,0.0045,0.0032,-0.0155,0.1418,-0.0836,0.1335,-0.0086,9.7292,0.0001,0.0001,0.0000,1.0000,0.0033,-0.0002,0.2432
174542,Right,606208,-0.0121,0.0074,-0.9373,-0.3482,0.0039,0.0038,0.0032,0.0062,-0.0001,0.1575,0.2732,-0.0580,9.9663,0.0000,0.0000,0.0000,1.0000,0.0068,-0.0015,0.2492
174543,Pelvis,2,-0.6693,0.0196,-0.7424,-0.0226,0.0041,0.0030,0.0021,0.0078,0.0001,-0.0029,9.7564,0.0109,1.0225,0.0001,0.0000,0.0000,1.0000,0.2439,0.0003,0.0256
174543,Left,2,-0.0056,-0.0066,-0.9988,-0.0482,0.0117,0.0038,0.0023,-0.0351,0.1490,-0.0868,0.1529,-0.0127,9.7259,0.0001,0.0000,0.0000,1.0000,0.0038,-0.0004,0.2431
174543,Right,606208,-0.0122,0.0074,-0.9373,-0.3482,0.0027,0.0044,0.0026,-0.0051,0.0060,0.1572,0.2858,-0.0554,9.9656,0.0000,0.0001,0.0000,1.0000,0.0072,-0.0014,0.2491
174544,Pelvis,2,-0.6693,0.0196,-0.7424,-0.0226,0.0018,0.0007,0.0015,-0.0082,-0.0032,-0.0052,9.7557,0.0151,1.0067,0.0000,0.0000,0.0000,1.0000,0.2439,0.0004,0.0252
174544,Right,606208,-0.0121,0.0074,-0.9373,-0.3482,0.0053,0.0066,0.0033,-0.0005,-0.0022,0.1458,0.2766,-0.0521,9.9546,0.0001,0.0001,0.0000,1.0000,0.0069,-0.0013,0.2489
174545,Pelvis,2,-0.6693,0.0196,-0.7424,-0.0226,0.0022,0.0018,0.0033,-0.0227,0.0091,-0.0009,9.7616,0.0036,0.9919,0.0000,0.0000,0.0000,1.0000,0.2440,0.0001,0.0248
174545,Left,2,-0.0056,-0.0068,-0.9988,-0.0482,0.0119,0.0051,0.0036,-0.0340,0.1529,-0.1061,0.1508,-0.0142,9.7067,0.0003,0.0001,0.0001,1.0000,0.0076,-0.0009,0.4853
174545,Right,606208,-0.0122,0.0074,-0.9373,-0.3482,0.0030,0.0025,0.0030,-0.0114,-0.0080,0.1525,0.2813,-0.0405,9.9612,0.0000,0.0000,0.0000,1.0000,0.0070,-0.0010,0.2490
174546,Pelvis,2,-0.6692,0.0196,-0.7424,-0.0226,0.0012,0.0016,0.0018,0.0137,0.0087,-0.0071,9.7517,0.0017,1.0275,0.0000,0.0000,0.0000,1.0000,0.2438,0.0000,0.0257
174546,Left,2,-0.0056,-0.0068,-0.9988,-0.0481,0.0108,0.0035,0.0026,-0.0061,0.1522,-0.1107,0.1236,-0.0146,9.7024,0.0001,0.0000,0.0000,1.0000,0.0031,-0.0004,0.2426
174546,Right,606208,-0.0122,0.0074,-0.9373,-0.3482,0.0040,0.0045,0.0041,0.0025,-0.0145,0.1437,0.2668,-0.0447,9.9527,0.0001,0.0001,0.0001,1.0000,0.0067,-0.0011,0.2488
174547,Pelvis,2,-0.6692,0.0196,-0.7424,-0.0226,0.0033,0.0017,0.0016,0.0051,-0.0006,-0.0115,9.7481,0.0114,1.0192,0.0000,0.0000,0.0000,1.0000,0.2437,0.0003,0.0255
174547,Left,2,-0.0056,-0.0069,-0.9988,-0.0481,0.0119,0.0041,0.0030,-0.0254,0.1621,-0.0736,0.1443,-0.0208,9.7393,0.0001,0.0001,0.0000,1.0000,0.0036,-0.0006,0.2435
174547,Right,606208,-0.0122,0.0074,-0.9373,-0.3482,0.0038,0.0048,0.0026,-0.0058,-0.0027,0.1664,0.2813,-0.0484,9.9750,0.0000,0.0001,0.0000,1.0000,0.0070,-0.0012,0.2494
174548,Pelvis,2,-0.6692,0.0196,-0.7424,-0.0226,0.0021,0.0019,0.0013,-0.0031,-0.0049,0.0162,9.7764,0.0163,1.0142,0.0000,0.0000,0.0000,1.0000,0.2444,0.0004,0.0253
174548,Left,2,-0.0056,-0.0070,-0.9988,-0.0481,0.0111,0.0051,0.0023,-0.0151,0.1549,-0.0921,0.1324,-0.0136,9.7209,0.0001,0.0001,0.0000,1.0000,0.0033,-0.0004,0.2430
174548,Right,606208,-0.0122,0.0074,-0.9373,-0.3482,0.0044,0.0053,0.0030,-0.0012,-0.0109,0.1550,0.2722,-0.0451,9.9639,0.0001,0.0001,0.0000,1.0000,0.0068,-0.0011,0.2491
174549,Pelvis,2,-0.6692,0.0196,-0.7424,-0.0226,0.0019,0.0013,0.0014,-0.0111,-0.0088,-0.0010,9.7601,0.0208,1.0048,0.0000,0.0000,0.0000,1.0000,0.2440,0.0005,0.0251
174549,Left,2,-0.0056,-0.0070,-0.9988,-0.0481,0.0112,0.0045,0.0026,-0.0194,0.1617,-0.1022,0.1362,-0.0189,9.7109,0.0001,0.0001,0.0000,1.0000,0.0034,-0.0005,0.2428
174549,Right,606208,-0.0122,0.0074,-0.9373,-0.3482,0.0035,0.0056,0.0038,-0.0011,-0.0005,0.1480,0.2786,-0.0529,9.9566,0.0000,0.0001,0.0000,1.0000,0.0070,-0.0013,0.2489
174550,Pelvis,2,-0.6692,0.0196,-0.7424,-0.0226,0.0024,0.0014,0.0022,0.0131,-0.0107,-0.0009,9.7577,0.0213,1.0289,0.0000,0.0000,0.0000,1.0000,0.2439,0.0005,0.0257
174550,Left,2,-0.0055,-0.0071,-0.9988,-0.0481,0.0126,0.0060,0.0029,-0.0359,0.1651,-0.0718,0.1528,-0.0189,9.7411,0.0002,0.0001,0.0000,1.0000,0.0038,-0.0005,0.2435
174550,Right,606208,-0.0121,0.0074,-0.9373,-0.3482,0.0047,0.0067,0.0047,-0.0028,-0.0047,0.1572,0.2771,-0.0486,9.9659,0.0001,0.0001,0.0001,1.0000,0.0069,-0.0012,0.2491
174551,Pelvis,2,-0.6692,0.0196,-0.7424,-0.0226,0.0028,0.0016,0.0009,0.0102,-0.0023,0.0099,9.7687,0.0131,1.0267,0.0000,0.0000,0.0000,1.0000,0.2442,0.0003,0.0257
174551,Left,2,-0.0055,-0.0071,-0.9988,-0.0482,0.0110,0.0039,0.0034,-0.0101,0.1571,-0.0972,0.1254,-0.0128,9.7159,0.0001,0.0000,0.0000,1.0000,0.0031,-0.0004,0.2429
174551,Right,606208,-0.0121,0.0074,-0.9373,-0.3482,0.0029,0.0051,0.0034,0.0068,-0.0045,0.1597,0.2698,-0.0551,9.9686,0.0000,0.0001,0.0000,1.0000,0.0068,-0.0014,0.2492
174552,Pelvis,2,-0.6692,0.0196,-0.7424,-0.0226,0.0004,0.0013,0.0024,0.0022,-0.0062,-0.0073,9.7525,0.0175,1.0172,0.0000,0.0000,0.0000,1.0000,0.2438,0.0004,0.0254
174552,Left,2,-0.0055,-0.0072,-0.9988,-0.0481,0.0109,0.0054,0.0037,-0.0033,0.1608,-0.0856,0.1196,-0.0158,9.7276,0.0001,0.0001,0.0000,1.0000,0.0030,-0.0004,0.2432
174552,Right,606208,-0.0121,0.0074,-0.9373,-0.3482,0.0030,0.0052,0.0025,0.0114,-0.0126,0.1483,0.2607,-0.0521,9.9575,0.0000,0.0001,0.0000,1.0000,0.0065,-0.0013,0.2489
174553,Pelvis,2,-0.6692,0.0196,-0.7424,-0.0226,0.0019,0.0023,0.0025,-0.0081,0.0082,0.0056,9.7664,0.0036,1.0075,0.0000,0.0000,0.0000,1.0000,0.2442,0.0001,0.0252
174553,Left,2,-0.0055,-0.0073,-0.9988,-0.0481,0.0115,0.0035,0.0015,-0.0431,0.1630,-0.0934,0.1591,-0.0131,9.7194,0.0001,0.0000,0.0000,1.0000,0.0040,-0.0004,0.2430
174553,Right,606208,-0.0121,0.0074,-0.9373,-0.3482,0.0033,0.0065,0.0041,0.0002,-0.0066,0.1480,0.2729,-0.0495,9.9568,0.0000,0.0001,0.0001,1.0000,0.0068,-0.0012,0.2489
174554,Pelvis,2,-0.6692,0.0196,-0.7424,-0.0226,0.0031,0.0004,0.0013,-0.0214,-0.0085,0.0053,9.7674,0.0211,0.9953,0.0000,0.0000,0.0000,1.0000,0.2442,0.0005,0.0249
174554,Left,2,-0.0055,-0.0073,-0.9988,-0.0481,0.0110,0.0039,0.0034,-0.0303,0.1675,-0.0936,0.1464,-0.0176,9.7194,0.0001,0.0000,0.0000,1.0000,0.0037,-0.0005,0.2430
174554,Right,606208,-0.0121,0.0074,-0.9373,-0.3482,0.0039,0.0038,0.0033,-0.0038,-0.0015,0.1593,0.2794,-0.0509,9.9680,0.0000,0.0000,0.0000,1.0000,0.0070,-0.0013,0.2492
174555,Pelvis,2,-0.6692,0.0196,-0.7424,-0.0226,0.0018,0.0015,0.0020,0.0075,-0.0030,0.0013,9.7605,0.0139,1.0231,0.0000,0.0000,0.0000,1.0000,0.2440,0.0004,0.0256
174555,Left,2,-0.0055,-0.0074,-0.9988,-0.0481,0.0117,0.0048,0.0028,-0.0339,0.1586,-0.0884,0.1487,-0.0072,9.7245,0.0001,0.0001,0.0000,1.0000,0.0037,-0.0002,0.2431
174555,Right,606208,-0.0121,0.0074,-0.9373,-0.3482,0.0035,0.0056,0.0038,-0.0034,-0.0030,0.1593,0.2783,-0.0500,9.9680,0.0000,0.0001,0.0000,1.0000,0.0070,-0.0013,0.2492
174556,Pelvis,2,-0.6692,0.0196,-0.7424,-0.0226,0.0018,0.0015,0.0020,0.0046,0.0055,0.0120,9.7715,0.0056,1.0209,0.0000,0.0000,0.0000,1.0000,0.2443,0.0001,0.0255
174556,Left,2,-0.0055,-0.0074,-0.9988,-0.0481,0.0114,0.0038,0.0028,-0.0170,0.1704,-0.0939,0.1326,-0.0193,9.7194,0.0001,0.0000,0.0000,1.0000,0.0033,-0.0005,0.2430
174556,Right,606208,-0.0121,0.0074,-0.9373,-0.3482,0.0048,0.0052,0.0026,0.0135,-0.0038,0.1735,0.2653,-0.0605,9.9825,0.0001,0.0001,0.0000,1.0000,0.0066,-0.0015,0.2496
174557,Pelvis,2,-0.6692,0.0196,-0.7424,-0.0226,0.0025,0.0012,0.0016,0.0008,0.0037,0.0034,9.7633,0.0076,1.0163,0.0000,0.0000,0.0000,1.0000,0.2441,0.0002,0.0254
174557,Left,2,-0.0054,-0.0075,-0.9988,-0.0481,0.0102,0.0048,0.0027,-0.0249,0.1698,-0.0987,0.1399,-0.0171,9.7144,0.0001,0.0001,0.0000,1.0000,0.0035,-0.0005,0.2429
174557,Right,606208,-0.0121,0.0074,-0.9373,-0.3482,0.0032,0.0047,0.0049,-0.0171,-0.0160,0.1430,0.2795,-0.0310,9.9517,0.0000,0.0001,0.0001,1.0000,0.0070,-0.0008,0.2488
174558,Pelvis,2,-0.6693,0.0196,-0.7424,-0.0226,0.0023,0.0008,0.0023,-0.0268,0.0042,-0.0053,9.7576,0.0087,0.9879,0.0000,0.0000,0.0000,1.0000,0.2439,0.0002,0.0247
174558,Left,2,-0.0055,-0.0075,-0.9988,-0.0480,0.0102,0.0036,0.0038,-0.0403,0.1549,-0.0933,0.1540,0.0003,9.7195,0.0001,0.0000,0.0000,1.0000,0.0039,-0.0000,0.2430
174558,Right,606208,-0.0121,0.0075,-0.9373,-0.3482,0.0033,0.0049,0.0030,-0.0050,0.0136,0.1545,0.2901,-0.0616,9.9628,0.0000,0.0001,0.0000,1.0000,0.0073,-0.0015,0.2491
174559,Pelvis,2,-0.6693,0.0196,-0.7424,-0.0226,0.0009,0.0014,0.0031,-0.0106,0.0029,0.0097,9.7708,0.0088,1.0054,0.0000,0.0000,0.0000,1.0000,0.2443,0.0002,0.0251
174559,Left,2,-0.0054,-0.0076,-0.9988,-0.0481,0.0124,0.0048,0.0016,-0.0190,0.1580,-0.0886,0.1328,-0.0038,9.7245,0.0002,0.0001,0.0000,1.0000,0.0033,-0.0001,0.2431
174559,Right,606208,-0.0121,0.0075,-0.9373,-0.3482,0.0038,0.0048,0.0026,-0.0002,-0.0064,0.1501,0.2732,-0.0496,9.9590,0.0000,0.0001,0.0000,1.0000,0.0068,-0.0013,0.2490
174560,Pelvis,2,-0.6692,0.0197,-0.7424,-0.0226,0.0019,0.0023,0.0025,-0.0103,0.0032,0.0097,9.7708,0.0081,1.0059,0.0000,0.0000,0.0000,1.0000,0.2443,0.0002,0.0251
174560,Left,2,-0.0054,-0.0077,-0.9988,-0.0480,0.0116,0.0064,0.0030,-0.0275,0.1733,-0.1087,0.1415,-0.0171,9.7045,0.0001,0.0001,0.0000,1.0000,0.0036,-0.0005,0.2426
174560,Right,606208,-0.0121,0.0074,-0.9373,-0.3482,0.0049,0.0057,0.0044,0.0075,-0.0089,0.1618,0.2661,-0.0527,9.9708,0.0001,0.0001,0.0001,1.0000,0.0067,-0.0013,0.2493
174561,Pelvis,2,-0.6692,0.0197,-0.7424,-0.0226,0.0015,0.0028,0.0016,0.0009,-0.0105,-0.0031,9.7567,0.0210,1.0167,0.0000,0.0000,0.0000,1.0000,0.2439,0.0005,0.0254
174561,Left,2,-0.0054,-0.0077,-0.9988,-0.0480,0.0116,0.0054,0.0025,-0.0258,0.1560,-0.0934,0.1384,0.0015,9.7195,0.0001,0.0001,0.0000,1.0000,0.0035,0.0000,0.2430
174561,Right,606208,-0.0121,0.0075,-0.9373,-0.3482,0.0023,0.0061,0.0041,-0.0038,-0.0029,0.1615,0.2783,-0.0500,9.9702,0.0000,0.0001,0.0001,1.0000,0.0070,-0.0013,0.2493
174562,Pelvis,2,-0.6692,0.0197,-0.7424,-0.0226,0.0017,0.0009,0.0021,-0.0020,-0.0020,0.0076,9.7677,0.0127,1.0145,0.0000,0.0000,0.0000,1.0000,0.2442,0.0003,0.0254
174562,Left,2,-0.0054,-0.0078,-0.9988,-0.0480,0.0114,0.0048,0.0034,-0.0358,0.1756,-0.0902,0.1496,-0.0159,9.7230,0.0001,0.0001,0.0000,1.0000,0.0038,-0.0004,0.2431
174562,Right,606208,-0.0121,0.0074,-0.9373,-0.3482,0.0045,0.0044,0.0027,-0.0037,0.0075,0.1545,0.2847,-0.0580,9.9629,0.0001,0.0001,0.0000,1.0000,0.0071,-0.0015,0.2491
174563,Pelvis,2,-0.6692,0.0197,-0.7424,-0.0226,0.0012,0.0016,0.0018,-0.0058,-0.0038,-0.0010,9.7596,0.0147,1.0099,0.0000,0.0000,0.0000,1.0000,0.2440,0.0004,0.0252
174563,Left,2,-0.0054,-0.0079,-0.9988,-0.0480,0.0118,0.0032,0.0025,-0.0333,0.1693,-0.1135,0.1463,-0.0091,9.6996,0.0001,0.0000,0.0000,1.0000,0.0037,-0.0003,0.2425
174563,Right,606208,-0.0121,0.0074,-0.9373,-0.3482,0.0037,0.0047,0.0036,-0.0012,-0.0033,0.1523,0.2758,-0.0514,9.9611,0.0000,0.0001,0.0000,1.0000,0.0069,-0.0013,0.2490
174564,Pelvis,2,-0.6692,0.0197,-0.7424,-0.0226,0.0023,0.0016,0.0028,0.0029,0.0008,0.0162,9.7758,0.0094,1.0201,0.0000,0.0000,0.0000,1.0000,0.2444,0.0002,0.0255
174564,Left,2,-0.0054,-0.0079,-0.9988,-0.0480,0.0119,0.0042,0.0030,-0.0312,0.1656,-0.0968,0.1440,-0.0042,9.7163,0.0001,0.0001,0.0000,1.0000,0.0036,-0.0001,0.2429
174565,Pelvis,2,-0.6692,0.0197,-0.7424,-0.0226,0.0012,0.0016,0.0018,0.0229,-0.0033,0.0077,9.7653,0.0121,1.0394,0.0000,0.0000,0.0000,1.0000,0.2441,0.0003,0.0260
174565,Left,2,-0.0054,-0.0080,-0.9988,-0.0480,0.0116,0.0042,0.0036,-0.0139,0.1616,-0.0869,0.1263,-0.0005,9.7263,0.0001,0.0001,0.0000,1.0000,0.0032,-0.0000,0.2432
174565,Right,606208,-0.0121,0.0075,-0.9373,-0.3482,0.0035,0.0040,0.0032,0.0085,-0.0031,0.1548,0.2683,-0.0575,9.9637,0.0001,0.0001,0.0001,1.0000,0.0135,-0.0029,0.4982
174566,Pelvis,2,-0.6692,0.0197,-0.7424,-0.0227,0.0015,0.0002,-0.0004,-0.0163,0.0011,-0.0074,9.7543,0.0104,0.9985,0.0000,0.0000,-0.0000,1.0000,0.2439,0.0003,0.0250
174566,Left,2,-0.0054,-0.0080,-0.9988,-0.0480,0.0098,0.0029,0.0022,-0.0370,0.1613,-0.0849,0.1492,0.0029,9.7281,0.0001,0.0000,0.0000,1.0000,0.0037,0.0000,0.2432
174566,Right,606208,-0.0121,0.0075,-0.9373,-0.3482,0.0042,0.0062,0.0033,-0.0064,-0.0039,0.1729,0.2803,-0.0478,9.9815,0.0001,0.0001,0.0000,1.0000,0.0070,-0.0012,0.2495
174567,Pelvis,2,-0.6692,0.0197,-0.7424,-0.0227,0.0020,0.0029,0.0023,0.0210,0.0108,0.0057,9.7635,-0.0014,1.0363,0.0000,0.0000,0.0000,1.0000,0.2441,-0.0000,0.0259
174567,Left,2,-0.0053,-0.0081,-0.9988,-0.0480,0.0124,0.0048,0.0016,-0.0286,0.1742,-0.0952,0.1416,-0.0098,9.7181,0.0002,0.0001,0.0000,1.0000,0.0036,-0.0003,0.2430
174567,Right,606208,-0.0121,0.0075,-0.9373,-0.3482,0.0041,0.0030,0.0020,-0.0004,0.0145,0.1383,0.2868,-0.0654,9.9467,0.0001,0.0000,0.0000,1.0000,0.0072,-0.0016,0.2487
174568,Pelvis,2,-0.6692,0.0197,-0.7425,-0.0226,0.0022,0.0018,0.0033,0.0050,0.0075,0.0034,9.7629,0.0026,1.0206,0.0000,0.0000,0.0000,1.0000,0.2441,0.0001,0.0255
174568,Left,2,-0.0053,-0.0081,-0.9988,-0.0480,0.0109,0.0055,0.0037,-0.0240,0.1795,-0.1003,0.1369,-0.0146,9.7131,0.0001,0.0001,0.0000,1.0000,0.0034,-0.0004,0.2428
174568,Right,606208,-0.0121,0.0075,-0.9373,-0.3482,0.0030,0.0052,0.0025,-0.0091,-0.0007,0.1428,0.2839,-0.0484,9.9513,0.0000,0.0001,0.0000,1.0000,0.0071,-0.0012,0.2488
174569,Pelvis,2,-0.6692,0.0197,-0.7424,-0.0227,0.0013,-0.0003,-0.0003,0.0081,-0.0055,0.0055,9.7645,0.0154,1.0244,0.0000,-0.0000,-0.0000,1.0000,0.2441,0.0004,0.0256
174569,Left,2,-0.0053,-0.0082,-0.9988,-0.0479,0.0122,0.0029,0.0036,-0.0122,0.1702,-0.1020,0.1238,-0.0054,9.7113,0.0002,0.0000,0.0000,1.0000,0.0031,-0.0002,0.2428
174569,Right,606208,-0.0121,0.0075,-0.9373,-0.3482,0.0035,0.0040,0.0027,-0.0015,-0.0032,0.1545,0.2769,-0.0517,9.9632,0.0000,0.0001,0.0000,1.0000,0.0069,-0.0013,0.2491
174570,Pelvis,2,-0.6692,0.0197,-0.7424,-0.0227,0.0025,0.0012,0.0016,0.0085,-0.0052,0.0055,9.7645,0.0153,1.0245,0.0000,0.0000,0.0000,1.0000,0.2441,0.0004,0.0256
174570,Left,2,-0.0053,-0.0082,-0.9988,-0.0479,0.0109,0.0045,0.0031,-0.0198,0.1696,-0.1069,0.1313,-0.0030,9.7064,0.0001,0.0001,0.0000,1.0000,0.0033,-0.0001,0.2427
174570,Right,606208,-0.0121,0.0075,-0.9373,-0.3482,0.0048,0.0067,0.0037,0.0031,-0.0113,0.1431,0.2677,-0.0484,9.9521,0.0001,0.0001,0.0000,1.0000,0.0067,-0.0012,0.2488
174571,Pelvis,2,-0.6693,0.0197,-0.7424,-0.0227,0.0011,0.0010,0.0020,0.0062,0.0086,0.0034,9.7628,0.0017,1.0211,0.0000,0.0000,0.0000,1.0000,0.2441,0.0000,0.0255
174571,Left,2,-0.0053,-0.0083,-0.9988,-0.0479,0.0118,0.0057,0.0033,-0.0265,0.1826,-0.1103,0.1388,-0.0144,9.7032,0.0001,0.0001,0.0000,1.0000,0.0035,-0.0004,0.2426
174571,Right,606208,-0.0121,0.0075,-0.9373,-0.3482,0.0033,0.0049,0.0030,0.0081,0.0074,0.1500,0.2760,-0.0658,9.9586,0.0000,0.0001,0.0000,1.0000,0.0069,-0.0017,0.2490
174572,Pelvis,2,-0.6692,0.0197,-0.7424,-0.0227,0.0015,0.0020,0.0011,0.0188,0.0104,-0.0029,9.7553,-0.0008,1.0329,0.0000,0.0000,0.0000,1.0000,0.2439,-0.0000,0.0258
174572,Left,2,-0.0053,-0.0083,-0.9988,-0.0479,0.0110,0.0039,0.0034,-0.0329,0.1800,-0.0984,0.1447,-0.0100,9.7149,0.0001,0.0000,0.0000,1.0000,0.0036,-0.0003,0.2429
174572,Right,606208,-0.0121,0.0075,-0.9373,-0.3482,0.0038,0.0048,0.0026,0.0065,0.0032,0.1592,0.2748,-0.0617,9.9679,0.0000,0.0001,0.0000,1.0000,0.0069,-0.0016,0.2492
174573,Pelvis,2,-0.6692,0.0197,-0.7424,-0.0227,0.0019,0.0013,0.0014,-0.0142,-0.0018,0.0053,9.7668,0.0135,1.0018,0.0000,0.0000,0.0000,1.0000,0.2442,0.0003,0.0250
174573,Left,2,-0.0053,-0.0084,-0.9988,-0.0479,0.0107,0.0042,0.0024,-0.0322,0.1782,-0.0983,0.1437,-0.0074,9.7150,0.0001,0.0001,0.0000,1.0000,0.0036,-0.0002,0.2429
174573,Right,606208,-0.0121,0.0075,-0.9373,-0.3482,0.0034,0.0039,0.0037,-0.0118,-0.0017,0.1542,0.2855,-0.0461,9.9627,0.0000,0.0000,0.0000,1.0000,0.0071,-0.0012,0.2491
174574,Pelvis,2,-0.6693,0.0197,-0.7424,-0.0227,0.0016,0.0011,0.0027,0.0133,-0.0119,-0.0052,9.7534,0.0218,1.0285,0.0000,0.0000,0.0000,1.0000,0.2438,0.0006,0.0257
174574,Left,2,-0.0053,-0.0085,-0.9988,-0.0478,0.0129,0.0048,0.0034,-0.0108,0.1813,-0.0937,0.1225,-0.0113,9.7199,0.0002,0.0001,0.0000,1.0000,0.0031,-0.0003,0.2430
174574,Right,606208,-0.0121,0.0075,-0.9373,-0.3482,0.0045,0.0044,0.0027,0.0020,-0.0081,0.1453,0.2708,-0.0502,9.9542,0.0001,0.0001,0.0000,1.0000,0.0068,-0.0013,0.2489
174575,Pelvis,2,-0.6693,0.0197,-0.7424,-0.0227,0.0002,0.0007,0.0025,-0.0167,0.0070,0.0160,9.7778,0.0045,0.9997,0.0000,0.0000,0.0000,1.0000,0.2444,0.0001,0.0250
174575,Left,2,-0.0053,-0.0085,-0.9988,-0.0478,0.0110,0.0039,0.0034,-0.0313,0.1903,-0.1135,0.1432,-0.0174,9.7000,0.0001,0.0000,0.0000,1.0000,0.0036,-0.0005,0.2425
174575,Right,606208,-0.0121,0.0075,-0.9373,-0.3482,0.0034,0.0066,0.0032,-0.0019,-0.0031,0.1567,0.2772,-0.0515,9.9654,0.0000,0.0001,0.0000,1.0000,0.0070,-0.0013,0.2491
174576,Pelvis,2,-0.6693,0.0197,-0.7424,-0.0227,0.0030,0.0022,0.0007,0.0033,0.0029,0.0076,9.7673,0.0074,1.0189,0.0000,0.0000,0.0000,1.0000,0.2442,0.0002,0.0255
174576,Left,2,-0.0052,-0.0086,-0.9988,-0.0478,0.0116,0.0054,0.0025,-0.0298,0.1864,-0.0967,0.1407,-0.0126,9.7168,0.0001,0.0001,0.0000,1.0000,0.0035,-0.0003,0.2429
174576,Right,606208,-0.0121,0.0075,-0.9373,-0.3482,0.0031,0.0032,0.0038,-0.0038,0.0046,0.1589,0.2838,-0.0563,9.9674,0.0000,0.0000,0.0000,1.0000,0.0071,-0.0014,0.2492
174577,Pelvis,2,-0.6692,0.0197,-0.7424,-0.0227,0.0009,0.0021,0.0009,0.0022,-0.0123,0.0011,9.7608,0.0228,1.0182,0.0000,0.0000,0.0000,1.0000,0.2440,0.0006,0.0254
174577,Left,2,-0.0052,-0.0086,-0.9988,-0.0479,0.0126,0.0041,0.0018,-0.0393,0.1900,-0.0781,0.1503,-0.0140,9.7353,0.0002,0.0001,0.0000,1.0000,0.0038,-0.0004,0.2434
174577,Right,606208,-0.0121,0.0075,-0.9373,-0.3483,0.0049,0.0080,0.0012,0.0005,0.0084,0.1405,0.2824,-0.0618,9.9490,0.0001,0.0001,0.0000,1.0000,0.0071,-0.0016,0.2487
174578,Pelvis,2,-0.6692,0.0197,-0.7424,-0.0227,0.0023,0.0016,0.0028,0.0068,-0.0098,0.0096,9.7688,0.0201,1.0236,0.0000,0.0000,0.0000,1.0000,0.2442,0.0005,0.0256
174578,Left,2,-0.0052,-0.0086,-0.9988,-0.0478,0.0099,0.0058,0.0038,-0.0090,0.1893,-0.1088,0.1195,-0.0158,9.7050,0.0001,0.0001,0.0000,1.0000,0.0030,-0.0004,0.2426
174578,Right,606208,-0.0121,0.0075,-0.9373,-0.3483,0.0038,0.0037,0.0042,-0.0080,-0.0186,0.1520,0.2712,-0.0358,9.9609,0.0000,0.0000,0.0001,1.0000,0.0068,-0.0009,0.2490
174579,Pelvis,2,-0.6693,0.0197,-0.7424,-0.0227,0.0018,0.0007,0.0015,0.0030,-0.0116,0.0011,9.7607,0.0220,1.0190,0.0000,0.0000,0.0000,1.0000,0.2440,0.0006,0.0255
174579,Left,2,-0.0052,-0.0087,-0.9988,-0.0478,0.0116,0.0045,0.0020,-0.0277,0.1805,-0.0966,0.1371,-0.0043,9.7168,0.0001,0.0001,0.0000,1.0000,0.0034,-0.0001,0.2429
174579,Right,606208,-0.0121,0.0075,-0.9373,-0.3483,0.0039,0.0054,0.0034,-0.0006,-0.0092,0.1567,0.2720,-0.0477,9.9655,0.0000,0.0001,0.0000,1.0000,0.0068,-0.0012,0.2491
174580,Pelvis,2,-0.6693,0.0197,-0.7424,-0.0227,0.0025,0.0012,0.0016,0.0081,-0.0038,-0.0031,9.7561,0.0139,1.0230,0.0000,0.0000,0.0000,1.0000,0.2439,0.0004,0.0256
174580,Left,2,-0.0051,-0.0087,-0.9988,-0.0478,0.0109,0.0045,0.0031,-0.0319,0.1871,-0.1066,0.1410,-0.0098,9.7069,0.0001,0.0001,0.0000,1.0000,0.0035,-0.0003,0.2427
174580,Right,606208,-0.0121,0.0075,-0.9373,-0.3482,0.0043,0.0052,0.0040,0.0014,0.0038,0.1405,0.2784,-0.0588,9.9491,0.0001,0.0001,0.0000,1.0000,0.0070,-0.0015,0.2487
174581,Pelvis,2,-0.6692,0.0197,-0.7424,-0.0227,0.0027,0.0018,0.0014,0.0085,-0.0035,-0.0031,9.7560,0.0136,1.0234,0.0000,0.0000,0.0000,1.0000,0.2439,0.0003,0.0256
174581,Left,2,-0.0051,-0.0088,-0.9988,-0.0478,0.0114,0.0048,0.0033,-0.0255,0.1904,-0.0950,0.1352,-0.0126,9.7186,0.0001,0.0001,0.0000,1.0000,0.0034,-0.0003,0.2430
174581,Right,606208,-0.0121,0.0075,-0.9373,-0.3483,0.0039,0.0039,0.0023,-0.0076,0.0006,0.1380,0.2832,-0.0505,9.9465,0.0000,0.0000,0.0000,1.0000,0.0071,-0.0013,0.2487
174582,Pelvis,2,-0.6693,0.0197,-0.7424,-0.0227,0.0017,0.0009,0.0021,0.0205,-0.0070,0.0033,9.7612,0.0164,1.0362,0.0000,0.0000,0.0000,1.0000,0.2440,0.0004,0.0259
174582,Left,2,-0.0051,-0.0088,-0.9988,-0.0478,0.0112,0.0045,0.0025,-0.0208,0.1956,-0.1001,0.1307,-0.0176,9.7137,0.0001,0.0001,0.0000,1.0000,0.0033,-0.0005,0.2428
174582,Right,606208,-0.0121,0.0075,-0.9373,-0.3483,0.0041,0.0045,0.0031,0.0051,0.0063,0.1636,0.2782,-0.0632,9.9722,0.0001,0.0001,0.0000,1.0000,0.0070,-0.0016,0.2493
174583,Pelvis,2,-0.6693,0.0197,-0.7424,-0.0227,0.0028,-0.0000,0.0020,0.0176,0.0015,0.0140,9.7722,0.0080,1.0337,0.0000,-0.0000,0.0000,1.0000,0.2443,0.0002,0.0258
174583,Left,2,-0.0051,-0.0089,-0.9988,-0.0477,0.0121,0.0045,0.0038,-0.0134,0.1946,-0.1119,0.1225,-0.0164,9.7019,0.0002,0.0001,0.0000,1.0000,0.0031,-0.0004,0.2425
174583,Right,606208,-0.0121,0.0075,-0.9373,-0.3483,0.0032,0.0059,0.0024,-0.0047,-0.0117,0.1358,0.2730,-0.0431,9.9447,0.0000,0.0001,0.0000,1.0000,0.0068,-0.0011,0.2486
174584,Pelvis,2,-0.6693,0.0197,-0.7424,-0.0227,0.0019,0.0023,0.0025,0.0049,-0.0099,0.0011,9.7606,0.0200,1.0203,0.0000,0.0000,0.0000,1.0000,0.2440,0.0005,0.0255
174584,Left,2,-0.0051,-0.0089,-0.9988,-0.0477,0.0119,0.0042,0.0030,-0.0297,0.1973,-0.0815,0.1392,-0.0161,9.7323,0.0001,0.0001,0.0000,1.0000,0.0035,-0.0004,0.2433
174584,Right,606208,-0.0121,0.0075,-0.9373,-0.3483,0.0028,0.0050,0.0044,0.0007,-0.0050,0.1497,0.2736,-0.0519,9.9585,0.0000,0.0001,0.0001,1.0000,0.0069,-0.0013,0.2490
174585,Right,606208,-0.0121,0.0075,-0.9373,-0.3483,0.0026,0.0043,0.0036,-0.0218,-0.0033,0.1561,0.2920,-0.0389,9.9644,0.0000,0.0001,0.0000,1.0000,0.0073,-0.0010,0.2491
174586,Pelvis,2,-0.6693,0.0197,-0.7424,-0.0227,0.0023,-0.0000,0.0015,0.0039,-0.0028,0.0000,9.7597,0.0128,1.0187,0.0001,-0.0000,0.0000,1.0000,0.4880,0.0007,0.0509
174586,Left,2,-0.0051,-0.0091,-0.9988,-0.0477,0.0117,0.0048,0.0027,-0.0280,0.1930,-0.0931,0.1364,-0.0099,9.7205,0.0003,0.0001,0.0001,1.0000,0.0069,-0.0006,0.4860
174586,Right,606208,-0.0121,0.0075,-0.9373,-0.3482,0.0039,0.0053,0.0044,-0.0009,0.0012,0.1519,0.2790,-0.0561,9.9605,0.0000,0.0001,0.0001,1.0000,0.0070,-0.0014,0.2490
174587,Pelvis,2,-0.6693,0.0197,-0.7424,-0.0227,0.0020,0.0021,0.0019,0.0018,-0.0110,-0.0075,9.7524,0.0213,1.0159,0.0000,0.0000,0.0000,1.0000,0.2438,0.0005,0.0254
174587,Left,2,-0.0050,-0.0091,-0.9988,-0.0475,0.0109,0.0036,0.0026,-0.0390,0.1951,-0.1030,0.1457,-0.0103,9.7106,0.0001,0.0000,0.0000,1.0000,0.0037,-0.0003,0.2428
174587,Right,606208,-0.0121,0.0075,-0.9373,-0.3483,0.0045,0.0054,0.0021,-0.0232,-0.0090,0.1653,0.2895,-0.0338,9.9737,0.0001,0.0001,0.0000,1.0000,0.0073,-0.0009,0.2493
174588,Pelvis,2,-0.6693,0.0197,-0.7424,-0.0227,0.0012,0.0008,0.0014,0.0058,-0.0138,0.0138,9.7732,0.0239,1.0222,0.0000,0.0000,0.0000,1.0000,0.2443,0.0006,0.0256
174588,Left,2,-0.0049,-0.0091,-0.9988,-0.0475,0.0109,0.0045,0.0031,-0.0308,0.1920,-0.0981,0.1363,-0.0072,9.7156,0.0001,0.0001,0.0000,1.0000,0.0034,-0.0002,0.2429
174588,Right,606208,-0.0121,0.0075,-0.9373,-0.3482,0.0039,0.0043,0.0050,-0.0000,-0.0138,0.1589,0.2687,-0.0452,9.9678,0.0000,0.0001,0.0001,1.0000,0.0067,-0.0011,0.2492
174589,Pelvis,2,-0.6693,0.0197,-0.7424,-0.0227,0.0020,0.0011,0.0008,0.0109,-0.0060,0.0096,9.7685,0.0159,1.0263,0.0000,0.0000,0.0000,1.0000,0.2442,0.0004,0.0257
174589,Left,2,-0.0050,-0.0092,-0.9988,-0.0475,0.0107,0.0052,0.0029,-0.0171,0.1959,-0.0983,0.1234,-0.0118,9.7156,0.0001,0.0001,0.0000,1.0000,0.0031,-0.0003,0.2429
174589,Right,606208,-0.0121,0.0075,-0.9373,-0.3482,0.0037,0.0047,0.0036,-0.0185,-0.0067,0.1469,0.2871,-0.0384,9.9554,0.0000,0.0001,0.0000,1.0000,0.0072,-0.0010,0.2489
174590,Pelvis,2,-0.6693,0.0197,-0.7424,-0.0227,0.0035,0.0023,0.0015,-0.0125,-0.0033,0.0095,9.7709,0.0148,1.0029,0.0000,0.0000,0.0000,1.0000,0.2443,0.0004,0.0251
174590,Left,2,-0.0049,-0.0092,-0.9988,-0.0475,0.0122,0.0039,0.0041,-0.0465,0.2080,-0.0827,0.1534,-0.0203,9.7311,0.0002,0.0000,0.0001,1.0000,0.0038,-0.0005,0.2433
174590,Right,606208,-0.0121,0.0075,-0.9373,-0.3483,0.0038,0.0048,0.0026,0.0001,0.0070,0.1449,0.2819,-0.0610,9.9534,0.0000,0.0001,0.0000,1.0000,0.0071,-0.0015,0.2488
174591,Pelvis,2,-0.6693,0.0197,-0.7424,-0.0227,0.0009,0.0014,0.0031,0.0001,-0.0015,0.0032,9.7633,0.0121,1.0147,0.0000,0.0000,0.0000,1.0000,0.2441,0.0003,0.0254
174591,Left,2,-0.0050,-0.0092,-0.9988,-0.0476,0.0114,0.0036,0.0045,-0.0341,0.1979,-0.0845,0.1405,-0.0110,9.7292,0.0001,0.0000,0.0001,1.0000,0.0035,-0.0003,0.2432
174591,Right,606208,-0.0121,0.0075,-0.9373,-0.3482,0.0046,0.0049,0.0045,-0.0111,0.0131,0.1447,0.2944,-0.0582,9.9528,0.0001,0.0001,0.0001,1.0000,0.0074,-0.0015,0.2488
174592,Pelvis,2,-0.6693,0.0197,-0.7424,-0.0227,0.0030,0.0022,0.0007,-0.0049,-0.0138,0.0201,9.7806,0.0247,1.0124,0.0000,0.0000,0.0000,1.0000,0.2445,0.0006,0.0253
174592,Left,2,-0.0049,-0.0092,-0.9988,-0.0475,0.0112,0.0033,0.0037,-0.0362,0.1980,-0.1012,0.1410,-0.0104,9.7125,0.0001,0.0000,0.0000,1.0000,0.0035,-0.0003,0.2428
174592,Right,606208,-0.0121,0.0075,-0.9373,-0.3482,0.0035,0.0040,0.0027,-0.0010,-0.0107,0.1611,0.2718,-0.0469,9.9700,0.0000,0.0001,0.0000,1.0000,0.0068,-0.0012,0.2492
174593,Pelvis,2,-0.6693,0.0197,-0.7424,-0.0227,0.0009,0.0004,0.0021,0.0157,-0.0127,-0.0011,9.7573,0.0224,1.0305,0.0000,0.0000,0.0000,1.0000,0.2439,0.0006,0.0258
174593,Left,2,-0.0049,-0.0093,-0.9988,-0.0476,0.0126,0.0051,0.0023,-0.0231,0.2016,-0.1014,0.1282,-0.0148,9.7125,0.0002,0.0001,0.0000,1.0000,0.0032,-0.0004,0.2428
174593,Right,606208,-0.0121,0.0075,-0.9373,-0.3483,0.0025,0.0063,0.0023,-0.0057,-0.0204,0.1472,0.2686,-0.0366,9.9562,0.0000,0.0001,0.0000,1.0000,0.0067,-0.0009,0.2489
174594,Pelvis,2,-0.6693,0.0197,-0.7424,-0.0227,0.0028,0.0034,0.0024,0.0054,0.0017,0.0118,9.7713,0.0085,1.0209,0.0000,0.0000,0.0000,1.0000,0.2443,0.0002,0.0255
174594,Right,606208,-0.0121,0.0075,-0.9373,-0.3483,0.0042,0.0046,0.0022,-0.0121,0.0058,0.1538,0.2906,-0.0524,9.9622,0.0001,0.0001,0.0000,1.0000,0.0073,-0.0013,0.2491
174595,Left,2,-0.0049,-0.0094,-0.9988,-0.0476,0.0118,0.0048,0.0039,-0.0356,0.1965,-0.0977,0.1400,-0.0061,9.7160,0.0003,0.0001,0.0001,1.0000,0.0071,-0.0005,0.4858
174595,Right,606208,-0.0121,0.0075,-0.9373,-0.3483,0.0044,0.0053,0.0030,0.0062,-0.0191,0.1405,0.2601,-0.0453,9.9497,0.0001,0.0001,0.0000,1.0000,0.0065,-0.0011,0.2487
174596,Pelvis,2,-0.6693,0.0197,-0.7424,-0.0227,0.0019,0.0018,0.0019,0.0063,-0.0124,0.0095,9.7688,0.0222,1.0229,0.0000,0.0000,0.0000,1.0000,0.4884,0.0011,0.0511
174596,Left,2,-0.0049,-0.0094,-0.9988,-0.0475,0.0110,0.0030,0.0029,-0.0337,0.2070,-0.0760,0.1392,-0.0164,9.7380,0.0001,0.0000,0.0000,1.0000,0.0035,-0.0004,0.2434
174596,Right,606208,-0.0121,0.0075,-0.9373,-0.3483,0.0038,0.0038,0.0033,-0.0092,-0.0065,0.1516,0.2805,-0.0448,9.9603,0.0000,0.0000,0.0000,1.0000,0.0070,-0.0011,0.2490
174597,Pelvis,2,-0.6693,0.0198,-0.7424,-0.0227,0.0023,0.0016,0.0028,0.0187,0.0043,0.0054,9.7636,0.0049,1.0337,0.0000,0.0000,0.0000,1.0000,0.2441,0.0001,0.0258
174597,Left,2,-0.0049,-0.0094,-0.9988,-0.0475,0.0117,0.0039,0.0022,-0.0237,0.2149,-0.1096,0.1293,-0.0253,9.7046,0.0001,0.0000,0.0000,1.0000,0.0032,-0.0007,0.2426
174597,Right,606208,-0.0121,0.0075,-0.9373,-0.3483,0.0039,0.0054,0.0034,0.0097,-0.0048,0.1566,0.2675,-0.0585,9.9655,0.0000,0.0001,0.0000,1.0000,0.0067,-0.0015,0.2491
174598,Pelvis,2,-0.6693,0.0197,-0.7424,-0.0227,0.0028,0.0016,0.0009,-0.0021,-0.0064,0.0074,9.7676,0.0168,1.0140,0.0000,0.0000,0.0000,1.0000,0.2442,0.0004,0.0253
174598,Left,2,-0.0048,-0.0094,-0.9988,-0.0475,0.0115,0.0033,0.0031,-0.0313,0.1981,-0.0993,0.1352,-0.0071,9.7145,0.0001,0.0000,0.0000,1.0000,0.0034,-0.0002,0.2429
174598,Right,606208,-0.0121,0.0075,-0.9373,-0.3483,0.0042,0.0046,0.0022,0.0120,-0.0036,0.1474,0.2663,-0.0608,9.9564,0.0001,0.0001,0.0000,1.0000,0.0067,-0.0015,0.2489
174599,Pelvis,2,-0.6693,0.0198,-0.7424,-0.0227,0.0002,0.0007,0.0025,-0.0106,-0.0156,0.0030,9.7641,0.0265,1.0055,0.0000,0.0000,0.0000,1.0000,0.2441,0.0007,0.0251
174599,Left,2,-0.0049,-0.0095,-0.9988,-0.0474,0.0103,0.0030,0.0040,-0.0483,0.1847,-0.1106,0.1510,0.0082,9.7027,0.0001,0.0000,0.0001,1.0000,0.0038,0.0002,0.2426
174599,Right,606208,-0.0121,0.0075,-0.9373,-0.3483,0.0045,0.0043,0.0037,-0.0108,0.0101,0.1469,0.2925,-0.0562,9.9551,0.0001,0.0001,0.0000,1.0000,0.0073,-0.0014,0.2489
174600,Pelvis,2,-0.6693,0.0198,-0.7424,-0.0227,0.0043,0.0020,0.0031,-0.0055,-0.0079,-0.0012,9.7594,0.0182,1.0097,0.0001,0.0000,0.0000,1.0000,0.2440,0.0005,0.0252
174600,Left,2,-0.0048,-0.0095,-0.9988,-0.0474,0.0113,0.0067,0.0019,-0.0375,0.1930,-0.0874,0.1403,-0.0001,9.7263,0.0001,0.0001,0.0000,1.0000,0.0035,-0.0000,0.2432
174600,Right,606208,-0.0121,0.0075,-0.9373,-0.3483,0.0037,0.0047,0.0036,-0.0080,-0.0127,0.1516,0.2758,-0.0408,9.9604,0.0000,0.0001,0.0000,1.0000,0.0069,-0.0010,0.2490
174601,Pelvis,2,-0.6692,0.0198,-0.7424,-0.0227,0.0007,0.0024,0.0021,0.0244,0.0078,0.0140,9.7715,0.0006,1.0402,0.0000,0.0000,0.0000,1.0000,0.2443,0.0000,0.0260
174601,Left,2,-0.0048,-0.0096,-0.9988,-0.0473,0.0118,0.0023,0.0020,-0.0354,0.2205,-0.1009,0.1412,-0.0269,9.7133,0.0001,0.0000,0.0000,1.0000,0.0035,-0.0007,0.2428
174601,Right,606208,-0.0121,0.0075,-0.9373,-0.3483,0.0045,0.0044,0.0027,0.0014,-0.0006,0.1472,0.2766,-0.0560,9.9559,0.0001,0.0001,0.0000,1.0000,0.0069,-0.0014,0.2489
174602,Pelvis,2,-0.6692,0.0198,-0.7424,-0.0227,0.0024,0.0014,0.0022,0.0116,-0.0035,0.0011,9.7599,0.0125,1.0270,0.0000,0.0000,0.0000,1.0000,0.2440,0.0003,0.0257
174602,Left,2,-0.0049,-0.0096,-0.9988,-0.0474,0.0114,0.0049,0.0033,-0.0380,0.2105,-0.0957,0.1437,-0.0164,9.7183,0.0001,0.0001,0.0000,1.0000,0.0036,-0.0004,0.2430
174602,Right,606208,-0.0121,0.0075,-0.9373,-0.3483,0.0033,0.0049,0.0030,0.0017,-0.0021,0.1472,0.2754,-0.0551,9.9559,0.0000,0.0001,0.0000,1.0000,0.0069,-0.0014,0.2489
174603,Pelvis,2,-0.6692,0.0196,-0.7425,-0.0227,0.0020,0.0021,0.0019,0.0110,-0.0007,0.0011,9.7598,0.0121,1.0274,0.0000,0.0000,0.0000,1.0000,0.2440,0.0003,0.0257
174603,Left,2,-0.0049,-0.0096,-0.9988,-0.0474,0.0106,0.0046,0.0037,-0.0342,0.2016,-0.1024,0.1389,-0.0077,9.7115,0.0001,0.0001,0.0000,1.0000,0.0035,-0.0002,0.2428
174603,Right,606208,-0.0122,0.0074,-0.9373,-0.3482,0.0032,0.0048,0.0040,-0.0080,-0.0058,0.1538,0.2801,-0.0436,9.9625,0.0000,0.0001,0.0000,1.0000,0.0070,-0.0011,0.2491
174604,Pelvis,2,-0.6692,0.0197,-0.7425,-0.0227,0.0021,0.0002,0.0024,-0.0219,-0.0129,0.0094,9.7714,0.0261,0.9962,0.0000,0.0000,0.0000,1.0000,0.2443,0.0007,0.0249
174604,Left,2,-0.0073,0.0010,-0.9988,-0.0494,0.0111,0.0042,0.0017,0.0058,-0.0116,-0.1071,0.1342,0.0008,9.7047,0.0001,0.0001,0.0000,1.0000,0.0034,-0.0000,0.2426
174604,Right,606208,-0.0122,0.0074,-0.9373,-0.3482,0.0030,0.0041,0.0041,-0.0240,-0.0198,0.1466,0.2830,-0.0227,9.9553,0.0000,0.0001,0.0001,1.0000,0.0071,-0.0006,0.2489
174605,Pelvis,2,-0.6692,0.0197,-0.7425,-0.0227,0.0025,0.0022,0.0026,0.0100,0.0237,0.0183,9.7772,-0.0124,1.0266,0.0000,0.0000,0.0000,1.0000,0.2444,-0.0003,0.0257
174605,Left,2,-0.0073,0.0010,-0.9987,-0.0502,0.0099,0.0049,0.0032,0.0021,0.0117,-0.0914,0.1406,-0.0222,9.7202,0.0001,0.0001,0.0000,1.0000,0.0035,-0.0006,0.2430
174605,Right,606208,-0.0122,0.0074,-0.9373,-0.3482,0.0040,0.0055,0.0025,-0.0005,0.0140,0.1516,0.2875,-0.0638,9.9600,0.0001,0.0001,0.0000,1.0000,0.0072,-0.0016,0.2490
174606,Pelvis,2,-0.6692,0.0196,-0.7425,-0.0227,0.0039,0.0009,0.0013,0.0020,0.0197,0.0011,9.7610,-0.0080,1.0172,0.0000,0.0000,0.0000,1.0000,0.2440,-0.0002,0.0254
174606,Left,2,-0.0073,0.0010,-0.9987,-0.0502,0.0114,0.0049,0.0033,-0.0073,0.0302,-0.0875,0.1518,-0.0398,9.7240,0.0001,0.0001,0.0000,1.0000,0.0038,-0.0010,0.2431
174606,Right,606208,-0.0122,0.0074,-0.9373,-0.3482,0.0033,0.0049,0.0030,0.0091,0.0142,0.1541,0.2803,-0.0702,9.9626,0.0000,0.0001,0.0000,1.0000,0.0070,-0.0018,0.2491
174607,Pelvis,2,-0.6692,0.0197,-0.7425,-0.0227,0.0017,0.0017,0.0026,-0.0176,-0.0199,-0.0013,9.7603,0.0326,0.9998,0.0000,0.0000,0.0000,1.0000,0.2440,0.0008,0.0250
174607,Left,2,-0.0073,0.0010,-0.9987,-0.0502,0.0100,0.0033,0.0030,0.0055,-0.0138,-0.1002,0.1345,0.0026,9.7115,0.0001,0.0000,0.0000,1.0000,0.0034,0.0000,0.2428
174607,Right,606208,-0.0121,0.0074,-0.9373,-0.3482,0.0032,0.0059,0.0024,-0.0230,-0.0243,0.1466,0.2792,-0.0201,9.9554,0.0000,0.0001,0.0000,1.0000,0.0070,-0.0005,0.2489
174608,Pelvis,2,-0.6692,0.0196,-0.7424,-0.0227,0.0039,-0.0008,0.0025,0.0150,-0.0176,0.0159,9.7741,0.0283,1.0335,0.0000,-0.0000,0.0000,1.0000,0.2444,0.0007,0.0258
174608,Left,2,-0.0073,0.0010,-0.9987,-0.0503,0.0106,0.0048,0.0021,-0.0021,-0.0153,-0.1050,0.1419,0.0046,9.7066,0.0001,0.0001,0.0000,1.0000,0.0036,0.0001,0.2427
174608,Right,606208,-0.0121,0.0074,-0.9373,-0.3482,0.0051,0.0059,0.0025,-0.0041,-0.0226,0.1516,0.2659,-0.0338,9.9607,0.0001,0.0001,0.0000,1.0000,0.0067,-0.0009,0.2490
174609,Pelvis,2,-0.6692,0.0197,-0.7425,-0.0227,0.0010,0.0020,0.0030,0.0058,0.0074,0.0032,9.7626,0.0036,1.0214,0.0000,0.0000,0.0000,1.0000,0.2441,0.0001,0.0255
174609,Left,2,-0.0073,0.0010,-0.9987,-0.0503,0.0120,0.0052,0.0035,0.0035,0.0203,-0.0826,0.1401,-0.0315,9.7290,0.0001,0.0001,0.0000,1.0000,0.0035,-0.0008,0.2432
174609,Right,606208,-0.0121,0.0074,-0.9373,-0.3482,0.0035,0.0040,0.0027,0.0194,0.0112,0.1566,0.2703,-0.0747,9.9654,0.0000,0.0001,0.0000,1.0000,0.0068,-0.0019,0.2491
174610,Pelvis,2,-0.6692,0.0197,-0.7424,-0.0227,0.0029,0.0007,0.0025,0.0030,0.0159,0.0139,9.7736,-0.0049,1.0192,0.0000,0.0000,0.0000,1.0000,0.2443,-0.0001,0.0255
174610,Left,2,-0.0073,0.0010,-0.9987,-0.0503,0.0111,0.0042,0.0017,0.0029,0.0199,-0.0993,0.1404,-0.0310,9.7123,0.0001,0.0001,0.0000,1.0000,0.0035,-0.0008,0.2428
174610,Right,606208,-0.0122,0.0074,-0.9373,-0.3482,0.0041,0.0034,0.0047,0.0073,0.0026,0.1311,0.2734,-0.0601,9.9398,0.0001,0.0000,0.0001,1.0000,0.0068,-0.0015,0.2485
174611,Pelvis,2,-0.6692,0.0197,-0.7424,-0.0227,0.0013,0.0014,0.0012,-0.0113,-0.0110,-0.0055,9.7556,0.0228,1.0045,0.0000,0.0000,0.0000,1.0000,0.2439,0.0006,0.0251
174611,Left,2,-0.0073,0.0010,-0.9987,-0.0503,0.0112,0.0033,0.0037,0.0014,-0.0102,-0.1031,0.1389,-0.0009,9.7086,0.0001,0.0000,0.0000,1.0000,0.0035,-0.0001,0.2427
174611,Right,606208,-0.0122,0.0074,-0.9373,-0.3482,0.0030,0.0041,0.0041,-0.0149,-0.0076,0.1444,0.2843,-0.0380,9.9530,0.0000,0.0001,0.0001,1.0000,0.0071,-0.0010,0.2488
174612,Pelvis,2,-0.6692,0.0197,-0.7425,-0.0227,0.0026,0.0020,0.0020,0.0081,-0.0204,-0.0012,9.7578,0.0311,1.0248,0.0000,0.0000,0.0000,1.0000,0.2439,0.0008,0.0256
174612,Left,2,-0.0073,0.0010,-0.9987,-0.0503,0.0112,0.0045,0.0025,0.0076,-0.0082,-0.0914,0.1332,-0.0036,9.7203,0.0001,0.0001,0.0000,1.0000,0.0033,-0.0001,0.2430
174612,Right,606208,-0.0122,0.0074,-0.9373,-0.3482,0.0030,0.0052,0.0025,-0.0092,-0.0129,0.1652,0.2772,-0.0381,9.9740,0.0000,0.0001,0.0000,1.0000,0.0069,-0.0010,0.2494
174613,Pelvis,2,-0.6692,0.0197,-0.7424,-0.0227,0.0026,0.0010,0.0010,-0.0133,0.0032,-0.0076,9.7538,0.0089,1.0016,0.0000,0.0000,0.0000,1.0000,0.2438,0.0002,0.0250
174613,Left,2,-0.0073,0.0010,-0.9987,-0.0503,0.0107,0.0042,0.0023,0.0107,0.0162,-0.0876,0.1327,-0.0283,9.7242,0.0001,0.0001,0.0000,1.0000,0.0033,-0.0007,0.2431
174613,Right,606208,-0.0122,0.0074,-0.9373,-0.3482,0.0033,0.0049,0.0030,0.0021,0.0019,0.1516,0.2778,-0.0568,9.9603,0.0000,0.0001,0.0000,1.0000,0.0070,-0.0014,0.2490
174614,Pelvis,2,-0.6692,0.0196,-0.7425,-0.0227,0.0036,0.0029,0.0014,0.0193,0.0055,0.0096,9.7676,0.0049,1.0357,0.0000,0.0000,0.0000,1.0000,0.2442,0.0001,0.0259
174614,Left,2,-0.0073,0.0010,-0.9987,-0.0503,0.0117,0.0039,0.0022,-0.0010,0.0074,-0.0874,0.1435,-0.0184,9.7242,0.0001,0.0000,0.0000,1.0000,0.0036,-0.0005,0.2431
174614,Right,606208,-0.0122,0.0074,-0.9373,-0.3482,0.0035,0.0040,0.0027,0.0098,-0.0007,0.1633,0.2708,-0.0600,9.9721,0.0000,0.0001,0.0000,1.0000,0.0068,-0.0015,0.2493
174615,Pelvis,2,-0.6692,0.0196,-0.7425,-0.0227,0.0021,0.0012,0.0035,0.0033,0.0022,0.0074,9.7670,0.0089,1.0199,0.0000,0.0000,0.0000,1.0000,0.2442,0.0002,0.0255
174615,Left,2,-0.0073,0.0010,-0.9987,-0.0503,0.0129,0.0064,0.0036,0.0027,-0.0017,-0.0943,0.1386,-0.0095,9.7174,0.0002,0.0001,0.0000,1.0000,0.0035,-0.0003,0.2429
174615,Right,606208,-0.0122,0.0074,-0.9373,-0.3482,0.0034,0.0066,0.0032,-0.0136,-0.0136,0.1444,0.2794,-0.0349,9.9531,0.0000,0.0001,0.0000,1.0000,0.0070,-0.0009,0.2488
174616,Pelvis,2,-0.6692,0.0197,-0.7425,-0.0227,0.0006,0.0009,0.0012,0.0069,-0.0055,-0.0033,9.7559,0.0163,1.0228,0.0000,0.0000,0.0000,1.0000,0.2439,0.0004,0.0256
174616,Left,2,-0.0072,0.0010,-0.9987,-0.0503,0.0096,0.0052,0.0022,0.0119,-0.0059,-0.0895,0.1288,-0.0062,9.7223,0.0001,0.0001,0.0000,1.0000,0.0032,-0.0002,0.2431
174616,Right,606208,-0.0122,0.0074,-0.9373,-0.3482,0.0051,0.0032,0.0030,-0.0113,-0.0124,0.1352,0.2782,-0.0372,9.9440,0.0001,0.0000,0.0000,1.0000,0.0070,-0.0009,0.2486
174617,Pelvis,2,-0.6692,0.0197,-0.7425,-0.0227,0.0024,0.0014,0.0022,0.0073,-0.0052,-0.0033,9.7559,0.0159,1.0231,0.0000,0.0000,0.0000,1.0000,0.2439,0.0004,0.0256
174617,Left,2,-0.0073,0.0010,-0.9987,-0.0503,0.0109,0.0036,0.0026,0.0106,0.0272,-0.0954,0.1333,-0.0394,9.7163,0.0001,0.0000,0.0000,1.0000,0.0033,-0.0010,0.2429
174617,Right,606208,-0.0122,0.0074,-0.9373,-0.3482,0.0032,0.0058,0.0033,0.0012,0.0051,0.1539,0.2808,-0.0586,9.9625,0.0000,0.0001,0.0000,1.0000,0.0070,-0.0015,0.2491
174618,Pelvis,2,-0.6692,0.0197,-0.7425,-0.0227,0.0017,0.0017,0.0026,0.0050,0.0086,-0.0054,9.7542,0.0022,1.0198,0.0000,0.0000,0.0000,1.0000,0.2439,0.0001,0.0255
174618,Left,2,-0.0073,0.0010,-0.9987,-0.0503,0.0121,0.0046,0.0038,0.0062,0.0034,-0.0924,0.1354,-0.0152,9.7194,0.0002,0.0001,0.0000,1.0000,0.0034,-0.0004,0.2430
174618,Right,606208,-0.0122,0.0074,-0.9373,-0.3482,0.0039,0.0054,0.0034,0.0038,-0.0057,0.1516,0.2716,-0.0522,9.9605,0.0000,0.0001,0.0000,1.0000,0.0068,-0.0013,0.2490
174619,Pelvis,2,-0.6692,0.0197,-0.7425,-0.0227,0.0030,0.0006,0.0019,-0.0211,-0.0147,0.0136,9.7755,0.0270,0.9972,0.0000,0.0000,0.0000,1.0000,0.2444,0.0007,0.0249
174619,Left,2,-0.0073,0.0010,-0.9987,-0.0503,0.0116,0.0042,0.0036,0.0111,0.0079,-0.0973,0.1309,-0.0201,9.7145,0.0001,0.0001,0.0000,1.0000,0.0033,-0.0005,0.2429
174619,Right,606208,-0.0121,0.0074,-0.9373,-0.3482,0.0039,0.0064,0.0028,-0.0054,0.0031,0.1422,0.2839,-0.0528,9.9507,0.0000,0.0001,0.0000,1.0000,0.0071,-0.0013,0.2488
174620,Pelvis,2,-0.6692,0.0197,-0.7425,-0.0227,0.0022,0.0025,0.0012,0.0158,-0.0100,-0.0054,9.7528,0.0201,1.0316,0.0000,0.0000,0.0000,1.0000,0.2438,0.0005,0.0258
174620,Left,2,-0.0073,0.0010,-0.9987,-0.0503,0.0104,0.0043,0.0029,-0.0047,-0.0083,-0.0922,0.1451,-0.0025,9.7194,0.0001,0.0001,0.0000,1.0000,0.0036,-0.0001,0.2430
174620,Right,606208,-0.0121,0.0074,-0.9373,-0.3482,0.0037,0.0047,0.0036,-0.0026,-0.0196,0.1469,0.2669,-0.0375,9.9559,0.0000,0.0001,0.0000,1.0000,0.0067,-0.0009,0.2489
174621,Pelvis,2,-0.6692,0.0197,-0.7425,-0.0227,0.0024,0.0006,0.0017,0.0061,0.0097,-0.0054,9.7541,0.0011,1.0208,0.0000,0.0000,0.0000,1.0000,0.2439,0.0000,0.0255
174621,Left,2,-0.0073,0.0010,-0.9987,-0.0503,0.0112,0.0033,0.0036,0.0054,0.0172,-0.1002,0.1377,-0.0290,9.7115,0.0001,0.0000,0.0000,1.0000,0.0035,-0.0008,0.2428
174621,Right,606208,-0.0121,0.0074,-0.9373,-0.3482,0.0032,0.0058,0.0033,0.0119,0.0006,0.1564,0.2693,-0.0624,9.9653,0.0000,0.0001,0.0000,1.0000,0.0068,-0.0016,0.2491
174622,Pelvis,2,-0.6692,0.0197,-0.7424,-0.0227,0.0017,0.0009,0.0021,0.0085,-0.0086,0.0095,9.7684,0.0192,1.0257,0.0000,0.0000,0.0000,1.0000,0.2442,0.0005,0.0256
174622,Left,2,-0.0072,0.0010,-0.9987,-0.0502,0.0111,0.0059,0.0044,-0.0103,0.0010,-0.0951,0.1517,-0.0114,9.7164,0.0001,0.0001,0.0001,1.0000,0.0038,-0.0003,0.2429
174622,Right,606208,-0.0121,0.0074,-0.9373,-0.3482,0.0035,0.0056,0.0039,-0.0022,-0.0106,0.1400,0.2720,-0.0447,9.9489,0.0000,0.0001,0.0000,1.0000,0.0068,-0.0011,0.2487
174623,Pelvis,2,-0.6692,0.0197,-0.7424,-0.0227,0.0019,0.0013,0.0014,0.0211,-0.0068,0.0031,9.7608,0.0166,1.0374,0.0000,0.0000,0.0000,1.0000,0.2440,0.0004,0.0259
174623,Left,2,-0.0073,0.0010,-0.9987,-0.0502,0.0114,0.0036,0.0044,0.0032,-0.0120,-0.0805,0.1371,0.0002,9.7312,0.0001,0.0000,0.0001,1.0000,0.0034,-0.0000,0.2433
174623,Right,606208,-0.0121,0.0074,-0.9373,-0.3482,0.0038,0.0048,0.0026,-0.0110,-0.0257,0.1444,0.2688,-0.0276,9.9534,0.0000,0.0001,0.0000,1.0000,0.0067,-0.0007,0.2488
174624,Pelvis,2,-0.6692,0.0197,-0.7425,-0.0227,0.0022,0.0035,0.0022,0.0098,-0.0026,-0.0033,9.7556,0.0131,1.0255,0.0000,0.0000,0.0000,1.0000,0.2439,0.0003,0.0256
174624,Left,2,-0.0073,0.0010,-0.9987,-0.0502,0.0122,0.0030,0.0035,0.0051,-0.0012,-0.0786,0.1365,-0.0106,9.7332,0.0002,0.0000,0.0000,1.0000,0.0034,-0.0003,0.2433
174624,Right,606208,-0.0121,0.0075,-0.9373,-0.3482,0.0023,0.0061,0.0042,-0.0058,-0.0072,0.1514,0.2771,-0.0453,9.9601,0.0000,0.0001,0.0001,1.0000,0.0069,-0.0011,0.2490
174625,Pelvis,2,-0.6692,0.0197,-0.7425,-0.0227,0.0014,0.0012,0.0007,0.0165,0.0208,-0.0010,9.7574,-0.0105,1.0312,0.0000,0.0000,0.0000,1.0000,0.2439,-0.0003,0.0258
174625,Left,2,-0.0073,0.0010,-0.9987,-0.0502,0.0112,0.0043,0.0041,0.0054,0.0282,-0.1079,0.1390,-0.0399,9.7037,0.0001,0.0001,0.0001,1.0000,0.0035,-0.0010,0.2426
174625,Right,606208,-0.0121,0.0074,-0.9373,-0.3482,0.0045,0.0044,0.0027,0.0034,0.0169,0.1401,0.2854,-0.0696,9.9485,0.0001,0.0001,0.0000,1.0000,0.0071,-0.0018,0.2487
174626,Right,606208,-0.0121,0.0074,-0.9373,-0.3482,0.0040,0.0055,0.0025,-0.0031,-0.0075,0.1422,0.2746,-0.0468,9.9510,0.0001,0.0001,0.0000,1.0000,0.0069,-0.0012,0.2488
174627,Pelvis,2,-0.6692,0.0196,-0.7425,-0.0227,0.0024,0.0006,0.0017,0.0079,-0.0082,0.0052,9.7642,0.0189,1.0250,0.0001,0.0000,0.0000,1.0000,0.4882,0.0010,0.0512
174627,Left,2,-0.0073,0.0010,-0.9987,-0.0502,0.0114,0.0039,0.0028,-0.0064,-0.0122,-0.1069,0.1463,0.0029,9.7047,0.0003,0.0001,0.0001,1.0000,0.0074,0.0000,0.4852
174627,Right,606208,-0.0121,0.0074,-0.9373,-0.3482,0.0043,0.0036,0.0029,0.0003,-0.0036,0.1653,0.2752,-0.0520,9.9741,0.0001,0.0000,0.0000,1.0000,0.0069,-0.0013,0.2494
174628,Pelvis,2,-0.6692,0.0196,-0.7425,-0.0227,0.0023,0.0015,0.0001,-0.0035,0.0109,0.0010,9.7614,0.0010,1.0117,0.0000,0.0000,0.0000,1.0000,0.2440,0.0000,0.0253
174628,Left,2,-0.0073,0.0010,-0.9987,-0.0502,0.0102,0.0039,0.0021,-0.0045,-0.0024,-0.0931,0.1462,-0.0085,9.7185,0.0001,0.0000,0.0000,1.0000,0.0037,-0.0002,0.2430
174628,Right,606208,-0.0121,0.0074,-0.9373,-0.3482,0.0040,0.0055,0.0025,-0.0005,-0.0077,0.1331,0.2723,-0.0481,9.9419,0.0001,0.0001,0.0000,1.0000,0.0068,-0.0012,0.2485
174629,Pelvis,2,-0.6692,0.0196,-0.7424,-0.0227,0.0016,0.0001,0.0017,-0.0005,-0.0022,0.0030,9.7630,0.0141,1.0156,0.0000,0.0000,0.0000,1.0000,0.2441,0.0004,0.0254
174629,Left,2,-0.0073,0.0010,-0.9987,-0.0502,0.0116,0.0045,0.0019,0.0016,0.0157,-0.0960,0.1420,-0.0273,9.7156,0.0001,0.0001,0.0000,1.0000,0.0036,-0.0007,0.2429
174629,Right,606208,-0.0121,0.0074,-0.9373,-0.3482,0.0034,0.0039,0.0037,-0.0046,0.0092,0.1376,0.2867,-0.0583,9.9460,0.0000,0.0000,0.0000,1.0000,0.0072,-0.0015,0.2486
174630,Pelvis,2,-0.6692,0.0196,-0.7424,-0.0227,0.0021,0.0019,0.0013,0.0073,-0.0078,0.0009,9.7601,0.0193,1.0233,0.0000,0.0000,0.0000,1.0000,0.2440,0.0005,0.0256
174630,Left,2,-0.0073,0.0010,-0.9987,-0.0502,0.0104,0.0052,0.0034,-0.0099,-0.0093,-0.0812,0.1510,-0.0014,9.7303,0.0001,0.0001,0.0000,1.0000,0.0038,-0.0001,0.2433
174630,Right,606208,-0.0122,0.0074,-0.9373,-0.3482,0.0053,0.0040,0.0029,0.0035,-0.0173,0.1631,0.2642,-0.0435,9.9722,0.0001,0.0000,0.0000,1.0000,0.0066,-0.0011,0.2493
174631,Pelvis,2,-0.6692,0.0196,-0.7424,-0.0227,0.0011,0.0010,0.0020,0.0119,-0.0053,0.0095,9.7681,0.0165,1.0286,0.0000,0.0000,0.0000,1.0000,0.2442,0.0004,0.0257
174631,Left,2,-0.0073,0.0010,-0.9987,-0.0502,0.0117,0.0029,0.0017,0.0158,-0.0002,-0.0815,0.1264,-0.0131,9.7303,0.0001,0.0000,0.0000,1.0000,0.0032,-0.0004,0.2433
174631,Right,606208,-0.0121,0.0074,-0.9373,-0.3482,0.0025,0.0069,0.0040,-0.0108,-0.0166,0.1397,0.2747,-0.0345,9.9486,0.0000,0.0001,0.0001,1.0000,0.0069,-0.0009,0.2487
174632,Pelvis,2,-0.6692,0.0196,-0.7425,-0.0227,0.0028,0.0026,0.0019,-0.0068,0.0049,0.0052,9.7659,0.0075,1.0091,0.0000,0.0000,0.0000,1.0000,0.2441,0.0002,0.0252
174632,Left,2,-0.0073,0.0011,-0.9987,-0.0502,0.0099,0.0049,0.0032,-0.0001,-0.0002,-0.0911,0.1423,-0.0116,9.7205,0.0001,0.0001,0.0000,1.0000,0.0036,-0.0003,0.2430
174632,Right,606208,-0.0121,0.0074,-0.9373,-0.3482,0.0030,0.0052,0.0025,0.0037,0.0036,0.1493,0.2769,-0.0596,9.9579,0.0000,0.0001,0.0000,1.0000,0.0069,-0.0015,0.2489
174633,Pelvis,2,-0.6692,0.0196,-0.7425,-0.0227,0.0022,0.0018,0.0033,0.0025,0.0149,0.0095,9.7693,-0.0032,1.0184,0.0000,0.0000,0.0000,1.0000,0.2442,-0.0001,0.0255
174633,Left,2,-0.0073,0.0010,-0.9987,-0.0502,0.0133,0.0036,0.0039,-0.0011,0.0168,-0.0822,0.1451,-0.0284,9.7294,0.0002,0.0000,0.0000,1.0000,0.0036,-0.0007,0.2432
174633,Right,606208,-0.0121,0.0075,-0.9373,-0.3482,0.0042,0.0035,0.0038,-0.0033,0.0032,0.1376,0.2817,-0.0547,9.9462,0.0001,0.0000,0.0000,1.0000,0.0071,-0.0014,0.2487
174634,Pelvis,2,-0.6692,0.0196,-0.7425,-0.0227,0.0016,0.0018,0.0005,-0.0103,0.0035,-0.0034,9.7577,0.0088,1.0052,0.0000,0.0000,0.0000,1.0000,0.2439,0.0002,0.0251
174634,Left,2,-0.0073,0.0010,-0.9987,-0.0502,0.0114,0.0049,0.0033,-0.0041,-0.0107,-0.1028,0.1450,-0.0004,9.7088,0.0001,0.0001,0.0000,1.0000,0.0036,-0.0000,0.2427
174634,Right,606208,-0.0121,0.0075,-0.9373,-0.3482,0.0028,0.0061,0.0028,-0.0089,-0.0065,0.1651,0.2805,-0.0439,9.9738,0.0000,0.0001,0.0000,1.0000,0.0070,-0.0011,0.2493
174635,Pelvis,2,-0.6692,0.0196,-0.7425,-0.0227,0.0021,0.0019,0.0013,0.0128,-0.0091,0.0222,9.7806,0.0202,1.0316,0.0000,0.0000,0.0000,1.0000,0.2445,0.0005,0.0258
174635,Left,2,-0.0073,0.0010,-0.9987,-0.0502,0.0106,0.0049,0.0020,0.0063,-0.0014,-0.0960,0.1357,-0.0109,9.7157,0.0001,0.0001,0.0000,1.0000,0.0034,-0.0003,0.2429
174635,Right,606208,-0.0121,0.0075,-0.9373,-0.3482,0.0037,0.0047,0.0036,-0.0139,-0.0042,0.1443,0.2851,-0.0425,9.9528,0.0000,0.0001,0.0000,1.0000,0.0071,-0.0011,0.2488
174636,Pelvis,2,-0.6692,0.0196,-0.7425,-0.0227,0.0027,0.0018,0.0015,0.0026,0.0057,-0.0097,9.7500,0.0062,1.0174,0.0000,0.0000,0.0000,1.0000,0.2438,0.0002,0.0254
174636,Left,2,-0.0073,0.0010,-0.9987,-0.0502,0.0109,0.0036,0.0026,0.0042,0.0020,-0.0891,0.1382,-0.0142,9.7226,0.0001,0.0000,0.0000,1.0000,0.0035,-0.0004,0.2431
174636,Right,606208,-0.0121,0.0075,-0.9373,-0.3482,0.0039,0.0054,0.0035,0.0070,0.0002,0.1401,0.2720,-0.0595,9.9489,0.0000,0.0001,0.0000,1.0000,0.0068,-0.0015,0.2487
174637,Pelvis,2,-0.6692,0.0196,-0.7425,-0.0227,0.0028,0.0016,0.0009,0.0009,-0.0148,-0.0034,9.7563,0.0269,1.0176,0.0000,0.0000,0.0000,1.0000,0.2439,0.0007,0.0254
174637,Left,2,-0.0073,0.0011,-0.9987,-0.0502,0.0106,0.0049,0.0020,-0.0107,0.0156,-0.0966,0.1543,-0.0264,9.7148,0.0001,0.0001,0.0000,1.0000,0.0039,-0.0007,0.2429
174637,Right,606208,-0.0121,0.0075,-0.9373,-0.3482,0.0038,0.0053,0.0044,0.0032,0.0052,0.1516,0.2784,-0.0608,9.9602,0.0000,0.0001,0.0001,1.0000,0.0070,-0.0015,0.2490
174638,Pelvis,2,-0.6692,0.0196,-0.7425,-0.0227,0.0022,0.0017,0.0007,-0.0094,-0.0003,0.0094,9.7702,0.0133,1.0080,0.0000,0.0000,0.0000,1.0000,0.2443,0.0003,0.0252
174638,Left,2,-0.0073,0.0011,-0.9987,-0.0502,0.0109,0.0043,0.0047,0.0017,-0.0111,-0.0842,0.1395,-0.0012,9.7275,0.0001,0.0001,0.0001,1.0000,0.0035,-0.0001,0.2432
174638,Right,606208,-0.0121,0.0075,-0.9373,-0.3482,0.0023,0.0045,0.0030,-0.0240,-0.0250,0.1578,0.2794,-0.0204,9.9666,0.0000,0.0001,0.0000,1.0000,0.0070,-0.0005,0.2492
174639,Pelvis,2,-0.6692,0.0196,-0.7425,-0.0227,0.0014,0.0005,0.0028,0.0032,0.0015,0.0030,9.7626,0.0108,1.0196,0.0000,0.0000,0.0000,1.0000,0.2441,0.0003,0.0255
174639,Left,2,-0.0073,0.0010,-0.9987,-0.0502,0.0132,0.0052,0.0041,0.0106,0.0008,-0.0940,0.1315,-0.0138,9.7178,0.0002,0.0001,0.0001,1.0000,0.0033,-0.0004,0.2429
174639,Right,606208,-0.0121,0.0075,-0.9373,-0.3482,0.0050,0.0058,0.0035,-0.0074,-0.0021,0.1582,0.2818,-0.0486,9.9668,0.0001,0.0001,0.0000,1.0000,0.0071,-0.0012,0.2492
174640,Pelvis,2,-0.6692,0.0196,-0.7425,-0.0227,0.0021,0.0019,0.0013,-0.0081,0.0057,-0.0034,9.7575,0.0072,1.0075,0.0000,0.0000,0.0000,1.0000,0.2439,0.0002,0.0252
174640,Left,2,-0.0073,0.0011,-0.9987,-0.0502,0.0099,0.0040,0.0027,0.0097,0.0178,-0.0850,0.1343,-0.0306,9.7267,0.0001,0.0000,0.0000,1.0000,0.0034,-0.0008,0.2432
174640,Right,606208,-0.0121,0.0075,-0.9373,-0.3482,0.0044,0.0042,0.0046,-0.0031,0.0018,0.1399,0.2806,-0.0541,9.9485,0.0001,0.0001,0.0001,1.0000,0.0070,-0.0014,0.2487
174641,Pelvis,2,-0.6692,0.0196,-0.7425,-0.0227,0.0021,0.0019,0.0013,0.0230,-0.0076,0.0073,9.7648,0.0187,1.0403,0.0000,0.0000,0.0000,1.0000,0.2441,0.0005,0.0260
174641,Left,2,-0.0073,0.0011,-0.9987,-0.0502,0.0120,0.0052,0.0035,-0.0049,0.0152,-0.0779,0.1485,-0.0267,9.7336,0.0001,0.0001,0.0000,1.0000,0.0037,-0.0007,0.2433
174641,Right,606208,-0.0121,0.0075,-0.9373,-0.3482,0.0031,0.0058,0.0033,0.0003,0.0057,0.1630,0.2811,-0.0594,9.9716,0.0000,0.0001,0.0000,1.0000,0.0070,-0.0015,0.2493
174642,Pelvis,2,-0.6692,0.0196,-0.7425,-0.0227,0.0027,0.0028,0.0025,0.0123,0.0019,-0.0119,9.7468,0.0099,1.0274,0.0000,0.0000,0.0000,1.0000,0.2437,0.0003,0.0257
174642,Left,2,-0.0073,0.0011,-0.9987,-0.0502,0.0109,0.0039,0.0009,0.0077,-0.0287,-0.0911,0.1314,0.0158,9.7207,0.0001,0.0000,0.0000,1.0000,0.0033,0.0004,0.2430
174642,Right,606208,-0.0121,0.0075,-0.9373,-0.3482,0.0039,0.0054,0.0035,-0.0116,-0.0148,0.1443,0.2761,-0.0361,9.9531,0.0000,0.0001,0.0000,1.0000,0.0069,-0.0009,0.2488
174643,Pelvis,2,-0.6692,0.0196,-0.7425,-0.0227,0.0010,0.0012,0.0026,0.0005,0.0008,-0.0055,9.7544,0.0115,1.0165,0.0000,0.0000,0.0000,1.0000,0.2439,0.0003,0.0254
174643,Left,2,-0.0073,0.0011,-0.9987,-0.0502,0.0111,0.0040,0.0034,0.0094,-0.0017,-0.1037,0.1323,-0.0113,9.7081,0.0001,0.0000,0.0000,1.0000,0.0033,-0.0003,0.2427
174643,Right,606208,-0.0121,0.0075,-0.9373,-0.3482,0.0031,0.0058,0.0033,0.0052,-0.0039,0.1516,0.2706,-0.0554,9.9604,0.0000,0.0001,0.0000,1.0000,0.0068,-0.0014,0.2490
174644,Pelvis,2,-0.6692,0.0196,-0.7425,-0.0227,0.0020,0.0021,0.0019,0.0209,0.0017,0.0180,9.7756,0.0094,1.0392,0.0000,0.0000,0.0000,1.0000,0.2444,0.0002,0.0260
174644,Right,606208,-0.0121,0.0075,-0.9373,-0.3482,0.0043,0.0063,0.0024,0.0035,-0.0081,0.1607,0.2691,-0.0512,9.9696,0.0001,0.0001,0.0000,1.0000,0.0067,-0.0013,0.2492
174645,Pelvis,2,-0.6692,0.0196,-0.7425,-0.0227,0.0027,0.0018,0.0015,0.0044,-0.0066,-0.0162,9.7432,0.0186,1.0199,0.0000,0.0000,0.0000,1.0000,0.2436,0.0005,0.0255
174645,Left,2,-0.0073,0.0011,-0.9987,-0.0502,0.0117,0.0041,0.0029,-0.0004,0.0018,-0.0932,0.1421,-0.0124,9.7184,0.0003,0.0001,0.0001,1.0000,0.0072,-0.0008,0.4859
174645,Right,606208,-0.0121,0.0075,-0.9373,-0.3482,0.0035,0.0040,0.0028,-0.0037,0.0035,0.1422,0.2815,-0.0552,9.9507,0.0000,0.0000,0.0000,1.0000,0.0071,-0.0014,0.2488
174646,Pelvis,2,-0.6692,0.0196,-0.7425,-0.0227,0.0025,0.0005,0.0011,-0.0080,-0.0129,0.0029,9.7635,0.0258,1.0099,0.0000,0.0000,0.0000,1.0000,0.2441,0.0006,0.0252
174646,Left,2,-0.0073,0.0010,-0.9987,-0.0502,0.0121,0.0046,0.0037,-0.0065,-0.0038,-0.0897,0.1483,-0.0075,9.7219,0.0002,0.0001,0.0000,1.0000,0.0037,-0.0002,0.2430
174646,Right,606208,-0.0121,0.0074,-0.9373,-0.3482,0.0048,0.0051,0.0026,-0.0105,-0.0088,0.1374,0.2786,-0.0413,9.9461,0.0001,0.0001,0.0000,1.0000,0.0070,-0.0010,0.2487
174647,Pelvis,2,-0.6692,0.0196,-0.7425,-0.0227,0.0022,0.0025,0.0012,-0.0018,0.0052,0.0179,9.7779,0.0076,1.0165,0.0000,0.0000,0.0000,1.0000,0.2444,0.0002,0.0254
174647,Right,606208,-0.0121,0.0075,-0.9373,-0.3482,0.0032,0.0059,0.0024,-0.0082,-0.0076,0.1282,0.2773,-0.0436,9.9370,0.0000,0.0001,0.0000,1.0000,0.0069,-0.0011,0.2484
174648,Pelvis,2,-0.6692,0.0196,-0.7425,-0.0227,0.0015,-0.0005,0.0018,0.0071,0.0101,-0.0097,9.7495,0.0022,1.0221,0.0000,-0.0000,0.0000,1.0000,0.2437,0.0001,0.0256
174648,Left,2,-0.0073,0.0011,-0.9987,-0.0502,0.0105,0.0044,0.0033,-0.0025,0.0107,-0.0900,0.1452,-0.0210,9.7215,0.0003,0.0001,0.0001,1.0000,0.0073,-0.0012,0.4861
174648,Right,606208,-0.0121,0.0074,-0.9373,-0.3482,0.0052,0.0039,0.0038,0.0117,0.0086,0.1586,0.2737,-0.0690,9.9673,0.0001,0.0000,0.0000,1.0000,0.0069,-0.0017,0.2492
174649,Pelvis,2,-0.6692,0.0196,-0.7425,-0.0227,0.0028,0.0026,0.0019,-0.0053,0.0038,0.0094,9.7698,0.0092,1.0121,0.0000,0.0000,0.0000,1.0000,0.2442,0.0002,0.0253
174649,Left,2,-0.0073,0.0011,-0.9987,-0.0502,0.0129,0.0030,0.0023,0.0055,-0.0002,-0.0828,0.1370,-0.0124,9.7289,0.0002,0.0000,0.0000,1.0000,0.0034,-0.0003,0.2432
174649,Right,606208,-0.0121,0.0074,-0.9373,-0.3482,0.0037,0.0073,0.0031,-0.0046,0.0067,0.1445,0.2842,-0.0566,9.9530,0.0000,0.0001,0.0000,1.0000,0.0071,-0.0014,0.2488
174650,Pelvis,2,-0.6692,0.0196,-0.7425,-0.0227,0.0011,0.0010,0.0020,-0.0065,-0.0114,0.0029,9.7634,0.0244,1.0112,0.0000,0.0000,0.0000,1.0000,0.2441,0.0006,0.0253
174650,Left,2,-0.0073,0.0011,-0.9987,-0.0502,0.0110,0.0030,0.0028,0.0034,0.0023,-0.1161,0.1392,-0.0145,9.6956,0.0001,0.0000,0.0000,1.0000,0.0035,-0.0004,0.2424
174650,Right,606208,-0.0120,0.0074,-0.9373,-0.3482,0.0043,0.0063,0.0024,-0.0052,-0.0094,0.1191,0.2730,-0.0439,9.9279,0.0001,0.0001,0.0000,1.0000,0.0068,-0.0011,0.2482
174651,Pelvis,2,-0.6692,0.0196,-0.7425,-0.0227,0.0027,0.0028,0.0025,0.0034,0.0038,-0.0055,9.7541,0.0086,1.0194,0.0000,0.0000,0.0000,1.0000,0.2439,0.0002,0.0255
174651,Left,2,-0.0073,0.0011,-0.9987,-0.0502,0.0109,0.0036,0.0026,0.0140,-0.0047,-0.0947,0.1285,-0.0088,9.7171,0.0001,0.0000,0.0000,1.0000,0.0032,-0.0003,0.2429
174651,Right,606208,-0.0121,0.0074,-0.9373,-0.3483,0.0039,0.0038,0.0023,-0.0039,0.0037,0.1445,0.2812,-0.0547,9.9531,0.0000,0.0000,0.0000,1.0000,0.0070,-0.0014,0.2488
174652,Pelvis,2,-0.6692,0.0196,-0.7425,-0.0227,0.0021,0.0019,0.0013,0.0011,0.0175,-0.0076,9.7523,-0.0051,1.0164,0.0000,0.0000,0.0000,1.0000,0.2438,-0.0001,0.0254
174652,Left,2,-0.0073,0.0011,-0.9987,-0.0502,0.0111,0.0040,0.0033,-0.0037,0.0152,-0.0952,0.1482,-0.0269,9.7164,0.0001,0.0000,0.0000,1.0000,0.0037,-0.0007,0.2429
174652,Right,606208,-0.0121,0.0074,-0.9373,-0.3483,0.0038,0.0047,0.0026,0.0079,-0.0055,0.1447,0.2665,-0.0554,9.9537,0.0000,0.0001,0.0000,1.0000,0.0067,-0.0014,0.2488
174653,Pelvis,2,-0.6692,0.0196,-0.7425,-0.0227,0.0023,0.0008,0.0023,-0.0048,-0.0051,-0.0098,9.7505,0.0179,1.0115,0.0000,0.0000,0.0000,1.0000,0.2438,0.0005,0.0253
174653,Left,2,-0.0074,0.0011,-0.9987,-0.0502,0.0111,0.0040,0.0033,0.0127,-0.0042,-0.0877,0.1302,-0.0093,9.7241,0.0001,0.0000,0.0000,1.0000,0.0033,-0.0003,0.2431
174653,Right,606208,-0.0121,0.0074,-0.9373,-0.3483,0.0040,0.0044,0.0041,-0.0165,-0.0065,0.1603,0.2849,-0.0388,9.9689,0.0001,0.0001,0.0001,1.0000,0.0071,-0.0010,0.2492
174654,Pelvis,2,-0.6692,0.0196,-0.7425,-0.0227,0.0030,0.0013,0.0023,-0.0029,-0.0286,0.0178,9.7776,0.0412,1.0176,0.0000,0.0000,0.0000,1.0000,0.2444,0.0010,0.0254
174654,Left,2,-0.0074,0.0011,-0.9987,-0.0502,0.0102,0.0037,0.0037,0.0008,0.0033,-0.1021,0.1427,-0.0157,9.7095,0.0001,0.0000,0.0000,1.0000,0.0036,-0.0004,0.2427
174654,Right,606208,-0.0121,0.0074,-0.9373,-0.3482,0.0047,0.0050,0.0036,0.0010,0.0046,0.1262,0.2779,-0.0584,9.9348,0.0001,0.0001,0.0000,1.0000,0.0070,-0.0015,0.2484
174655,Pelvis,2,-0.6692,0.0196,-0.7425,-0.0227,0.0014,0.0022,0.0017,-0.0073,0.0038,0.0009,9.7615,0.0090,1.0097,0.0000,0.0000,0.0000,1.0000,0.2440,0.0002,0.0252
174655,Left,2,-0.0074,0.0011,-0.9987,-0.0502,0.0125,0.0048,0.0015,0.0028,0.0140,-0.1001,0.1419,-0.0266,9.7116,0.0002,0.0001,0.0000,1.0000,0.0036,-0.0007,0.2428
174655,Right,606208,-0.0121,0.0074,-0.9373,-0.3482,0.0018,0.0047,0.0035,0.0036,-0.0061,0.1239,0.2690,-0.0520,9.9328,0.0000,0.0001,0.0000,1.0000,0.0067,-0.0013,0.2483
174656,Pelvis,2,-0.6692,0.0196,-0.7425,-0.0227,0.0009,0.0004,0.0021,0.0195,-0.0116,0.0030,9.7607,0.0228,1.0374,0.0000,0.0000,0.0000,1.0000,0.2440,0.0006,0.0259
174656,Left,2,-0.0074,0.0011,-0.9987,-0.0502,0.0109,0.0046,0.0031,0.0079,0.0023,-0.0904,0.1357,-0.0154,9.7213,0.0001,0.0001,0.0000,1.0000,0.0034,-0.0004,0.2430
174656,Right,606208,-0.0121,0.0074,-0.9373,-0.3482,0.0031,0.0058,0.0033,-0.0066,0.0146,0.1491,0.2908,-0.0615,9.9574,0.0000,0.0001,0.0000,1.0000,0.0073,-0.0015,0.2489
174657,Pelvis,2,-0.6692,0.0196,-0.7425,-0.0227,0.0024,0.0031,0.0010,0.0098,0.0081,0.0030,9.7619,0.0037,1.0267,0.0000,0.0000,0.0000,1.0000,0.2440,0.0001,0.0257
174657,Left,2,-0.0074,0.0011,-0.9987,-0.0502,0.0099,0.0040,0.0027,0.0087,-0.0006,-0.0904,0.1347,-0.0129,9.7213,0.0001,0.0000,0.0000,1.0000,0.0034,-0.0004,0.2430
174657,Right,606208,-0.0121,0.0074,-0.9373,-0.3483,0.0040,0.0055,0.0025,-0.0152,-0.0125,0.1603,0.2798,-0.0355,9.9690,0.0001,0.0001,0.0000,1.0000,0.0070,-0.0009,0.2492
174658,Pelvis,2,-0.6692,0.0196,-0.7425,-0.0227,0.0011,0.0010,0.0020,0.0129,-0.0049,0.0051,9.7635,0.0166,1.0308,0.0000,0.0000,0.0000,1.0000,0.2441,0.0004,0.0258
174658,Left,2,-0.0074,0.0011,-0.9987,-0.0502,0.0123,0.0042,0.0024,0.0207,-0.0111,-0.0926,0.1216,-0.0037,9.7193,0.0002,0.0001,0.0000,1.0000,0.0031,-0.0001,0.2430
174658,Right,606208,-0.0121,0.0074,-0.9373,-0.3482,0.0043,0.0052,0.0040,0.0004,-0.0042,0.1353,0.2726,-0.0518,9.9442,0.0001,0.0001,0.0000,1.0000,0.0068,-0.0013,0.2486
174659,Pelvis,2,-0.6692,0.0196,-0.7425,-0.0228,0.0013,0.0006,0.0008,0.0132,-0.0046,0.0051,9.7635,0.0163,1.0310,0.0000,0.0000,0.0000,1.0000,0.2441,0.0004,0.0258
174659,Left,2,-0.0074,0.0011,-0.9987,-0.0502,0.0116,0.0033,0.0030,0.0062,-0.0137,-0.0855,0.1361,0.0005,9.7262,0.0001,0.0000,0.0000,1.0000,0.0034,-0.0000,0.2432
174659,Right,606208,-0.0120,0.0074,-0.9373,-0.3482,0.0045,0.0059,0.0039,0.0112,-0.0016,0.1701,0.2669,-0.0609,9.9790,0.0001,0.0001,0.0000,1.0000,0.0067,-0.0015,0.2495
174660,Pelvis,2,-0.6692,0.0196,-0.7425,-0.0228,0.0018,0.0007,0.0015,0.0062,0.0018,0.0073,9.7664,0.0105,1.0237,0.0000,0.0000,0.0000,1.0000,0.2442,0.0003,0.0256
174660,Left,2,-0.0074,0.0011,-0.9987,-0.0502,0.0119,0.0043,0.0029,0.0232,0.0131,-0.1051,0.1217,-0.0278,9.7069,0.0001,0.0001,0.0000,1.0000,0.0031,-0.0007,0.2427
174660,Right,606208,-0.0120,0.0074,-0.9373,-0.3482,0.0031,0.0058,0.0033,0.0064,-0.0112,0.1561,0.2637,-0.0504,9.9652,0.0000,0.0001,0.0000,1.0000,0.0066,-0.0013,0.2491
174661,Pelvis,2,-0.6692,0.0196,-0.7425,-0.0228,0.0017,0.0017,0.0026,-0.0066,-0.0095,-0.0056,9.7549,0.0225,1.0103,0.0000,0.0000,0.0000,1.0000,0.2439,0.0006,0.0253
174661,Left,2,-0.0074,0.0011,-0.9987,-0.0502,0.0122,0.0056,0.0042,0.0118,-0.0120,-0.0904,0.1306,-0.0015,9.7214,0.0002,0.0001,0.0001,1.0000,0.0033,-0.0001,0.2430
174661,Right,606208,-0.0120,0.0074,-0.9373,-0.3482,0.0048,0.0051,0.0026,-0.0099,-0.0131,0.1420,0.2743,-0.0382,9.9508,0.0001,0.0001,0.0000,1.0000,0.0069,-0.0010,0.2488
174662,Pelvis,2,-0.6692,0.0196,-0.7425,-0.0228,0.0036,0.0029,0.0014,-0.0169,0.0050,0.0072,9.7688,0.0086,1.0008,0.0000,0.0000,0.0000,1.0000,0.2442,0.0002,0.0250
174662,Left,2,-0.0074,0.0011,-0.9987,-0.0502,0.0109,0.0036,0.0026,0.0042,-0.0133,-0.0952,0.1379,0.0006,9.7165,0.0001,0.0000,0.0000,1.0000,0.0035,-0.0000,0.2429
174662,Right,606208,-0.0120,0.0074,-0.9373,-0.3483,0.0027,0.0044,0.0026,-0.0116,-0.0173,0.1512,0.2731,-0.0339,9.9601,0.0000,0.0001,0.0000,1.0000,0.0068,-0.0009,0.2490
174663,Pelvis,2,-0.6692,0.0196,-0.7425,-0.0228,0.0008,-0.0002,0.0022,0.0025,-0.0045,0.0115,9.7709,0.0169,1.0210,0.0000,-0.0000,0.0000,1.0000,0.2443,0.0004,0.0255
174663,Left,2,-0.0074,0.0011,-0.9987,-0.0502,0.0121,0.0046,0.0037,0.0129,0.0157,-0.0792,0.1325,-0.0291,9.7326,0.0002,0.0001,0.0000,1.0000,0.0033,-0.0008,0.2433
174663,Right,606208,-0.0120,0.0074,-0.9373,-0.3483,0.0045,0.0069,0.0032,0.0090,0.0111,0.1333,0.2754,-0.0688,9.9420,0.0001,0.0001,0.0000,1.0000,0.0069,-0.0017,0.2485
174664,Pelvis,2,-0.6692,0.0196,-0.7425,-0.0228,0.0024,0.0014,0.0022,-0.0013,-0.0063,0.0029,9.7629,0.0188,1.0163,0.0000,0.0000,0.0000,1.0000,0.2441,0.0005,0.0254
174664,Left,2,-0.0074,0.0010,-0.9987,-0.0502,0.0130,0.0039,0.0028,-0.0043,0.0022,-0.0908,0.1481,-0.0137,9.7207,0.0002,0.0000,0.0000,1.0000,0.0037,-0.0004,0.2430
174664,Right,606208,-0.0120,0.0074,-0.9373,-0.3483,0.0037,0.0046,0.0036,-0.0040,0.0024,0.1491,0.2798,-0.0539,9.9577,0.0000,0.0001,0.0000,1.0000,0.0070,-0.0014,0.2489
174665,Pelvis,2,-0.6692,0.0197,-0.7425,-0.0228,0.0009,0.0021,0.0009,-0.0126,-0.0021,-0.0035,9.7577,0.0153,1.0043,0.0000,0.0000,0.0000,1.0000,0.2439,0.0004,0.0251
174665,Left,2,-0.0074,0.0010,-0.9987,-0.0502,0.0112,0.0034,0.0036,-0.0131,-0.0127,-0.0977,0.1555,0.0022,9.7138,0.0001,0.0000,0.0000,1.0000,0.0039,0.0000,0.2428
174665,Right,606208,-0.0120,0.0074,-0.9373,-0.3483,0.0045,0.0043,0.0028,0.0037,-0.0003,0.1608,0.2727,-0.0568,9.9696,0.0001,0.0001,0.0000,1.0000,0.0068,-0.0014,0.2492
174666,Pelvis,2,-0.6692,0.0197,-0.7425,-0.0228,0.0023,0.0016,0.0028,-0.0011,-0.0108,0.0157,9.7755,0.0233,1.0182,0.0000,0.0000,0.0000,1.0000,0.2444,0.0006,0.0255
174666,Left,2,-0.0074,0.0010,-0.9987,-0.0502,0.0119,0.0043,0.0029,0.0014,0.0039,-0.0957,0.1429,-0.0158,9.7159,0.0001,0.0001,0.0000,1.0000,0.0036,-0.0004,0.2429
174666,Right,606208,-0.0120,0.0074,-0.9373,-0.3483,0.0023,0.0045,0.0031,-0.0012,-0.0098,0.1468,0.2698,-0.0464,9.9557,0.0000,0.0001,0.0000,1.0000,0.0068,-0.0012,0.2489
174667,Left,2,-0.0074,0.0010,-0.9987,-0.0502,0.0118,0.0039,0.0022,0.0077,0.0058,-0.0839,0.1371,-0.0181,9.7278,0.0001,0.0000,0.0000,1.0000,0.0034,-0.0005,0.2432
174667,Right,606208,-0.0120,0.0074,-0.9373,-0.3483,0.0039,0.0054,0.0035,-0.0030,-0.0021,0.1491,0.2763,-0.0513,9.9579,0.0000,0.0001,0.0000,1.0000,0.0069,-0.0013,0.2489
174668,Pelvis,2,-0.6692,0.0197,-0.7425,-0.0228,0.0017,0.0009,0.0021,0.0091,0.0070,0.0009,9.7598,0.0046,1.0258,0.0000,0.0000,0.0001,1.0000,0.4880,0.0003,0.0513
174668,Left,2,-0.0074,0.0010,-0.9987,-0.0502,0.0110,0.0030,0.0028,0.0029,-0.0018,-0.0957,0.1411,-0.0101,9.7160,0.0001,0.0000,0.0000,1.0000,0.0035,-0.0003,0.2429
174668,Right,606208,-0.0120,0.0074,-0.9373,-0.3483,0.0031,0.0041,0.0032,0.0025,0.0044,0.1631,0.2769,-0.0600,9.9718,0.0000,0.0001,0.0000,1.0000,0.0069,-0.0015,0.2493
174669,Pelvis,2,-0.6692,0.0197,-0.7425,-0.0228,0.0014,0.0012,0.0007,-0.0349,0.0019,-0.0035,9.7600,0.0126,0.9817,0.0000,0.0000,0.0000,1.0000,0.2440,0.0003,0.0245
174669,Left,2,-0.0074,0.0010,-0.9987,-0.0502,0.0110,0.0030,0.0028,0.0093,0.0001,-0.0839,0.1355,-0.0127,9.7278,0.0001,0.0000,0.0000,1.0000,0.0034,-0.0004,0.2432
174669,Right,606208,-0.0120,0.0074,-0.9373,-0.3483,0.0033,0.0049,0.0031,-0.0024,-0.0051,0.1491,0.2740,-0.0497,9.9579,0.0000,0.0001,0.0000,1.0000,0.0069,-0.0013,0.2489
174670,Pelvis,2,-0.6692,0.0197,-0.7425,-0.0228,0.0018,0.0015,0.0020,0.0131,-0.0027,-0.0034,9.7551,0.0143,1.0296,0.0000,0.0000,0.0000,1.0000,0.2439,0.0004,0.0257
174670,Left,2,-0.0074,0.0011,-0.9987,-0.0502,0.0106,0.0034,0.0048,0.0016,-0.0013,-0.0887,0.1431,-0.0107,9.7230,0.0001,0.0000,0.0001,1.0000,0.0036,-0.0003,0.2431
174670,Right,606208,-0.0120,0.0074,-0.9373,-0.3483,0.0036,0.0056,0.0029,-0.0040,-0.0094,0.1583,0.2727,-0.0455,9.9671,0.0000,0.0001,0.0000,1.0000,0.0068,-0.0011,0.2492
174671,Right,606208,-0.0120,0.0075,-0.9373,-0.3483,0.0036,0.0045,0.0045,-0.0039,0.0011,0.1515,0.2792,-0.0535,9.9601,0.0000,0.0001,0.0001,1.0000,0.0070,-0.0013,0.2490
174672,Pelvis,2,-0.6692,0.0197,-0.7425,-0.0228,0.0017,0.0013,0.0010,0.0021,0.0041,0.0062,9.7658,0.0082,1.0194,0.0000,0.0000,0.0000,1.0000,0.4883,0.0004,0.0510
174672,Left,2,-0.0074,0.0010,-0.9987,-0.0502,0.0117,0.0047,0.0023,-0.0018,-0.0034,-0.0910,0.1458,-0.0069,9.7206,0.0003,0.0001,0.0001,1.0000,0.0073,-0.0005,0.4860
174672,Right,606208,-0.0120,0.0075,-0.9373,-0.3483,0.0044,0.0037,0.0019,-0.0055,-0.0032,0.1606,0.2781,-0.0492,9.9693,0.0001,0.0000,0.0000,1.0000,0.0070,-0.0012,0.2492
174673,Pelvis,2,-0.6692,0.0196,-0.7425,-0.0228,0.0028,0.0007,-0.0002,-0.0144,-0.0065,0.0008,9.7621,0.0204,1.0028,0.0000,0.0000,-0.0000,1.0000,0.2441,0.0005,0.0251
174673,Left,2,-0.0075,0.0011,-0.9987,-0.0502,0.0102,0.0027,0.0032,-0.0087,0.0006,-0.1030,0.1536,-0.0116,9.7085,0.0001,0.0000,0.0000,1.0000,0.0038,-0.0003,0.2427
174673,Right,606208,-0.0120,0.0074,-0.9373,-0.3483,0.0037,0.0073,0.0031,-0.0104,-0.0128,0.1466,0.2750,-0.0387,9.9555,0.0000,0.0001,0.0000,1.0000,0.0069,-0.0010,0.2489
174674,Pelvis,2,-0.6692,0.0196,-0.7425,-0.0228,0.0018,0.0007,0.0015,-0.0012,0.0005,-0.0184,9.7418,0.0129,1.0133,0.0000,0.0000,0.0000,1.0000,0.2435,0.0003,0.0253
174674,Left,2,-0.0074,0.0011,-0.9987,-0.0502,0.0113,0.0056,0.0030,0.0089,-0.0053,-0.0935,0.1357,-0.0077,9.7182,0.0001,0.0001,0.0000,1.0000,0.0034,-0.0002,0.2430
174674,Right,606208,-0.0120,0.0075,-0.9373,-0.3483,0.0035,0.0029,0.0043,-0.0031,0.0085,0.1447,0.2833,-0.0597,9.9531,0.0000,0.0000,0.0001,1.0000,0.0071,-0.0015,0.2488
174675,Pelvis,2,-0.6692,0.0196,-0.7425,-0.0228,0.0024,0.0006,0.0017,0.0044,0.0133,0.0094,9.7689,-0.0002,1.0208,0.0000,0.0000,0.0000,1.0000,0.2442,-0.0000,0.0255
174675,Left,2,-0.0075,0.0011,-0.9987,-0.0502,0.0112,0.0034,0.0036,0.0080,0.0116,-0.0843,0.1383,-0.0245,9.7273,0.0001,0.0000,0.0000,1.0000,0.0035,-0.0006,0.2432
174675,Right,606208,-0.0120,0.0075,-0.9373,-0.3483,0.0039,0.0054,0.0035,-0.0047,0.0042,0.1538,0.2822,-0.0554,9.9623,0.0000,0.0001,0.0000,1.0000,0.0071,-0.0014,0.2491
174676,Pelvis,2,-0.6692,0.0196,-0.7425,-0.0228,0.0033,0.0027,0.0027,-0.0058,-0.0114,-0.0014,9.7591,0.0250,1.0111,0.0000,0.0000,0.0000,1.0000,0.2440,0.0006,0.0253
174676,Left,2,-0.0074,0.0011,-0.9987,-0.0502,0.0106,0.0049,0.0020,-0.0092,-0.0018,-0.0960,0.1540,-0.0095,9.7155,0.0001,0.0001,0.0000,1.0000,0.0039,-0.0003,0.2429
174676,Right,606208,-0.0120,0.0075,-0.9373,-0.3483,0.0032,0.0059,0.0024,-0.0054,-0.0117,0.1283,0.2714,-0.0428,9.9372,0.0000,0.0001,0.0000,1.0000,0.0068,-0.0011,0.2484
174677,Pelvis,2,-0.6692,0.0196,-0.7425,-0.0228,0.0025,0.0012,0.0016,0.0035,-0.0015,0.0029,9.7624,0.0145,1.0204,0.0000,0.0000,0.0000,1.0000,0.2441,0.0004,0.0255
174677,Left,2,-0.0074,0.0011,-0.9987,-0.0502,0.0115,0.0052,0.0016,0.0084,-0.0077,-0.0865,0.1359,-0.0055,9.7252,0.0001,0.0001,0.0000,1.0000,0.0034,-0.0002,0.2431
174677,Right,606208,-0.0120,0.0075,-0.9373,-0.3483,0.0040,0.0055,0.0025,0.0126,0.0015,0.1679,0.2674,-0.0649,9.9768,0.0001,0.0001,0.0000,1.0000,0.0067,-0.0016,0.2494
174678,Pelvis,2,-0.6692,0.0196,-0.7425,-0.0228,0.0031,0.0012,0.0018,-0.0035,0.0049,0.0051,9.7653,0.0086,1.0132,0.0000,0.0000,0.0000,1.0000,0.2441,0.0002,0.0253
174678,Left,2,-0.0074,0.0011,-0.9987,-0.0502,0.0113,0.0046,0.0025,0.0202,-0.0018,-0.1033,0.1244,-0.0125,9.7087,0.0001,0.0001,0.0000,1.0000,0.0031,-0.0003,0.2427
174678,Right,606208,-0.0120,0.0075,-0.9373,-0.3483,0.0025,0.0053,0.0029,-0.0037,-0.0003,0.1538,0.2780,-0.0529,9.9625,0.0000,0.0001,0.0000,1.0000,0.0070,-0.0013,0.2491
174679,Pelvis,2,-0.6692,0.0196,-0.7425,-0.0228,0.0017,0.0017,0.0026,-0.0025,0.0105,-0.0077,9.7526,0.0029,1.0124,0.0000,0.0000,0.0000,1.0000,0.2438,0.0001,0.0253
174679,Left,2,-0.0075,0.0011,-0.9987,-0.0502,0.0121,0.0027,0.0027,0.0112,0.0002,-0.0843,0.1340,-0.0135,9.7274,0.0002,0.0000,0.0000,1.0000,0.0034,-0.0004,0.2432
174679,Right,606208,-0.0120,0.0075,-0.9373,-0.3483,0.0043,0.0062,0.0024,-0.0086,-0.0098,0.1398,0.2749,-0.0425,9.9486,0.0001,0.0001,0.0000,1.0000,0.0069,-0.0011,0.2487
174680,Pelvis,2,-0.6692,0.0197,-0.7425,-0.0228,0.0010,0.0020,0.0030,-0.0075,-0.0018,0.0093,9.7699,0.0152,1.0101,0.0000,0.0000,0.0000,1.0000,0.2442,0.0004,0.0252
174680,Left,2,-0.0075,0.0011,-0.9987,-0.0502,0.0109,0.0037,0.0025,-0.0020,-0.0057,-0.1008,0.1466,-0.0063,9.7107,0.0001,0.0000,0.0000,1.0000,0.0037,-0.0002,0.2428
174680,Right,606208,-0.0120,0.0075,-0.9373,-0.3483,0.0038,0.0053,0.0044,-0.0031,-0.0034,0.1538,0.2752,-0.0510,9.9626,0.0000,0.0001,0.0001,1.0000,0.0069,-0.0013,0.2491
174681,Pelvis,2,-0.6692,0.0196,-0.7425,-0.0228,0.0039,0.0009,0.0013,0.0008,-0.0022,-0.0056,9.7542,0.0150,1.0168,0.0000,0.0000,0.0000,1.0000,0.2439,0.0004,0.0254
174681,Left,2,-0.0075,0.0011,-0.9987,-0.0502,0.0123,0.0040,0.0040,0.0003,-0.0114,-0.0842,0.1441,-0.0008,9.7274,0.0002,0.0001,0.0000,1.0000,0.0036,-0.0001,0.2432
174681,Right,606208,-0.0120,0.0075,-0.9373,-0.3483,0.0031,0.0027,0.0011,-0.0008,-0.0021,0.1447,0.2742,-0.0535,9.9534,0.0000,0.0000,0.0000,1.0000,0.0069,-0.0013,0.2488
174682,Pelvis,2,-0.6692,0.0196,-0.7425,-0.0228,0.0012,0.0026,0.0029,0.0244,-0.0095,0.0072,9.7644,0.0209,1.0421,0.0000,0.0000,0.0000,1.0000,0.2441,0.0005,0.0260
174682,Left,2,-0.0075,0.0011,-0.9987,-0.0502,0.0105,0.0027,0.0026,0.0161,0.0019,-0.1058,0.1296,-0.0156,9.7060,0.0001,0.0000,0.0000,1.0000,0.0032,-0.0004,0.2427
174682,Right,606208,-0.0120,0.0075,-0.9373,-0.3483,0.0035,0.0055,0.0039,0.0091,-0.0141,0.1539,0.2594,-0.0511,9.9631,0.0000,0.0001,0.0000,1.0000,0.0065,-0.0013,0.2491
174683,Pelvis,2,-0.6692,0.0196,-0.7425,-0.0228,0.0019,0.0013,0.0014,0.0012,-0.0016,-0.0056,9.7541,0.0141,1.0177,0.0000,0.0000,0.0000,1.0000,0.2439,0.0004,0.0254
174683,Left,2,-0.0075,0.0011,-0.9987,-0.0502,0.0132,0.0046,0.0019,-0.0054,-0.0020,-0.0868,0.1511,-0.0095,9.7247,0.0002,0.0001,0.0000,1.0000,0.0038,-0.0003,0.2431
174683,Right,606208,-0.0121,0.0074,-0.9373,-0.3482,0.0035,0.0040,0.0028,-0.0044,-0.0008,0.1653,0.2796,-0.0508,9.9739,0.0000,0.0000,0.0000,1.0000,0.0070,-0.0013,0.2493
174684,Pelvis,2,-0.6692,0.0196,-0.7425,-0.0228,0.0026,0.0020,0.0020,-0.0063,-0.0004,0.0093,9.7697,0.0134,1.0117,0.0000,0.0000,0.0000,1.0000,0.2442,0.0003,0.0253
174684,Left,2,-0.0075,0.0011,-0.9987,-0.0502,0.0110,0.0030,0.0028,0.0108,-0.0051,-0.0939,0.1348,-0.0079,9.7178,0.0001,0.0000,0.0000,1.0000,0.0034,-0.0002,0.2429
174684,Right,606208,-0.0121,0.0074,-0.9373,-0.3482,0.0039,0.0054,0.0035,0.0167,-0.0084,0.1679,0.2588,-0.0588,9.9771,0.0000,0.0001,0.0000,1.0000,0.0065,-0.0015,0.2494
174685,Pelvis,2,-0.6692,0.0196,-0.7425,-0.0228,0.0013,0.0014,0.0012,-0.0176,0.0038,0.0029,9.7646,0.0099,0.9997,0.0000,0.0000,0.0000,1.0000,0.2441,0.0003,0.0250
174685,Left,2,-0.0075,0.0011,-0.9987,-0.0503,0.0113,0.0046,0.0024,0.0087,-0.0018,-0.0869,0.1374,-0.0110,9.7248,0.0001,0.0001,0.0000,1.0000,0.0034,-0.0003,0.2431
174685,Right,606208,-0.0121,0.0074,-0.9373,-0.3482,0.0040,0.0044,0.0041,-0.0091,0.0002,0.1445,0.2833,-0.0483,9.9531,0.0001,0.0001,0.0001,1.0000,0.0071,-0.0012,0.2488
174686,Pelvis,2,-0.6692,0.0196,-0.7425,-0.0228,0.0017,0.0009,0.0021,0.0071,0.0069,-0.0098,9.7494,0.0053,1.0227,0.0000,0.0000,0.0000,1.0000,0.2437,0.0001,0.0256
174686,Left,2,-0.0075,0.0010,-0.9987,-0.0503,0.0124,0.0036,0.0026,0.0080,-0.0018,-0.1035,0.1379,-0.0108,9.7082,0.0002,0.0000,0.0000,1.0000,0.0035,-0.0003,0.2427
174686,Right,606208,-0.0121,0.0074,-0.9373,-0.3482,0.0045,0.0043,0.0028,0.0079,-0.0010,0.1586,0.2702,-0.0585,9.9675,0.0001,0.0001,0.0000,1.0000,0.0068,-0.0015,0.2492
174687,Pelvis,2,-0.6692,0.0196,-0.7425,-0.0228,0.0028,0.0016,0.0009,-0.0216,-0.0029,0.0071,9.7692,0.0169,0.9965,0.0000,0.0000,0.0000,1.0000,0.2442,0.0004,0.0249
174687,Right,606208,-0.0121,0.0074,-0.9373,-0.3482,0.0039,0.0054,0.0035,0.0031,-0.0105,0.1447,0.2673,-0.0480,9.9536,0.0000,0.0001,0.0000,1.0000,0.0067,-0.0012,0.2488
174688,Pelvis,2,-0.6692,0.0197,-0.7425,-0.0228,0.0010,0.0020,0.0030,-0.0165,0.0049,0.0029,9.7645,0.0088,1.0008,0.0000,0.0000,0.0000,1.0000,0.2441,0.0002,0.0250
174688,Left,2,-0.0075,0.0010,-0.9987,-0.0503,0.0119,0.0046,0.0028,0.0072,0.0151,-0.0942,0.1400,-0.0258,9.7174,0.0003,0.0001,0.0001,1.0000,0.0071,-0.0014,0.4859
174688,Right,606208,-0.0121,0.0074,-0.9373,-0.3482,0.0031,0.0058,0.0034,-0.0081,-0.0043,0.1445,0.2796,-0.0454,9.9532,0.0000,0.0001,0.0000,1.0000,0.0070,-0.0011,0.2488
174689,Pelvis,2,-0.6692,0.0196,-0.7425,-0.0228,0.0033,0.0017,0.0016,0.0003,0.0088,0.0051,9.7649,0.0038,1.0175,0.0000,0.0000,0.0000,1.0000,0.2441,0.0001,0.0254
174689,Left,2,-0.0075,0.0010,-0.9987,-0.0503,0.0110,0.0046,0.0030,0.0006,-0.0055,-0.0846,0.1451,-0.0060,9.7270,0.0001,0.0001,0.0000,1.0000,0.0036,-0.0002,0.2432
174689,Right,606208,-0.0121,0.0074,-0.9373,-0.3482,0.0047,0.0050,0.0036,0.0016,-0.0043,0.1470,0.2723,-0.0517,9.9558,0.0001,0.0001,0.0000,1.0000,0.0068,-0.0013,0.2489
174690,Pelvis,2,-0.6692,0.0196,-0.7425,-0.0228,0.0024,0.0006,0.0017,-0.0035,0.0070,-0.0035,9.7568,0.0058,1.0129,0.0000,0.0000,0.0000,1.0000,0.2439,0.0002,0.0253
174690,Left,2,-0.0075,0.0010,-0.9987,-0.0503,0.0112,0.0036,0.0019,0.0014,-0.0084,-0.0846,0.1441,-0.0033,9.7271,0.0001,0.0000,0.0000,1.0000,0.0036,-0.0001,0.2432
174690,Right,606208,-0.0121,0.0074,-0.9373,-0.3482,0.0039,0.0054,0.0035,0.0019,-0.0058,0.1470,0.2710,-0.0507,9.9559,0.0000,0.0001,0.0000,1.0000,0.0068,-0.0013,0.2489
174691,Pelvis,2,-0.6692,0.0196,-0.7425,-0.0228,0.0021,0.0019,0.0013,0.0085,0.0035,0.0029,9.7619,0.0087,1.0256,0.0000,0.0000,0.0000,1.0000,0.2440,0.0002,0.0256
174691,Left,2,-0.0075,0.0010,-0.9987,-0.0503,0.0108,0.0043,0.0023,0.0091,-0.0099,-0.0965,0.1362,-0.0027,9.7153,0.0001,0.0001,0.0000,1.0000,0.0034,-0.0001,0.2429
174691,Right,606208,-0.0121,0.0074,-0.9373,-0.3482,0.0034,0.0039,0.0037,0.0010,-0.0097,0.1147,0.2684,-0.0470,9.9237,0.0000,0.0000,0.0000,1.0000,0.0067,-0.0012,0.2481
174692,Pelvis,2,-0.6692,0.0196,-0.7425,-0.0228,0.0008,0.0013,0.0005,0.0046,0.0017,-0.0056,9.7538,0.0109,1.0210,0.0000,0.0000,0.0000,1.0000,0.2438,0.0003,0.0255
174692,Left,2,-0.0075,0.0011,-0.9987,-0.0503,0.0109,0.0037,0.0025,0.0124,0.0144,-0.0920,0.1356,-0.0273,9.7197,0.0001,0.0000,0.0000,1.0000,0.0034,-0.0007,0.2430
174692,Right,606208,-0.0121,0.0074,-0.9373,-0.3482,0.0028,0.0060,0.0028,-0.0016,-0.0024,0.1585,0.2763,-0.0513,9.9672,0.0000,0.0001,0.0000,1.0000,0.0069,-0.0013,0.2492
174693,Pelvis,2,-0.6692,0.0196,-0.7425,-0.0228,0.0025,0.0012,0.0016,-0.0072,0.0007,0.0008,9.7613,0.0128,1.0100,0.0000,0.0000,0.0000,1.0000,0.2440,0.0003,0.0252
174693,Left,2,-0.0075,0.0010,-0.9987,-0.0503,0.0118,0.0049,0.0026,-0.0006,-0.0079,-0.0941,0.1462,-0.0038,9.7175,0.0001,0.0001,0.0000,1.0000,0.0037,-0.0001,0.2429
174693,Right,606208,-0.0121,0.0074,-0.9373,-0.3482,0.0049,0.0041,0.0033,-0.0024,-0.0063,0.1262,0.2735,-0.0476,9.9350,0.0001,0.0001,0.0000,1.0000,0.0069,-0.0012,0.2484
174694,Pelvis,2,-0.6692,0.0196,-0.7425,-0.0228,0.0024,0.0006,0.0017,-0.0042,-0.0123,0.0029,9.7630,0.0257,1.0138,0.0000,0.0000,0.0000,1.0000,0.2441,0.0006,0.0253
174694,Left,2,-0.0075,0.0010,-0.9987,-0.0503,0.0115,0.0050,0.0032,0.0267,-0.0018,-0.0777,0.1198,-0.0125,9.7343,0.0001,0.0001,0.0000,1.0000,0.0030,-0.0003,0.2434
174694,Right,606208,-0.0121,0.0074,-0.9373,-0.3482,0.0039,0.0054,0.0035,-0.0082,-0.0042,0.1469,0.2799,-0.0454,9.9555,0.0000,0.0001,0.0000,1.0000,0.0070,-0.0011,0.2489
174695,Pelvis,2,-0.6692,0.0196,-0.7425,-0.0228,0.0024,0.0024,0.0032,-0.0064,0.0014,0.0008,9.7613,0.0119,1.0106,0.0000,0.0000,0.0000,1.0000,0.2440,0.0003,0.0253
174695,Left,2,-0.0075,0.0010,-0.9987,-0.0503,0.0114,0.0037,0.0044,0.0119,0.0120,-0.0849,0.1358,-0.0248,9.7268,0.0001,0.0000,0.0001,1.0000,0.0034,-0.0007,0.2432
174695,Right,606208,-0.0121,0.0074,-0.9373,-0.3481,0.0036,0.0045,0.0045,0.0129,-0.0118,0.1495,0.2590,-0.0534,9.9587,0.0000,0.0001,0.0001,1.0000,0.0065,-0.0013,0.2490
174696,Pelvis,2,-0.6692,0.0196,-0.7425,-0.0228,0.0011,0.0000,0.0009,-0.0013,0.0092,-0.0035,9.7566,0.0038,1.0148,0.0000,0.0000,0.0000,1.0000,0.2439,0.0001,0.0254
174696,Left,2,-0.0075,0.0010,-0.9987,-0.0503,0.0120,0.0053,0.0034,0.0073,-0.0119,-0.0824,0.1379,-0.0005,9.7294,0.0002,0.0001,0.0000,1.0000,0.0035,-0.0000,0.2432
174696,Right,606208,-0.0121,0.0074,-0.9373,-0.3481,0.0045,0.0043,0.0028,-0.0024,0.0008,0.1609,0.2792,-0.0530,9.9695,0.0001,0.0001,0.0000,1.0000,0.0070,-0.0013,0.2492
