PacketId,Role,StatusWord,Qx,Qy,Qz,Qw,Gx,Gy,Gz,FreeAx,FreeAy,FreeAz,Ax,Ay,Az,DQx,DQy,DQz,DQw,DVx,DVy,DVz
37566534,Left,0,0.0283,-0.0219,-0.9985,0.0412,-0.3900,-0.4970,0.2262,0.0000,-0.0000,-0.1491,-0.4683,0.3995,9.6440,-0.0049,-0.0062,0.0028,1.0000,-0.0132,0.0111,0.2410
37566534,Pelvis,0,-0.2531,-0.6150,-0.2904,0.6880,0.0012,0.0012,0.0012,-0.0000,0.0000,0.0091,9.7558,0.0875,1.1336,0.0000,0.0000,0.0000,1.0000,0.2439,0.0022,0.0283
37566534,Right,0,-0.0039,0.0012,-0.9985,-0.0540,0.0006,0.0049,0.0061,-0.0000,0.0000,-0.0467,0.0763,-0.0192,9.7656,0.0000,0.0001,0.0001,1.0000,0.0019,-0.0005,0.2441
37566535,Left,0,0.0225,-0.0183,-0.9986,0.0438,-0.3094,-0.4528,0.2098,-0.3154,0.2543,0.3052,-0.2039,0.1486,10.1229,-0.0039,-0.0057,0.0026,1.0000,-0.0065,0.0047,0.2530
37566535,Pelvis,0,-0.2530,-0.6150,-0.2903,0.6881,0.0012,0.0031,0.0012,-0.0286,0.0147,0.0027,9.7459,0.0775,1.1634,0.0000,0.0000,0.0000,1.0000,0.2436,0.0019,0.0291
37566535,Right,0,-0.0038,0.0012,-0.9985,-0.0539,0.0000,0.0049,0.0061,0.0122,0.0083,-0.0175,0.0654,-0.0289,9.7949,0.0000,0.0001,0.0001,1.0000,0.0016,-0.0007,0.2449
37566536,Left,0,0.0189,-0.0163,-0.9987,0.0454,-0.1533,-0.2592,0.1139,-0.3614,0.1918,0.2458,-0.0561,0.1402,10.0657,-0.0019,-0.0032,0.0014,1.0000,-0.0022,0.0040,0.2516
37566536,Pelvis,0,-0.2530,-0.6150,-0.2903,0.6881,0.0012,0.0024,0.0018,-0.0356,0.0078,0.0026,9.7459,0.0674,1.1640,0.0000,0.0000,0.0000,1.0000,0.2436,0.0017,0.0291
37566536,Right,0,-0.0037,0.0012,-0.9985,-0.0538,0.0000,0.0067,0.0073,0.0314,0.0063,-0.0567,0.0444,-0.0289,9.7559,0.0000,0.0001,0.0001,1.0000,0.0011,-0.0007,0.2439
37566537,Left,0,0.0158,-0.0142,-0.9987,0.0460,-0.1034,-0.1354,0.0501,-0.2548,0.2019,-0.0426,-0.0776,0.0793,9.7749,-0.0013,-0.0017,0.0006,1.0000,-0.0024,0.0023,0.2444
37566537,Pelvis,0,-0.2530,-0.6150,-0.2903,0.6881,0.0012,0.0012,0.0006,-0.0271,0.0129,0.0221,9.7654,0.0769,1.1645,0.0000,0.0000,0.0000,1.0000,0.2441,0.0019,0.0291
37566537,Right,0,-0.0037,0.0012,-0.9985,-0.0537,0.0006,0.0055,0.0079,0.0035,0.0191,-0.0272,0.0722,-0.0386,9.7852,0.0000,0.0001,0.0001,1.0000,0.0018,-0.0010,0.2446
37566538,Left,0,0.0112,-0.0103,-0.9988,0.0466,-0.1679,-0.1757,0.0502,-0.1612,0.0833,-0.1996,-0.0747,0.1307,9.6136,-0.0021,-0.0022,0.0006,1.0000,-0.0024,0.0038,0.2403
37566538,Pelvis,0,-0.2530,-0.6149,-0.2903,0.6881,0.0006,0.0024,0.0024,0.0059,0.0077,-0.0005,9.7458,0.0961,1.1356,0.0000,0.0000,0.0000,1.0000,0.2436,0.0024,0.0284
37566538,Right,0,-0.0036,0.0012,-0.9986,-0.0536,0.0006,0.0061,0.0085,0.0022,0.0094,-0.0467,0.0708,-0.0287,9.7657,0.0000,0.0001,0.0001,1.0000,0.0018,-0.0007,0.2441
37566539,Left,0,0.0060,-0.0056,-0.9988,0.0478,-0.2527,-0.2191,0.1003,-0.1708,0.0734,-0.1154,0.0257,0.0562,9.6989,-0.0032,-0.0027,0.0013,1.0000,-0.0000,0.0022,0.2425
37566539,Pelvis,0,-0.2530,-0.6149,-0.2903,0.6882,0.0024,0.0024,0.0018,-0.0285,0.0146,0.0027,9.7457,0.0761,1.1655,0.0000,0.0000,0.0000,1.0000,0.2436,0.0019,0.0291
37566539,Right,0,-0.0035,0.0012,-0.9986,-0.0535,-0.0018,0.0055,0.0073,0.0109,-0.0014,-0.0468,0.0596,-0.0191,9.7657,-0.0000,0.0001,0.0001,1.0000,0.0015,-0.0005,0.2441
37566540,Left,0,0.0020,-0.0019,-0.9988,0.0486,-0.2037,-0.1397,0.0714,-0.1513,0.0050,0.0035,0.0963,0.0436,9.8168,-0.0025,-0.0017,0.0009,1.0000,0.0020,0.0017,0.2454
37566540,Pelvis,0,-0.2530,-0.6149,-0.2902,0.6882,0.0031,-0.0006,0.0012,-0.0071,-0.0070,0.0090,9.7555,0.0758,1.1364,0.0000,-0.0000,0.0000,1.0000,0.2439,0.0019,0.0284
37566540,Right,0,-0.0034,0.0012,-0.9986,-0.0534,0.0012,0.0061,0.0067,0.0228,0.0168,-0.0273,0.0484,-0.0387,9.7852,0.0000,0.0001,0.0001,1.0000,0.0012,-0.0010,0.2446
37566541,Left,0,-0.0009,0.0007,-0.9988,0.0497,-0.1500,-0.0803,0.0891,-0.0627,-0.0623,0.0097,0.0762,0.0597,9.8223,-0.0019,-0.0010,0.0011,1.0000,0.0017,0.0020,0.2456
37566541,Pelvis,0,-0.2530,-0.6149,-0.2902,0.6882,0.0018,0.0018,0.0018,-0.0222,-0.0053,-0.0093,9.7359,0.0657,1.1463,0.0000,0.0000,0.0000,1.0000,0.2434,0.0016,0.0287
37566541,Right,0,-0.0034,0.0012,-0.9986,-0.0533,-0.0000,0.0049,0.0079,0.0021,0.0092,-0.0369,0.0666,-0.0288,9.7755,-0.0000,0.0001,0.0001,1.0000,0.0017,-0.0007,0.2444
37566542,Left,0,-0.0030,0.0021,-0.9987,0.0514,-0.1069,-0.0668,0.1346,-0.1518,-0.0208,-0.1456,0.2010,-0.0258,9.6662,-0.0013,-0.0008,0.0017,1.0000,0.0048,-0.0003,0.2417
37566542,Pelvis,0,-0.2530,-0.6149,-0.2902,0.6883,0.0024,0.0018,0.0012,-0.0133,0.0273,0.0126,9.7554,0.0947,1.1663,0.0000,0.0000,0.0000,1.0000,0.2439,0.0024,0.0292
37566542,Right,0,-0.0033,0.0012,-0.9986,-0.0533,0.0000,0.0067,0.0067,0.0009,-0.0007,-0.0370,0.0652,-0.0191,9.7755,0.0000,0.0001,0.0001,1.0000,0.0017,-0.0005,0.2444
37566543,Left,0,-0.0051,0.0034,-0.9985,0.0546,-0.1038,-0.0716,0.2614,-0.0608,-0.1261,-0.2051,0.1587,0.0607,9.6071,-0.0013,-0.0009,0.0033,1.0000,0.0037,0.0018,0.2402
37566543,Pelvis,0,-0.2530,-0.6149,-0.2902,0.6883,0.0012,0.0024,0.0006,-0.0133,-0.0004,0.0102,9.7553,0.0750,1.1473,0.0000,0.0000,0.0000,1.0000,0.2439,0.0019,0.0287
37566543,Right,0,-0.0032,0.0012,-0.9986,-0.0532,0.0006,0.0049,0.0073,0.0224,0.0165,-0.0273,0.0442,-0.0385,9.7852,0.0000,0.0001,0.0001,1.0000,0.0011,-0.0010,0.2446
37566544,Left,0,-0.0058,0.0037,-0.9982,0.0591,-0.0470,0.0003,0.3565,-0.1208,-0.0369,-0.0170,0.2346,-0.0506,9.7936,-0.0006,0.0000,0.0045,1.0000,0.0059,-0.0011,0.2448
37566544,Pelvis,0,-0.2530,-0.6148,-0.2902,0.6883,0.0012,0.0012,0.0012,0.0007,-0.0143,0.0079,9.7553,0.0748,1.1282,0.0000,0.0000,0.0000,1.0000,0.2439,0.0019,0.0282
37566544,Right,0,-0.0031,0.0012,-0.9986,-0.0531,0.0006,0.0061,0.0073,0.0027,0.0184,-0.0272,0.0624,-0.0384,9.7853,0.0000,0.0001,0.0001,1.0000,0.0016,-0.0010,0.2446
37566545,Left,0,-0.0080,0.0039,-0.9979,0.0646,-0.0368,-0.1173,0.4401,-0.1993,0.0209,-0.0144,0.3334,-0.1265,9.7938,-0.0005,-0.0015,0.0055,1.0000,0.0080,-0.0030,0.2449
37566545,Pelvis,0,-0.2530,-0.6148,-0.2901,0.6884,0.0018,0.0006,0.0018,0.0141,0.0002,-0.0016,9.7455,0.0940,1.1284,0.0000,0.0000,0.0000,1.0000,0.2436,0.0024,0.0282
37566545,Right,0,-0.0031,0.0012,-0.9986,-0.0530,-0.0000,0.0049,0.0079,-0.0085,0.0095,-0.0466,0.0708,-0.0286,9.7658,-0.0000,0.0001,0.0001,1.0000,0.0018,-0.0007,0.2441
37566546,Left,0,-0.0110,0.0045,-0.9974,0.0708,-0.0609,-0.1717,0.5011,-0.1272,0.0197,-0.1676,0.3086,-0.1298,9.6401,-0.0008,-0.0021,0.0063,1.0000,0.0072,-0.0030,0.2410
37566546,Pelvis,0,-0.2529,-0.6148,-0.2901,0.6884,0.0006,0.0024,0.0012,-0.0131,0.0140,0.0017,9.7454,0.0839,1.1581,0.0000,0.0000,0.0000,1.0000,0.2436,0.0021,0.0289
37566546,Right,0,-0.0030,0.0012,-0.9986,-0.0529,0.0018,0.0061,0.0061,0.0206,0.0060,-0.0273,0.0402,-0.0283,9.7853,0.0000,0.0001,0.0001,1.0000,0.0010,-0.0007,0.2446
37566547,Left,0,-0.0138,0.0058,-0.9968,0.0781,-0.1056,-0.1625,0.5825,-0.1393,-0.0034,-0.2166,0.3743,-0.1338,9.5889,-0.0013,-0.0020,0.0073,1.0000,0.0089,-0.0030,0.2397
37566547,Pelvis,0,-0.2529,-0.6148,-0.2901,0.6884,0.0024,0.0012,0.0018,-0.0337,-0.0068,0.0014,9.7454,0.0543,1.1586,0.0000,0.0000,0.0000,1.0000,0.2436,0.0014,0.0290
37566547,Right,0,-0.0029,0.0012,-0.9986,-0.0528,0.0000,0.0073,0.0067,-0.0076,0.0186,-0.0173,0.0678,-0.0379,9.7951,0.0000,0.0001,0.0001,1.0000,0.0017,-0.0009,0.2449
37566548,Left,0,-0.0180,0.0096,-0.9959,0.0880,-0.3141,-0.2713,0.8033,-0.2903,-0.0906,-0.3672,0.5942,-0.1284,9.4309,-0.0039,-0.0034,0.0100,0.9999,0.0141,-0.0021,0.2358
37566548,Pelvis,0,-0.2529,-0.6148,-0.2900,0.6884,0.0031,0.0006,0.0012,-0.0128,-0.0000,0.0005,9.7454,0.0735,1.1490,0.0000,0.0000,0.0000,1.0000,0.2436,0.0018,0.0287
37566548,Right,0,-0.0028,0.0012,-0.9986,-0.0527,-0.0006,0.0055,0.0073,0.0017,0.0171,-0.0174,0.0564,-0.0380,9.7951,-0.0000,0.0001,0.0001,1.0000,0.0014,-0.0009,0.2449
37566549,Left,0,-0.0143,0.0055,-0.9949,0.0994,0.3675,0.3204,0.9127,0.0451,-0.4893,0.3529,0.3672,0.3056,10.1663,0.0046,0.0040,0.0114,0.9999,0.0101,0.0066,0.2541
37566550,Left,0,-0.0091,0.0029,-0.9935,0.1130,0.2222,0.4266,1.0961,0.2515,0.1974,-0.1400,-0.0653,-0.2405,9.6748,0.0028,0.0053,0.0137,0.9999,-0.0003,-0.0067,0.2419
37566550,Pelvis,0,-0.2529,-0.6147,-0.2900,0.6885,0.0006,0.0015,0.0012,-0.0091,0.0172,0.0017,9.7453,0.0878,1.1592,0.0000,0.0000,0.0000,1.0000,0.4873,0.0044,0.0579
37566550,Right,0,-0.0026,0.0012,-0.9986,-0.0525,0.0003,0.0052,0.0079,-0.0050,0.0027,-0.0369,0.0594,-0.0234,9.7756,0.0000,0.0001,0.0002,1.0000,0.0030,-0.0012,0.4888
37566551,Left,0,-0.0042,-0.0014,-0.9926,0.1216,0.3757,0.3670,0.6859,0.3002,0.4631,-0.0822,-0.2716,-0.4091,9.7338,0.0047,0.0046,0.0086,0.9999,-0.0056,-0.0114,0.2433
37566551,Pelvis,0,-0.2529,-0.6147,-0.2900,0.6885,0.0024,0.0018,0.0018,-0.0186,0.0064,0.0016,9.7453,0.0727,1.1598,0.0000,0.0000,0.0000,1.0000,0.2436,0.0018,0.0290
37566551,Right,0,-0.0026,0.0013,-0.9986,-0.0524,0.0006,0.0061,0.0073,-0.0082,0.0170,-0.0466,0.0623,-0.0379,9.7658,0.0000,0.0001,0.0001,1.0000,0.0016,-0.0009,0.2441
37566552,Left,0,-0.0029,-0.0063,-0.9917,0.1287,0.4183,0.0387,0.5750,0.0290,-0.2084,0.4567,0.1029,0.2762,10.2673,0.0052,0.0005,0.0072,1.0000,0.0027,0.0056,0.2567
37566552,Pelvis,0,-0.2529,-0.6146,-0.2900,0.6886,0.0018,0.0006,0.0024,0.0033,-0.0015,0.0091,9.7550,0.0820,1.1406,0.0000,0.0000,0.0000,1.0000,0.2439,0.0021,0.0285
37566552,Right,0,-0.0025,0.0013,-0.9986,-0.0523,-0.0006,0.0055,0.0073,0.0006,0.0057,-0.0174,0.0510,-0.0281,9.7951,-0.0000,0.0001,0.0001,1.0000,0.0013,-0.0007,0.2449
37566553,Left,0,-0.0025,-0.0074,-0.9899,0.1413,0.0931,0.0125,1.0181,-0.1120,-0.2667,-0.0952,0.2476,0.3519,9.7123,0.0012,0.0002,0.0127,0.9999,0.0061,0.0086,0.2428
37566553,Pelvis,0,-0.2529,-0.6146,-0.2900,0.6886,0.0012,0.0018,0.0018,-0.0032,0.0052,0.0102,9.7550,0.0815,1.1506,0.0000,0.0000,0.0000,1.0000,0.2439,0.0020,0.0288
37566553,Right,0,-0.0025,0.0013,-0.9986,-0.0522,0.0012,0.0037,0.0073,-0.0102,-0.0033,-0.0174,0.0597,-0.0183,9.7951,0.0000,0.0000,0.0001,1.0000,0.0015,-0.0005,0.2449
37566554,Left,0,-0.0022,-0.0077,-0.9878,0.1552,0.0184,0.0296,1.1248,-0.2813,-0.0994,-0.1014,0.3652,0.1523,9.7079,0.0002,0.0004,0.0141,0.9999,0.0092,0.0039,0.2427
37566554,Pelvis,0,-0.2529,-0.6146,-0.2900,0.6886,0.0012,0.0018,0.0006,-0.0045,-0.0078,-0.0007,9.7452,0.0715,1.1413,0.0000,0.0000,0.0000,1.0000,0.2436,0.0018,0.0285
37566554,Right,0,-0.0024,0.0013,-0.9986,-0.0521,-0.0018,0.0061,0.0073,-0.0094,0.0061,-0.0369,0.0585,-0.0282,9.7756,-0.0000,0.0001,0.0001,1.0000,0.0015,-0.0007,0.2444
37566555,Left,0,-0.0022,-0.0080,-0.9852,0.1710,0.0175,0.0193,1.2769,-0.0588,0.4073,-0.1549,-0.0067,-0.2606,9.6631,0.0002,0.0002,0.0160,0.9999,-0.0000,-0.0066,0.2416
37566555,Pelvis,0,-0.2529,-0.6146,-0.2900,0.6886,0.0031,0.0018,0.0012,0.0026,0.0127,0.0006,9.7451,0.0908,1.1515,0.0000,0.0000,0.0000,1.0000,0.2436,0.0023,0.0288
37566555,Right,0,-0.0023,0.0013,-0.9986,-0.0521,0.0000,0.0061,0.0079,-0.0287,0.0079,-0.0367,0.0766,-0.0285,9.7757,0.0000,0.0001,0.0001,1.0000,0.0019,-0.0007,0.2444
37566556,Left,0,-0.0021,-0.0078,-0.9832,0.1822,-0.0058,0.0282,0.9092,0.0677,0.4090,-0.0806,-0.1363,-0.2175,9.7375,-0.0001,0.0004,0.0114,0.9999,-0.0033,-0.0055,0.2434
37566556,Pelvis,0,-0.2529,-0.6145,-0.2900,0.6887,-0.0000,0.0012,0.0018,-0.0029,0.0049,0.0102,9.7548,0.0807,1.1519,-0.0000,0.0000,0.0000,1.0000,0.2439,0.0020,0.0288
37566556,Right,0,-0.0023,0.0014,-0.9986,-0.0520,-0.0006,0.0043,0.0073,-0.0091,0.0055,-0.0369,0.0558,-0.0285,9.7756,-0.0000,0.0001,0.0001,1.0000,0.0014,-0.0007,0.2444
37566557,Left,0,-0.0021,-0.0077,-0.9812,0.1928,0.0175,0.0008,0.8670,-0.0613,0.0694,-0.1191,0.0996,0.0498,9.6934,0.0002,0.0000,0.0108,0.9999,0.0025,0.0012,0.2423
37566557,Pelvis,0,-0.2529,-0.6146,-0.2900,0.6887,0.0037,0.0012,0.0012,-0.0172,-0.0090,0.0101,9.7548,0.0609,1.1522,0.0000,0.0000,0.0000,1.0000,0.2439,0.0015,0.0288
37566557,Right,0,-0.0022,0.0013,-0.9986,-0.0519,0.0012,0.0055,0.0073,-0.0259,0.0267,-0.0269,0.0740,-0.0480,9.7855,0.0000,0.0001,0.0001,1.0000,0.0019,-0.0012,0.2446
37566558,Left,0,-0.0022,-0.0073,-0.9789,0.2041,-0.0094,0.0063,0.9138,0.1842,0.2932,-0.0306,-0.2129,-0.0653,9.7856,-0.0001,0.0001,0.0114,0.9999,-0.0053,-0.0017,0.2446
37566558,Pelvis,0,-0.2529,-0.6145,-0.2900,0.6887,0.0018,0.0018,0.0012,-0.0116,0.0133,-0.0080,9.7352,0.0802,1.1623,0.0000,0.0000,0.0000,1.0000,0.2434,0.0020,0.0291
37566558,Right,0,-0.0022,0.0014,-0.9987,-0.0518,-0.0000,0.0055,0.0073,-0.0178,0.0058,-0.0270,0.0630,-0.0283,9.7854,-0.0000,0.0001,0.0001,1.0000,0.0016,-0.0007,0.2446
37566559,Left,0,-0.0021,-0.0073,-0.9775,0.2107,0.0228,-0.0003,0.5382,0.4097,0.4662,-0.1165,-0.4941,-0.1325,9.7025,0.0003,-0.0000,0.0067,1.0000,-0.0123,-0.0035,0.2426
37566559,Pelvis,0,-0.2529,-0.6146,-0.2900,0.6887,0.0024,-0.0000,0.0012,0.0024,0.0116,0.0103,9.7547,0.0897,1.1527,0.0000,-0.0000,0.0000,1.0000,0.2439,0.0022,0.0288
37566559,Right,0,-0.0021,0.0014,-0.9987,-0.0517,0.0012,0.0055,0.0073,-0.0071,0.0141,-0.0173,0.0518,-0.0379,9.7952,0.0000,0.0001,0.0001,1.0000,0.0013,-0.0010,0.2449
37566560,Left,0,-0.0019,-0.0071,-0.9768,0.2142,0.0134,-0.0005,0.2814,0.5455,0.2934,-0.0920,-0.5527,0.0852,9.7243,0.0002,-0.0000,0.0035,1.0000,-0.0138,0.0020,0.2431
37566560,Pelvis,0,-0.2529,-0.6145,-0.2900,0.6887,0.0018,0.0024,0.0018,-0.0044,-0.0084,-0.0007,9.7449,0.0699,1.1433,0.0000,0.0000,0.0000,1.0000,0.2436,0.0018,0.0286
37566560,Right,0,-0.0021,0.0014,-0.9987,-0.0516,-0.0006,0.0055,0.0067,-0.0175,-0.0048,-0.0173,0.0603,-0.0184,9.7952,-0.0000,0.0001,0.0001,1.0000,0.0015,-0.0005,0.2449
37566561,Left,0,-0.0014,-0.0068,-0.9765,0.2153,0.0031,0.0119,0.0834,0.1426,0.0721,-0.0613,-0.1034,0.1172,9.7514,0.0000,0.0001,0.0010,1.0000,-0.0026,0.0029,0.2438
37566561,Pelvis,0,-0.2528,-0.6146,-0.2899,0.6887,0.0024,0.0012,0.0012,-0.0119,-0.0023,0.0102,9.7546,0.0696,1.1535,0.0000,0.0000,0.0000,1.0000,0.2439,0.0017,0.0288
37566561,Right,0,-0.0021,0.0014,-0.9987,-0.0515,0.0006,0.0055,0.0061,-0.0247,0.0153,-0.0171,0.0686,-0.0379,9.7953,0.0000,0.0001,0.0001,1.0000,0.0017,-0.0010,0.2449
37566562,Left,0,-0.0010,-0.0068,-0.9765,0.2156,0.0226,-0.0047,0.0243,-0.1063,-0.0624,-0.1063,0.1701,0.1333,9.7048,0.0003,-0.0001,0.0003,1.0000,0.0042,0.0033,0.2426
37566562,Pelvis,0,-0.2528,-0.6146,-0.2900,0.6887,0.0018,0.0024,-0.0000,0.0004,0.0123,0.0006,9.7448,0.0890,1.1539,0.0000,0.0000,-0.0000,1.0000,0.2436,0.0022,0.0288
37566562,Right,0,-0.0020,0.0014,-0.9987,-0.0514,-0.0006,0.0049,0.0073,-0.0242,0.0150,-0.0367,0.0674,-0.0380,9.7758,-0.0000,0.0001,0.0001,1.0000,0.0017,-0.0009,0.2444
37566563,Left,0,-0.0006,-0.0066,-0.9763,0.2164,0.0049,0.0171,0.0599,-0.0729,-0.0361,-0.1158,0.1215,0.1234,9.6957,0.0001,0.0002,0.0007,1.0000,0.0031,0.0031,0.2424
37566563,Pelvis,0,-0.2528,-0.6146,-0.2899,0.6887,0.0031,0.0018,0.0012,0.0145,0.0121,-0.0004,9.7448,0.0987,1.1446,0.0000,0.0000,0.0000,1.0000,0.2436,0.0025,0.0286
37566563,Right,0,-0.0020,0.0014,-0.9987,-0.0513,0.0000,0.0073,0.0079,-0.0144,0.0039,-0.0368,0.0562,-0.0282,9.7757,0.0000,0.0001,0.0001,1.0000,0.0014,-0.0007,0.2444
37566564,Left,0,-0.0003,-0.0064,-0.9757,0.2192,0.0057,0.0077,0.2255,0.1654,0.1165,-0.0718,-0.1659,0.0854,9.7412,0.0001,0.0001,0.0028,1.0000,-0.0041,0.0021,0.2435
37566564,Pelvis,0,-0.2529,-0.6144,-0.2900,0.6888,0.0006,0.0018,0.0024,0.0021,-0.0011,-0.0103,9.7350,0.0788,1.1451,0.0000,0.0000,0.0000,1.0000,0.2434,0.0020,0.0286
37566564,Right,0,-0.0020,0.0014,-0.9987,-0.0512,-0.0000,0.0049,0.0079,-0.0041,0.0024,-0.0076,0.0448,-0.0282,9.8050,-0.0000,0.0001,0.0001,1.0000,0.0011,-0.0007,0.2451
37566565,Left,0,0.0000,-0.0063,-0.9751,0.2216,0.0067,0.0064,0.1920,0.0538,0.1240,-0.0776,-0.0742,0.0307,9.7357,0.0001,0.0001,0.0024,1.0000,-0.0018,0.0007,0.2434
37566565,Pelvis,0,-0.2529,-0.6145,-0.2899,0.6888,0.0018,0.0000,0.0024,-0.0057,0.0050,0.0005,9.7447,0.0782,1.1551,0.0000,0.0000,0.0000,1.0000,0.2436,0.0020,0.0289
37566565,Right,0,-0.0019,0.0014,-0.9987,-0.0511,0.0006,0.0067,0.0085,-0.0321,0.0151,-0.0366,0.0727,-0.0381,9.7758,0.0000,0.0001,0.0001,1.0000,0.0018,-0.0010,0.2444
37566566,Left,0,0.0002,-0.0065,-0.9747,0.2234,0.0249,-0.0010,0.1437,0.0180,0.3034,-0.0871,-0.1247,-0.1447,9.7284,0.0003,-0.0000,0.0018,1.0000,-0.0031,-0.0037,0.2432
37566566,Pelvis,0,-0.2529,-0.6145,-0.2900,0.6887,0.0031,0.0012,0.0012,0.0084,0.0040,0.0092,9.7545,0.0876,1.1455,0.0000,0.0000,0.0000,1.0000,0.2439,0.0022,0.0286
37566566,Right,0,-0.0018,0.0015,-0.9987,-0.0510,-0.0006,0.0049,0.0073,-0.0249,-0.0057,-0.0465,0.0617,-0.0185,9.7660,-0.0000,0.0001,0.0001,1.0000,0.0016,-0.0005,0.2442
37566567,Left,0,0.0006,-0.0064,-0.9747,0.2236,0.0123,0.0079,0.0136,-0.0297,-0.0086,-0.0955,0.0489,0.1170,9.7164,0.0002,0.0001,0.0002,1.0000,0.0012,0.0029,0.2429
37566567,Pelvis,0,-0.2528,-0.6145,-0.2899,0.6888,0.0024,0.0018,0.0012,-0.0068,0.0056,-0.0092,9.7349,0.0776,1.1556,0.0000,0.0000,0.0000,1.0000,0.2434,0.0019,0.0289
37566567,Right,0,-0.0018,0.0015,-0.9987,-0.0509,-0.0000,0.0055,0.0073,-0.0140,-0.0071,-0.0368,0.0506,-0.0185,9.7757,-0.0000,0.0001,0.0001,1.0000,0.0013,-0.0005,0.2444
37566568,Left,0,0.0009,-0.0064,-0.9745,0.2243,0.0134,0.0101,0.0485,-0.1005,-0.0078,-0.0992,0.1067,0.0859,9.7131,0.0002,0.0001,0.0006,1.0000,0.0027,0.0021,0.2428
37566568,Pelvis,0,-0.2528,-0.6145,-0.2899,0.6888,0.0012,0.0006,0.0018,-0.0127,-0.0030,0.0102,9.7544,0.0675,1.1559,0.0000,0.0000,0.0000,1.0000,0.2439,0.0017,0.0289
37566568,Right,0,-0.0019,0.0015,-0.9987,-0.0508,0.0006,0.0049,0.0079,-0.0184,0.0229,-0.0269,0.0589,-0.0478,9.7856,0.0000,0.0001,0.0001,1.0000,0.0015,-0.0012,0.2446
37566569,Left,0,0.0010,-0.0063,-0.9743,0.2254,0.0094,0.0051,0.0870,0.0386,0.1961,-0.0814,-0.1120,-0.0359,9.7327,0.0001,0.0001,0.0011,1.0000,-0.0028,-0.0009,0.2433
37566569,Pelvis,0,-0.2528,-0.6145,-0.2899,0.6888,0.0024,0.0031,0.0012,-0.0062,0.0030,0.0199,9.7641,0.0770,1.1564,0.0000,0.0000,0.0000,1.0000,0.2441,0.0019,0.0289
37566569,Right,0,-0.0018,0.0015,-0.9987,-0.0507,0.0000,0.0061,0.0067,-0.0202,0.0032,-0.0367,0.0577,-0.0282,9.7758,0.0000,0.0001,0.0001,1.0000,0.0015,-0.0007,0.2444
37566570,Left,0,0.0013,-0.0063,-0.9741,0.2260,0.0129,0.0108,0.0466,-0.0225,0.0801,-0.0894,-0.0108,0.0417,9.7236,0.0002,0.0001,0.0006,1.0000,-0.0002,0.0010,0.2431
37566570,Pelvis,0,-0.2528,-0.6145,-0.2899,0.6888,0.0037,0.0006,0.0018,0.0043,0.0193,-0.0090,9.7348,0.0963,1.1567,0.0000,0.0000,0.0000,1.0000,0.2434,0.0024,0.0289
37566570,Right,0,-0.0017,0.0015,-0.9987,-0.0506,-0.0000,0.0043,0.0092,-0.0115,-0.0078,-0.0270,0.0467,-0.0184,9.7855,-0.0000,0.0001,0.0001,1.0000,0.0012,-0.0005,0.2446
37566571,Left,0,0.0015,-0.0062,-0.9741,0.2261,0.0073,0.0077,0.0087,-0.0188,0.0182,-0.0964,0.0085,0.0989,9.7158,0.0001,0.0001,0.0001,1.0000,0.0002,0.0025,0.2429
37566571,Pelvis,0,-0.2528,-0.6146,-0.2900,0.6887,0.0018,0.0006,0.0012,0.0037,-0.0098,0.0080,9.7543,0.0764,1.1374,0.0000,0.0000,0.0000,1.0000,0.2439,0.0019,0.0284
37566571,Right,0,-0.0017,0.0015,-0.9987,-0.0505,-0.0018,0.0067,0.0073,-0.0290,0.0136,-0.0366,0.0648,-0.0383,9.7759,-0.0000,0.0001,0.0001,1.0000,0.0016,-0.0010,0.2444
37566572,Left,0,0.0017,-0.0061,-0.9741,0.2259,0.0040,0.0066,-0.0236,-0.0622,-0.0848,-0.0748,0.0890,0.1718,9.7365,0.0000,0.0001,-0.0003,1.0000,0.0022,0.0043,0.2434
37566572,Pelvis,0,-0.2528,-0.6146,-0.2899,0.6887,0.0012,0.0012,0.0018,-0.0104,0.0185,0.0018,9.7445,0.0859,1.1669,0.0000,0.0000,0.0000,1.0000,0.2436,0.0022,0.0292
37566572,Right,0,-0.0017,0.0015,-0.9987,-0.0504,0.0006,0.0055,0.0073,-0.0170,0.0122,-0.0171,0.0534,-0.0384,9.7954,0.0000,0.0001,0.0001,1.0000,0.0014,-0.0010,0.2449
37566573,Left,0,0.0018,-0.0062,-0.9740,0.2267,0.0128,0.0025,0.0620,-0.0341,0.0615,-0.0893,-0.0032,0.0530,9.7235,0.0002,0.0000,0.0008,1.0000,-0.0001,0.0013,0.2431
37566573,Pelvis,0,-0.2528,-0.6145,-0.2900,0.6887,0.0031,0.0024,0.0000,-0.0171,-0.0023,0.0004,9.7444,0.0662,1.1576,0.0000,0.0000,0.0000,1.0000,0.2436,0.0017,0.0289
37566573,Right,0,-0.0017,0.0015,-0.9987,-0.0503,-0.0000,0.0055,0.0073,-0.0364,0.0044,-0.0267,0.0717,-0.0287,9.7857,-0.0000,0.0001,0.0001,1.0000,0.0018,-0.0007,0.2446
37566574,Left,0,0.0019,-0.0063,-0.9738,0.2274,0.0163,0.0050,0.0558,-0.0234,0.1683,-0.0834,-0.0621,-0.0362,9.7305,0.0002,0.0001,0.0007,1.0000,-0.0015,-0.0010,0.2433
37566574,Pelvis,0,-0.2529,-0.6145,-0.2901,0.6887,0.0018,0.0012,0.0018,0.0107,-0.0033,0.0081,9.7542,0.0855,1.1385,0.0000,0.0000,0.0000,1.0000,0.2439,0.0021,0.0285
37566574,Right,0,-0.0017,0.0015,-0.9987,-0.0502,-0.0006,0.0055,0.0079,-0.0265,-0.0066,-0.0268,0.0607,-0.0189,9.7857,-0.0000,0.0001,0.0001,1.0000,0.0015,-0.0005,0.2446
37566575,Left,0,0.0021,-0.0063,-0.9737,0.2276,0.0149,0.0049,0.0148,-0.0350,0.0665,-0.0995,-0.0091,0.0517,9.7134,0.0002,0.0001,0.0002,1.0000,-0.0002,0.0012,0.2428
37566575,Pelvis,0,-0.2529,-0.6144,-0.2901,0.6887,0.0024,0.0012,0.0006,-0.0029,-0.0171,0.0079,9.7541,0.0657,1.1388,0.0000,0.0000,0.0000,1.0000,0.2439,0.0016,0.0285
37566575,Right,0,-0.0017,0.0015,-0.9987,-0.0501,0.0000,0.0061,0.0073,-0.0231,0.0126,-0.0366,0.0592,-0.0386,9.7759,0.0000,0.0001,0.0001,1.0000,0.0015,-0.0010,0.2444
37566576,Left,0,0.0022,-0.0063,-0.9737,0.2278,0.0117,0.0042,0.0198,-0.0233,0.0360,-0.0977,-0.0082,0.0857,9.7147,0.0001,0.0001,0.0002,1.0000,-0.0002,0.0021,0.2429
37566576,Pelvis,0,-0.2529,-0.6145,-0.2901,0.6887,0.0018,0.0006,0.0012,0.0159,0.0045,-0.0015,9.7444,0.0949,1.1390,0.0000,0.0000,0.0000,1.0000,0.2436,0.0024,0.0285
37566576,Right,0,-0.0017,0.0015,-0.9988,-0.0498,-0.0000,0.0055,0.0085,-0.0224,0.0025,-0.0463,0.0579,-0.0288,9.7662,-0.0000,0.0001,0.0001,1.0000,0.0015,-0.0007,0.2442
37566577,Left,0,0.0024,-0.0063,-0.9737,0.2279,0.0043,0.0090,0.0045,-0.0716,0.0299,-0.1098,0.0352,0.0698,9.7029,0.0001,0.0001,0.0001,1.0000,0.0009,0.0017,0.2426
37566577,Pelvis,0,-0.2529,-0.6144,-0.2901,0.6887,0.0024,0.0006,0.0012,-0.0030,-0.0034,0.0091,9.7541,0.0751,1.1489,0.0000,0.0000,0.0000,1.0000,0.2439,0.0019,0.0287
37566577,Right,0,-0.0016,0.0015,-0.9988,-0.0499,0.0006,0.0061,0.0061,-0.0222,0.0025,0.0025,0.0561,-0.0287,9.8150,0.0000,0.0001,0.0001,1.0000,0.0014,-0.0007,0.2454
37566578,Left,0,0.0026,-0.0062,-0.9736,0.2282,0.0057,0.0139,0.0257,-0.0337,0.0136,-0.0583,0.0049,0.1015,9.7539,0.0001,0.0002,0.0003,1.0000,0.0002,0.0025,0.2438
37566578,Pelvis,0,-0.2529,-0.6144,-0.2901,0.6888,0.0018,0.0024,0.0012,0.0042,0.0041,-0.0005,9.7443,0.0847,1.1493,0.0000,0.0000,0.0000,1.0000,0.2436,0.0021,0.0287
37566578,Right,0,-0.0017,0.0015,-0.9988,-0.0499,-0.0000,0.0043,0.0092,-0.0300,0.0037,-0.0462,0.0649,-0.0288,9.7662,-0.0000,0.0001,0.0001,1.0000,0.0016,-0.0007,0.2442
37566579,Left,0,0.0027,-0.0062,-0.9734,0.2292,0.0074,0.0058,0.0740,-0.0651,0.0483,-0.0712,0.0147,0.0564,9.7417,0.0001,0.0001,0.0009,1.0000,0.0004,0.0014,0.2435
37566579,Pelvis,0,-0.2529,-0.6144,-0.2901,0.6888,0.0018,0.0018,0.0037,0.0033,-0.0103,0.0080,9.7540,0.0743,1.1401,0.0000,0.0000,0.0000,1.0000,0.2439,0.0019,0.0285
37566579,Right,0,-0.0017,0.0015,-0.9988,-0.0497,0.0006,0.0055,0.0073,-0.0182,0.0119,-0.0072,0.0536,-0.0384,9.8052,0.0000,0.0001,0.0001,1.0000,0.0014,-0.0010,0.2451
37566580,Left,0,0.0028,-0.0062,-0.9732,0.2297,0.0085,0.0074,0.0467,-0.0758,0.0745,-0.0924,0.0106,0.0284,9.7209,0.0001,0.0001,0.0006,1.0000,0.0003,0.0007,0.2430
37566580,Pelvis,0,-0.2529,-0.6144,-0.2901,0.6887,0.0012,0.0024,0.0006,0.0157,-0.0094,-0.0027,9.7442,0.0836,1.1308,0.0000,0.0000,0.0000,1.0000,0.2436,0.0021,0.0283
37566580,Right,0,-0.0016,0.0015,-0.9988,-0.0497,-0.0000,0.0049,0.0067,-0.0209,-0.0171,-0.0366,0.0528,-0.0090,9.7760,-0.0000,0.0001,0.0001,1.0000,0.0013,-0.0002,0.2444
37566581,Left,0,0.0029,-0.0062,-0.9732,0.2299,0.0075,0.0113,0.0150,-0.0624,0.0344,-0.1000,0.0140,0.0705,9.7127,0.0001,0.0001,0.0002,1.0000,0.0004,0.0017,0.2428
37566581,Pelvis,0,-0.2529,-0.6144,-0.2901,0.6887,0.0031,0.0006,0.0018,-0.0055,0.0113,0.0006,9.7441,0.0834,1.1604,0.0000,0.0000,0.0000,1.0000,0.2436,0.0021,0.0290
37566581,Right,0,-0.0016,0.0015,-0.9988,-0.0494,0.0006,0.0049,0.0085,-0.0372,0.0037,-0.0168,0.0708,-0.0287,9.7956,0.0000,0.0001,0.0001,1.0000,0.0018,-0.0007,0.2449
37566582,Left,0,0.0029,-0.0062,-0.9732,0.2297,0.0077,-0.0006,-0.0151,-0.0360,0.0652,-0.0803,-0.0251,0.0555,9.7325,0.0001,-0.0000,-0.0002,1.0000,-0.0006,0.0014,0.2433
37566582,Pelvis,0,-0.2529,-0.6144,-0.2900,0.6888,0.0012,0.0024,0.0018,-0.0063,-0.0024,-0.0006,9.7441,0.0733,1.1511,0.0000,0.0000,0.0000,1.0000,0.2436,0.0018,0.0288
37566582,Right,0,-0.0016,0.0015,-0.9988,-0.0494,-0.0006,0.0055,0.0073,-0.0350,0.0137,-0.0363,0.0696,-0.0384,9.7761,-0.0000,0.0001,0.0001,1.0000,0.0018,-0.0010,0.2444
37566583,Left,0,0.0030,-0.0063,-0.9733,0.2293,0.0131,0.0000,-0.0376,-0.0348,0.0724,-0.1100,-0.0295,0.0503,9.7029,0.0002,0.0000,-0.0005,1.0000,-0.0007,0.0012,0.2426
37566583,Pelvis,0,-0.2529,-0.6144,-0.2900,0.6888,0.0018,0.0012,0.0012,-0.0055,-0.0033,0.0091,9.7538,0.0729,1.1515,0.0000,0.0000,0.0000,1.0000,0.2438,0.0018,0.0288
37566583,Right,0,-0.0016,0.0015,-0.9988,-0.0493,0.0000,0.0061,0.0079,-0.0145,0.0015,-0.0170,0.0486,-0.0286,9.7955,0.0000,0.0001,0.0001,1.0000,0.0012,-0.0007,0.2449
37566584,Left,0,0.0031,-0.0064,-0.9738,0.2271,0.0148,0.0080,-0.1761,-0.0529,0.1781,-0.0955,-0.0616,-0.0503,9.7186,0.0002,0.0001,-0.0022,1.0000,-0.0015,-0.0013,0.2430
37566584,Pelvis,0,-0.2528,-0.6145,-0.2899,0.6888,0.0024,0.0012,0.0024,0.0084,0.0096,0.0190,9.7636,0.0920,1.1518,0.0000,0.0000,0.0000,1.0000,0.2441,0.0023,0.0288
37566584,Right,0,-0.0015,0.0015,-0.9988,-0.0496,-0.0000,0.0055,0.0079,-0.0163,0.0023,-0.0268,0.0473,-0.0286,9.7857,-0.0000,0.0001,0.0001,1.0000,0.0012,-0.0007,0.2446
37566585,Left,0,0.0035,-0.0065,-0.9752,0.2214,0.0239,0.0225,-0.4705,-0.1666,0.1199,-0.0795,0.0625,-0.0448,9.7351,0.0003,0.0003,-0.0059,1.0000,0.0016,-0.0012,0.2434
37566585,Pelvis,0,-0.2527,-0.6146,-0.2899,0.6888,0.0018,0.0006,0.0012,-0.0023,0.0046,-0.0005,9.7440,0.0819,1.1520,0.0000,0.0000,0.0000,1.0000,0.2436,0.0021,0.0288
37566585,Right,0,-0.0016,0.0015,-0.9988,-0.0495,-0.0012,0.0055,0.0092,-0.0441,-0.0142,-0.0168,0.0753,-0.0095,9.7957,-0.0000,0.0001,0.0001,1.0000,0.0019,-0.0002,0.2449
37566586,Left,0,0.0035,-0.0064,-0.9767,0.2143,0.0036,0.0004,-0.5824,-0.3991,0.1098,-0.1104,0.2751,-0.1324,9.7063,0.0000,0.0000,-0.0073,1.0000,0.0069,-0.0034,0.2427
37566586,Pelvis,0,-0.2528,-0.6146,-0.2900,0.6887,0.0006,0.0012,0.0012,-0.0091,-0.0038,0.0188,9.7635,0.0719,1.1523,0.0000,0.0000,0.0000,1.0000,0.2441,0.0018,0.0288
37566586,Right,0,-0.0015,0.0015,-0.9988,-0.0496,0.0000,0.0055,0.0067,-0.0221,0.0132,-0.0462,0.0544,-0.0388,9.7663,0.0000,0.0001,0.0001,1.0000,0.0014,-0.0010,0.2442
37566587,Left,0,0.0034,-0.0067,-0.9779,0.2090,0.0298,-0.0159,-0.4293,-0.0450,0.2051,-0.0572,-0.0830,-0.0662,9.7571,0.0004,-0.0002,-0.0054,1.0000,-0.0021,-0.0017,0.2439
37566587,Pelvis,0,-0.2528,-0.6146,-0.2901,0.6886,0.0018,0.0018,0.0024,-0.0117,0.0110,0.0103,9.7537,0.0813,1.1624,0.0000,0.0000,0.0000,1.0000,0.2438,0.0020,0.0291
37566587,Right,0,-0.0015,0.0015,-0.9988,-0.0497,-0.0012,0.0049,0.0092,-0.0215,0.0036,-0.0365,0.0531,-0.0292,9.7761,-0.0000,0.0001,0.0001,1.0000,0.0013,-0.0007,0.2444
37566588,Left,0,0.0036,-0.0066,-0.9786,0.2056,-0.0005,0.0193,-0.2723,-0.0893,-0.0671,-0.1175,0.0687,0.1646,9.6942,-0.0000,0.0002,-0.0034,1.0000,0.0018,0.0041,0.2424
37566588,Pelvis,0,-0.2527,-0.6146,-0.2900,0.6887,0.0024,0.0012,0.0006,-0.0061,0.0049,-0.0005,9.7439,0.0809,1.1530,0.0000,0.0000,0.0000,1.0000,0.2436,0.0020,0.0288
37566588,Right,0,-0.0017,0.0015,-0.9988,-0.0497,0.0000,0.0061,0.0079,-0.0264,0.0043,-0.0168,0.0614,-0.0294,9.7957,0.0000,0.0001,0.0001,1.0000,0.0016,-0.0007,0.2449
37566589,Left,0,0.0037,-0.0067,-0.9792,0.2028,0.0180,0.0041,-0.2263,-0.0902,-0.0670,-0.0785,0.0658,0.1655,9.7332,0.0002,0.0001,-0.0028,1.0000,0.0017,0.0041,0.2433
37566589,Pelvis,0,-0.2529,-0.6146,-0.2902,0.6886,0.0006,0.0024,0.0018,-0.0065,0.0042,0.0092,9.7536,0.0807,1.1534,0.0000,0.0000,0.0000,1.0000,0.2438,0.0020,0.0288
37566589,Right,0,-0.0017,0.0015,-0.9988,-0.0498,0.0006,0.0043,0.0079,-0.0248,0.0044,-0.0168,0.0601,-0.0294,9.7957,0.0000,0.0001,0.0001,1.0000,0.0015,-0.0007,0.2449
37566590,Left,0,0.0040,-0.0067,-0.9798,0.1999,0.0113,0.0203,-0.2357,-0.2582,-0.0226,-0.0985,0.1994,0.0606,9.7154,0.0001,0.0003,-0.0029,1.0000,0.0051,0.0015,0.2429
37566590,Pelvis,0,-0.2530,-0.6146,-0.2903,0.6885,0.0024,0.0012,0.0006,0.0131,-0.0018,-0.0026,9.7438,0.0901,1.1343,0.0000,0.0000,0.0000,1.0000,0.2436,0.0023,0.0284
37566590,Right,0,-0.0016,0.0015,-0.9988,-0.0497,0.0000,0.0061,0.0079,-0.0157,0.0135,-0.0364,0.0491,-0.0390,9.7761,0.0000,0.0001,0.0001,1.0000,0.0012,-0.0010,0.2444
37566591,Left,0,0.0040,-0.0067,-0.9801,0.1983,0.0058,0.0025,-0.1238,0.5018,-0.0943,-0.0678,-0.4748,0.4251,9.7374,0.0001,0.0000,-0.0015,1.0000,-0.0118,0.0106,0.2434
37566591,Pelvis,0,-0.2530,-0.6145,-0.2902,0.6886,0.0024,0.0031,0.0018,0.0018,-0.0174,0.0166,9.7633,0.0703,1.1349,0.0000,0.0000,0.0000,1.0000,0.2441,0.0018,0.0284
37566591,Right,0,-0.0016,0.0014,-0.9987,-0.0500,0.0006,0.0061,0.0073,-0.0239,0.0050,-0.0363,0.0575,-0.0292,9.7762,0.0000,0.0001,0.0001,1.0000,0.0015,-0.0007,0.2444
37566592,Left,0,0.0040,-0.0069,-0.9801,0.1985,0.0184,0.0017,0.0109,-0.0757,0.0477,-0.0922,0.0013,0.0705,9.7206,0.0002,0.0000,0.0001,1.0000,0.0000,0.0017,0.2430
37566592,Pelvis,0,-0.2530,-0.6145,-0.2903,0.6886,0.0024,0.0012,0.0006,-0.0206,0.0043,0.0102,9.7534,0.0702,1.1647,0.0000,0.0000,0.0000,1.0000,0.2438,0.0018,0.0291
37566592,Right,0,-0.0016,0.0014,-0.9987,-0.0500,0.0006,0.0037,0.0073,-0.0339,0.0063,-0.0362,0.0661,-0.0292,9.7763,0.0000,0.0000,0.0001,1.0000,0.0017,-0.0007,0.2444
37566593,Left,0,0.0040,-0.0070,-0.9801,0.1984,0.0167,-0.0003,0.0010,-0.0221,0.1197,-0.0826,-0.0760,0.0284,9.7305,0.0002,-0.0000,0.0000,1.0000,-0.0019,0.0007,0.2433
37566593,Pelvis,0,-0.2529,-0.6145,-0.2902,0.6886,0.0018,0.0012,0.0006,-0.0075,-0.0095,0.0080,9.7534,0.0701,1.1454,0.0000,0.0000,0.0000,1.0000,0.2438,0.0018,0.0286
37566593,Right,0,-0.0016,0.0014,-0.9987,-0.0501,-0.0006,0.0049,0.0079,-0.0209,0.0150,-0.0363,0.0551,-0.0389,9.7762,-0.0000,0.0001,0.0001,1.0000,0.0014,-0.0010,0.2444
37566594,Left,0,0.0042,-0.0071,-0.9803,0.1973,0.0139,0.0111,-0.0922,-0.1021,0.0427,-0.1228,0.0267,0.0703,9.6902,0.0002,0.0001,-0.0012,1.0000,0.0007,0.0017,0.2423
37566594,Pelvis,0,-0.2530,-0.6145,-0.2902,0.6886,0.0024,-0.0006,0.0006,-0.0085,0.0052,-0.0005,9.7436,0.0798,1.1552,0.0000,-0.0000,0.0000,1.0000,0.2436,0.0020,0.0289
37566594,Right,0,-0.0016,0.0014,-0.9987,-0.0500,0.0012,0.0067,0.0067,-0.0189,0.0148,-0.0363,0.0537,-0.0388,9.7762,0.0000,0.0001,0.0001,1.0000,0.0014,-0.0010,0.2444
37566595,Left,0,0.0042,-0.0072,-0.9805,0.1964,0.0124,-0.0009,-0.0664,-0.0889,-0.0331,-0.0606,0.0424,0.1484,9.7513,0.0002,-0.0000,-0.0008,1.0000,0.0011,0.0037,0.2438
37566595,Pelvis,0,-0.2529,-0.6145,-0.2903,0.6886,0.0018,0.0018,0.0012,-0.0074,0.0173,0.0201,9.7631,0.0894,1.1652,0.0000,0.0000,0.0000,1.0000,0.2441,0.0022,0.0291
37566595,Right,0,-0.0015,0.0014,-0.9988,-0.0499,0.0006,0.0055,0.0085,-0.0300,0.0061,-0.0264,0.0620,-0.0290,9.7861,0.0000,0.0001,0.0001,1.0000,0.0016,-0.0007,0.2447
37566596,Left,0,0.0043,-0.0072,-0.9805,0.1963,0.0042,0.0074,-0.0049,-0.0521,0.0263,-0.0905,-0.0149,0.1084,9.7218,0.0001,0.0001,-0.0001,1.0000,-0.0003,0.0027,0.2430
37566596,Pelvis,0,-0.2530,-0.6145,-0.2903,0.6885,0.0012,0.0024,0.0006,-0.0086,0.0045,0.0092,9.7533,0.0794,1.1559,0.0000,0.0000,0.0000,1.0000,0.2438,0.0020,0.0289
37566596,Right,0,-0.0015,0.0014,-0.9988,-0.0499,0.0000,0.0061,0.0079,-0.0295,0.0061,-0.0264,0.0606,-0.0289,9.7861,0.0000,0.0001,0.0001,1.0000,0.0015,-0.0007,0.2447
37566597,Left,0,0.0044,-0.0071,-0.9804,0.1966,-0.0017,0.0171,0.0282,-0.1413,0.0575,-0.1059,0.0529,0.0443,9.7077,-0.0000,0.0002,0.0004,1.0000,0.0014,0.0011,0.2427
37566597,Pelvis,0,-0.2529,-0.6145,-0.2903,0.6886,0.0024,0.0012,0.0018,0.0055,0.0036,0.0179,9.7631,0.0889,1.1466,0.0000,0.0000,0.0000,1.0000,0.2441,0.0022,0.0287
37566597,Right,0,-0.0016,0.0014,-0.9988,-0.0499,0.0012,0.0055,0.0061,-0.0257,0.0059,-0.0362,0.0592,-0.0288,9.7763,0.0000,0.0001,0.0001,1.0000,0.0015,-0.0007,0.2444
37566598,Left,0,0.0046,-0.0071,-0.9805,0.1963,0.0073,0.0128,-0.0215,-0.1179,0.0100,-0.0932,0.0464,0.0971,9.7196,0.0001,0.0002,-0.0003,1.0000,0.0012,0.0024,0.2430
37566598,Pelvis,0,-0.2530,-0.6145,-0.2903,0.6886,0.0031,0.0018,0.0012,-0.0224,0.0046,0.0102,9.7532,0.0692,1.1665,0.0000,0.0000,0.0000,1.0000,0.2438,0.0017,0.0292
37566598,Right,0,-0.0017,0.0014,-0.9988,-0.0498,-0.0006,0.0049,0.0079,-0.0220,0.0153,-0.0362,0.0578,-0.0385,9.7763,-0.0000,0.0001,0.0001,1.0000,0.0015,-0.0010,0.2444
37566599,Left,0,0.0047,-0.0072,-0.9806,0.1958,0.0141,0.0071,-0.0409,-0.0751,0.0915,-0.0747,-0.0266,0.0403,9.7386,0.0002,0.0001,-0.0005,1.0000,-0.0006,0.0010,0.2435
37566599,Pelvis,0,-0.2530,-0.6145,-0.2903,0.6886,0.0012,0.0024,0.0006,-0.0023,-0.0024,0.0081,9.7532,0.0787,1.1475,0.0000,0.0000,0.0000,1.0000,0.2438,0.0020,0.0287
37566599,Right,0,-0.0017,0.0014,-0.9988,-0.0498,-0.0006,0.0055,0.0067,-0.0223,0.0055,-0.0362,0.0567,-0.0288,9.7763,-0.0000,0.0001,0.0001,1.0000,0.0014,-0.0007,0.2444
37566600,Left,0,0.0048,-0.0073,-0.9804,0.1967,0.0127,0.0096,0.0822,-0.1268,0.1545,-0.0992,-0.0044,-0.0360,9.7155,0.0002,0.0001,0.0010,1.0000,-0.0001,-0.0009,0.2429
37566600,Pelvis,0,-0.2530,-0.6145,-0.2904,0.6885,0.0031,0.0018,0.0000,-0.0100,0.0184,0.0104,9.7531,0.0885,1.1675,0.0000,0.0000,0.0000,1.0000,0.2438,0.0022,0.0292
37566600,Right,0,-0.0017,0.0014,-0.9987,-0.0501,-0.0006,0.0049,0.0073,-0.0297,0.0167,-0.0165,0.0649,-0.0389,9.7960,-0.0000,0.0001,0.0001,1.0000,0.0016,-0.0010,0.2449
37566601,Left,0,0.0047,-0.0075,-0.9799,0.1993,0.0213,-0.0027,0.2106,-0.0664,0.1296,-0.0758,-0.0510,0.0139,9.7378,0.0003,-0.0000,0.0026,1.0000,-0.0013,0.0003,0.2434
37566601,Pelvis,0,-0.2531,-0.6145,-0.2904,0.6885,0.0012,0.0006,0.0018,-0.0037,-0.0022,0.0081,9.7531,0.0785,1.1483,0.0000,0.0000,0.0000,1.0000,0.2438,0.0020,0.0287
37566601,Right,0,-0.0017,0.0014,-0.9987,-0.0500,0.0006,0.0055,0.0067,-0.0205,-0.0039,-0.0460,0.0544,-0.0193,9.7666,0.0000,0.0001,0.0001,1.0000,0.0014,-0.0005,0.2442
37566602,Left,0,0.0046,-0.0076,-0.9797,0.2003,0.0057,-0.0074,0.0914,0.0062,0.2311,-0.0957,-0.1557,-0.0490,9.7184,0.0001,-0.0001,0.0011,1.0000,-0.0039,-0.0012,0.2430
37566602,Pelvis,0,-0.2530,-0.6144,-0.2903,0.6886,0.0012,0.0018,0.0006,-0.0089,0.0045,0.0092,9.7530,0.0783,1.1583,0.0000,0.0000,0.0000,1.0000,0.2438,0.0020,0.0290
37566602,Right,0,-0.0015,0.0013,-0.9987,-0.0501,-0.0000,0.0055,0.0092,-0.0389,0.0181,-0.0261,0.0721,-0.0390,9.7863,-0.0000,0.0001,0.0001,1.0000,0.0018,-0.0010,0.2447
37566603,Left,0,0.0047,-0.0077,-0.9798,0.1998,0.0191,0.0030,-0.0374,-0.1199,-0.0434,-0.0916,0.0689,0.1560,9.7204,0.0002,0.0000,-0.0005,1.0000,0.0017,0.0038,0.2430
37566603,Pelvis,0,-0.2530,-0.6145,-0.2904,0.6886,0.0018,0.0018,0.0012,-0.0169,-0.0030,0.0188,9.7627,0.0683,1.1588,0.0000,0.0000,0.0000,1.0000,0.2441,0.0017,0.0290
37566603,Right,0,-0.0016,0.0013,-0.9987,-0.0502,-0.0006,0.0067,0.0085,-0.0170,0.0160,-0.0361,0.0512,-0.0388,9.7764,-0.0000,0.0001,0.0001,1.0000,0.0013,-0.0010,0.2444
37566604,Left,0,0.0048,-0.0079,-0.9800,0.1989,0.0172,0.0057,-0.0713,0.0909,0.1391,-0.0491,-0.1976,0.0744,9.7627,0.0002,0.0001,-0.0009,1.0000,-0.0049,0.0018,0.2441
37566604,Pelvis,0,-0.2529,-0.6144,-0.2903,0.6886,0.0018,0.0018,-0.0000,0.0032,-0.0092,0.0070,9.7530,0.0780,1.1397,0.0000,0.0000,-0.0000,1.0000,0.2438,0.0019,0.0285
37566604,Right,0,-0.0017,0.0013,-0.9987,-0.0505,-0.0000,0.0049,0.0067,-0.0253,0.0077,-0.0360,0.0596,-0.0293,9.7765,-0.0000,0.0001,0.0001,1.0000,0.0015,-0.0007,0.2444
37566605,Left,0,0.0048,-0.0077,-0.9801,0.1981,-0.0050,0.0056,-0.0654,0.0673,0.2417,-0.1128,-0.2166,-0.0303,9.7006,-0.0001,0.0001,-0.0008,1.0000,-0.0054,-0.0007,0.2425
37566605,Pelvis,0,-0.2530,-0.6144,-0.2903,0.6886,0.0018,0.0006,0.0018,0.0104,-0.0024,0.0071,9.7530,0.0876,1.1400,0.0000,0.0000,0.0000,1.0000,0.2438,0.0022,0.0285
37566605,Right,0,-0.0019,0.0013,-0.9987,-0.0507,0.0006,0.0055,0.0079,-0.0202,-0.0023,-0.0263,0.0584,-0.0194,9.7862,0.0000,0.0001,0.0001,1.0000,0.0015,-0.0005,0.2447
37566606,Left,0,0.0049,-0.0080,-0.9806,0.1959,0.0275,0.0063,-0.1723,-0.3000,-0.0894,-0.1087,0.2489,0.1342,9.7050,0.0003,0.0001,-0.0022,1.0000,0.0062,0.0033,0.2426
37566606,Pelvis,0,-0.2529,-0.6145,-0.2903,0.6886,0.0024,0.0012,0.0012,-0.0054,-0.0151,-0.0028,9.7431,0.0677,1.1402,0.0000,0.0000,0.0000,1.0000,0.2436,0.0017,0.0285
37566606,Right,0,-0.0020,0.0013,-0.9987,-0.0510,0.0012,0.0055,0.0073,-0.0258,0.0088,-0.0456,0.0669,-0.0291,9.7668,0.0000,0.0001,0.0001,1.0000,0.0017,-0.0007,0.2442
37566607,Left,0,0.0049,-0.0079,-0.9808,0.1949,-0.0022,0.0010,-0.0785,-0.1688,-0.1668,-0.0506,0.1561,0.2597,9.7603,-0.0000,0.0000,-0.0010,1.0000,0.0039,0.0065,0.2440
37566607,Pelvis,0,-0.2529,-0.6145,-0.2902,0.6886,0.0031,0.0031,0.0012,-0.0048,0.0116,0.0093,9.7528,0.0871,1.1602,0.0000,0.0000,0.0000,1.0000,0.2438,0.0022,0.0290
37566607,Right,0,-0.0021,0.0013,-0.9987,-0.0509,0.0006,0.0061,0.0061,-0.0134,0.0071,-0.0360,0.0556,-0.0288,9.7765,0.0000,0.0001,0.0001,1.0000,0.0014,-0.0007,0.2444
37566608,Left,0,0.0050,-0.0079,-0.9807,0.1954,0.0082,0.0122,0.0446,-0.0537,-0.0926,-0.0967,0.0205,0.2342,9.7137,0.0001,0.0002,0.0006,1.0000,0.0005,0.0058,0.2428
37566608,Pelvis,0,-0.2528,-0.6145,-0.2902,0.6887,0.0024,0.0018,0.0018,-0.0054,0.0124,-0.0004,9.7430,0.0868,1.1608,0.0000,0.0000,0.0000,1.0000,0.2436,0.0022,0.0290
37566608,Right,0,-0.0021,0.0012,-0.9987,-0.0512,0.0006,0.0061,0.0079,-0.0210,0.0084,-0.0261,0.0638,-0.0288,9.7864,0.0000,0.0001,0.0001,1.0000,0.0016,-0.0007,0.2447
37566609,Left,0,0.0051,-0.0078,-0.9807,0.1952,-0.0030,0.0056,-0.0098,-0.3070,0.0353,-0.1039,0.2040,0.0187,9.7115,-0.0000,0.0001,-0.0001,1.0000,0.0051,0.0005,0.2428
37566609,Pelvis,0,-0.2528,-0.6145,-0.2901,0.6887,0.0018,0.0018,0.0012,-0.0205,-0.0012,-0.0006,9.7429,0.0670,1.1613,0.0000,0.0000,0.0000,1.0000,0.2436,0.0017,0.0290
37566609,Right,0,-0.0021,0.0012,-0.9987,-0.0513,0.0012,0.0073,0.0086,-0.0282,0.0094,-0.0260,0.0719,-0.0287,9.7865,0.0000,0.0001,0.0001,1.0000,0.0018,-0.0007,0.2447
37566610,Left,0,0.0051,-0.0079,-0.9811,0.1931,0.0128,0.0024,-0.1652,-0.1555,0.1236,-0.1097,0.0300,-0.0047,9.7050,0.0002,0.0000,-0.0021,1.0000,0.0008,-0.0002,0.2426
37566610,Pelvis,0,-0.2528,-0.6145,-0.2902,0.6887,0.0018,0.0012,0.0012,0.0066,-0.0159,0.0059,9.7527,0.0764,1.1324,0.0000,0.0000,0.0000,1.0000,0.2438,0.0019,0.0283
37566610,Right,0,-0.0022,0.0012,-0.9987,-0.0512,-0.0000,0.0043,0.0079,-0.0177,-0.0015,-0.0164,0.0607,-0.0186,9.7961,-0.0000,0.0001,0.0001,1.0000,0.0015,-0.0005,0.2449
37566611,Left,0,0.0052,-0.0079,-0.9814,0.1915,0.0075,0.0118,-0.1205,-0.0632,0.0713,-0.0936,-0.0369,0.0804,9.7191,0.0001,0.0001,-0.0015,1.0000,-0.0009,0.0020,0.2430
37566611,Pelvis,0,-0.2529,-0.6145,-0.2903,0.6886,0.0018,0.0018,0.0012,-0.0143,-0.0088,0.0080,9.7526,0.0664,1.1523,0.0000,0.0000,0.0000,1.0000,0.2438,0.0017,0.0288
37566611,Right,0,-0.0023,0.0012,-0.9987,-0.0512,-0.0000,0.0049,0.0067,-0.0111,0.0175,-0.0163,0.0593,-0.0382,9.7962,-0.0000,0.0001,0.0001,1.0000,0.0015,-0.0010,0.2449
37566612,Left,0,0.0053,-0.0079,-0.9814,0.1918,0.0007,0.0137,0.0286,0.2276,0.0026,-0.1066,-0.2828,0.2533,9.7013,0.0000,0.0002,0.0004,1.0000,-0.0070,0.0063,0.2425
37566612,Pelvis,0,-0.2529,-0.6145,-0.2902,0.6887,0.0037,0.0012,0.0031,0.0067,-0.0020,0.0071,9.7527,0.0855,1.1428,0.0000,0.0000,0.0000,1.0000,0.2438,0.0021,0.0286
37566612,Right,0,-0.0023,0.0012,-0.9987,-0.0511,-0.0012,0.0061,0.0091,-0.0210,0.0089,-0.0162,0.0679,-0.0287,9.7963,-0.0000,0.0001,0.0001,1.0000,0.0017,-0.0007,0.2449
37566613,Left,0,0.0055,-0.0080,-0.9813,0.1920,0.0115,0.0120,0.0229,-0.4834,0.0793,-0.0945,0.3444,-0.0846,9.7240,0.0001,0.0002,0.0003,1.0000,0.0086,-0.0021,0.2431
37566613,Pelvis,0,-0.2529,-0.6144,-0.2902,0.6887,0.0012,0.0018,-0.0000,-0.0056,0.0126,-0.0004,9.7428,0.0853,1.1627,0.0000,0.0000,-0.0000,1.0000,0.2436,0.0021,0.0291
37566613,Right,0,-0.0023,0.0012,-0.9987,-0.0513,-0.0006,0.0067,0.0073,-0.0082,0.0176,-0.0456,0.0567,-0.0386,9.7669,-0.0000,0.0001,0.0001,1.0000,0.0014,-0.0010,0.2442
37566614,Left,0,0.0056,-0.0081,-0.9817,0.1901,0.0164,0.0077,-0.1515,-0.0415,0.0806,-0.0931,-0.0672,0.0830,9.7194,0.0002,0.0001,-0.0019,1.0000,-0.0017,0.0020,0.2430
37566614,Pelvis,0,-0.2529,-0.6144,-0.2902,0.6887,0.0018,0.0018,0.0006,0.0009,0.0053,0.0082,9.7525,0.0852,1.1534,0.0000,0.0000,0.0000,1.0000,0.2438,0.0021,0.0288
37566614,Right,0,-0.0030,0.0017,-0.9985,-0.0539,0.0000,0.0055,0.0067,0.0051,-0.0010,-0.0358,0.0553,-0.0289,9.7766,0.0000,0.0001,0.0001,1.0000,0.0014,-0.0007,0.2444
37566615,Left,2,0.0056,-0.0081,-0.9817,0.1899,0.0078,0.0068,-0.0019,-0.1853,0.0409,-0.0790,0.0797,0.0682,9.7350,0.0001,0.0001,-0.0000,1.0000,0.0020,0.0017,0.2434
37566615,Pelvis,2,-0.2529,-0.6144,-0.2902,0.6887,0.0024,0.0018,0.0018,0.0004,0.0054,0.0082,9.7525,0.0850,1.1538,0.0000,0.0000,0.0000,1.0000,0.2438,0.0021,0.0288
37566615,Right,2,-0.0030,0.0017,-0.9986,-0.0535,0.0006,0.0055,0.0073,-0.0030,-0.0001,-0.0161,0.0634,-0.0290,9.7963,0.0000,0.0001,0.0001,1.0000,0.0016,-0.0007,0.2449
37566616,Left,2,0.0057,-0.0082,-0.9817,0.1899,0.0109,0.0056,0.0061,-0.1080,0.0747,-0.0864,-0.0054,0.0668,9.7269,0.0001,0.0001,0.0001,1.0000,-0.0001,0.0016,0.2432
37566616,Pelvis,2,-0.2529,-0.6144,-0.2902,0.6887,0.0012,0.0018,0.0006,-0.0000,0.0054,0.0082,9.7524,0.0847,1.1543,0.0000,0.0000,0.0000,1.0000,0.2438,0.0021,0.0289
37566616,Right,2,-0.0030,0.0017,-0.9986,-0.0533,-0.0006,0.0043,0.0079,-0.0032,-0.0100,-0.0259,0.0625,-0.0192,9.7865,-0.0000,0.0001,0.0001,1.0000,0.0016,-0.0005,0.2447
37566617,Left,2,0.0058,-0.0083,-0.9818,0.1899,0.0098,0.0070,0.0049,-0.1160,0.0637,-0.0864,0.0054,0.0757,9.7269,0.0001,0.0001,0.0001,1.0000,0.0002,0.0019,0.2432
37566617,Pelvis,2,-0.2529,-0.6144,-0.2902,0.6887,0.0018,0.0018,-0.0000,-0.0081,-0.0005,-0.0016,9.7426,0.0749,1.1547,0.0000,0.0000,-0.0000,1.0000,0.2436,0.0019,0.0289
37566617,Right,2,-0.0030,0.0017,-0.9986,-0.0531,0.0006,0.0055,0.0079,0.0202,0.0067,-0.0067,0.0412,-0.0385,9.8058,0.0000,0.0001,0.0001,1.0000,0.0010,-0.0010,0.2451
37566618,Left,2,0.0058,-0.0083,-0.9818,0.1898,0.0104,0.0070,0.0037,-0.1064,0.0738,-0.0766,-0.0084,0.0715,9.7367,0.0001,0.0001,0.0000,1.0000,-0.0002,0.0018,0.2434
37566618,Pelvis,2,-0.2529,-0.6144,-0.2902,0.6887,0.0006,0.0000,0.0024,-0.0139,0.0048,0.0189,9.7621,0.0747,1.1648,0.0000,0.0000,0.0000,1.0000,0.2441,0.0019,0.0291
37566618,Right,2,-0.0030,0.0017,-0.9986,-0.0532,-0.0000,0.0055,0.0079,0.0017,0.0091,-0.0356,0.0598,-0.0387,9.7768,-0.0000,0.0001,0.0001,1.0000,0.0015,-0.0010,0.2444
37566619,Left,2,0.0059,-0.0084,-0.9818,0.1898,0.0102,0.0051,0.0074,-0.1234,0.0708,-0.1067,0.0081,0.0690,9.7068,0.0001,0.0001,0.0001,1.0000,0.0002,0.0017,0.2427
37566619,Pelvis,2,-0.2529,-0.6144,-0.2902,0.6887,0.0024,0.0012,0.0018,0.0064,0.0116,0.0180,9.7621,0.0937,1.1551,0.0000,0.0000,0.0000,1.0000,0.2441,0.0023,0.0289
37566619,Right,2,-0.0030,0.0017,-0.9986,-0.0533,-0.0006,0.0067,0.0073,-0.0090,-0.0093,-0.0355,0.0683,-0.0194,9.7769,-0.0000,0.0001,0.0001,1.0000,0.0017,-0.0005,0.2444
37566620,Left,2,0.0059,-0.0085,-0.9818,0.1898,0.0112,0.0080,0.0055,-0.1133,0.0621,-0.0766,0.0008,0.0829,9.7366,0.0001,0.0001,0.0001,1.0000,0.0000,0.0020,0.2434
37566620,Pelvis,2,-0.2529,-0.6144,-0.2902,0.6887,0.0024,0.0024,0.0006,0.0049,-0.0150,0.0059,9.7523,0.0739,1.1360,0.0000,0.0000,0.0000,1.0000,0.2438,0.0018,0.0284
37566620,Right,2,-0.0030,0.0017,-0.9986,-0.0533,0.0000,0.0061,0.0067,0.0047,0.0086,-0.0161,0.0565,-0.0389,9.7963,0.0000,0.0001,0.0001,1.0000,0.0014,-0.0010,0.2449
37566621,Left,2,0.0060,-0.0085,-0.9818,0.1897,0.0096,0.0058,0.0043,-0.1224,0.0796,-0.0973,0.0020,0.0645,9.7163,0.0001,0.0001,0.0001,1.0000,0.0001,0.0016,0.2429
37566621,Pelvis,2,-0.2529,-0.6144,-0.2902,0.6887,0.0018,0.0006,0.0024,-0.0021,0.0057,0.0082,9.7523,0.0834,1.1559,0.0000,0.0000,0.0000,1.0000,0.2438,0.0021,0.0289
37566621,Right,2,-0.0030,0.0017,-0.9986,-0.0533,-0.0006,0.0055,0.0079,-0.0040,0.0098,-0.0355,0.0650,-0.0391,9.7769,-0.0000,0.0001,0.0001,1.0000,0.0016,-0.0010,0.2444
37566622,Left,2,0.0060,-0.0086,-0.9818,0.1897,0.0103,0.0063,0.0055,-0.1310,0.0783,-0.0977,0.0098,0.0639,9.7160,0.0001,0.0001,0.0001,1.0000,0.0003,0.0016,0.2429
37566622,Pelvis,2,-0.2529,-0.6144,-0.2902,0.6887,0.0024,0.0018,0.0024,-0.0097,-0.0148,0.0069,9.7522,0.0633,1.1465,0.0000,0.0000,0.0000,1.0000,0.2438,0.0016,0.0287
37566622,Right,2,-0.0030,0.0017,-0.9986,-0.0532,0.0000,0.0073,0.0079,0.0060,-0.0014,-0.0259,0.0537,-0.0293,9.7866,0.0000,0.0001,0.0001,1.0000,0.0014,-0.0007,0.2447
37566623,Left,2,0.0061,-0.0087,-0.9818,0.1896,0.0096,0.0052,0.0061,-0.1206,0.0787,-0.0875,-0.0006,0.0690,9.7260,0.0001,0.0001,0.0001,1.0000,0.0000,0.0017,0.2431
37566623,Pelvis,2,-0.2529,-0.6144,-0.2902,0.6887,0.0006,0.0006,0.0012,-0.0015,0.0041,0.0276,9.7717,0.0824,1.1566,0.0000,0.0000,0.0000,1.0000,0.2443,0.0021,0.0289
37566623,Right,2,-0.0030,0.0017,-0.9986,-0.0530,-0.0000,0.0055,0.0085,0.0061,-0.0113,-0.0259,0.0523,-0.0195,9.7866,-0.0000,0.0001,0.0001,1.0000,0.0013,-0.0005,0.2447
37566624,Left,2,0.0061,-0.0088,-0.9818,0.1896,0.0115,0.0061,0.0055,-0.1191,0.0777,-0.0972,-0.0022,0.0719,9.7162,0.0001,0.0001,0.0001,1.0000,-0.0000,0.0018,0.2429
37566624,Pelvis,2,-0.2529,-0.6144,-0.2902,0.6887,0.0018,0.0018,0.0012,0.0034,-0.0010,0.0071,9.7522,0.0822,1.1470,0.0000,0.0000,0.0000,1.0000,0.2438,0.0021,0.0287
37566624,Right,2,-0.0030,0.0017,-0.9986,-0.0531,-0.0006,0.0049,0.0061,0.0073,-0.0114,-0.0357,0.0512,-0.0196,9.7768,-0.0000,0.0001,0.0001,1.0000,0.0013,-0.0005,0.2444
37566625,Left,2,0.0062,-0.0088,-0.9818,0.1895,0.0110,0.0068,0.0049,-0.1284,0.0861,-0.0980,0.0025,0.0623,9.7157,0.0001,0.0001,0.0001,1.0000,0.0001,0.0015,0.2429
37566625,Pelvis,2,-0.2529,-0.6144,-0.2902,0.6887,0.0018,0.0006,0.0006,-0.0108,-0.0009,0.0081,9.7521,0.0723,1.1571,0.0000,0.0000,0.0000,1.0000,0.2438,0.0018,0.0289
37566625,Right,2,-0.0030,0.0017,-0.9986,-0.0531,0.0012,0.0043,0.0079,-0.0091,0.0004,-0.0060,0.0690,-0.0297,9.8064,0.0000,0.0001,0.0001,1.0000,0.0017,-0.0007,0.2452
37566626,Left,2,0.0062,-0.0089,-0.9818,0.1895,0.0090,0.0059,0.0049,-0.1264,0.0663,-0.0875,0.0072,0.0831,9.7259,0.0001,0.0001,0.0001,1.0000,0.0002,0.0020,0.2431
37566626,Pelvis,2,-0.2529,-0.6144,-0.2902,0.6887,0.0012,0.0030,-0.0006,-0.0104,0.0121,0.0190,9.7618,0.0821,1.1673,0.0000,0.0000,-0.0000,1.0000,0.2440,0.0021,0.0292
37566626,Right,2,-0.0030,0.0017,-0.9986,-0.0531,0.0000,0.0055,0.0067,0.0125,0.0076,-0.0259,0.0484,-0.0389,9.7866,0.0000,0.0001,0.0001,1.0000,0.0012,-0.0010,0.2447
37566627,Left,2,0.0063,-0.0089,-0.9818,0.1894,0.0094,0.0046,0.0055,-0.1259,0.0754,-0.0879,0.0029,0.0760,9.7256,0.0001,0.0001,0.0001,1.0000,0.0001,0.0019,0.2431
37566627,Pelvis,2,-0.2529,-0.6144,-0.2902,0.6887,0.0030,0.0006,0.0024,-0.0054,0.0070,-0.0015,9.7423,0.0820,1.1579,0.0000,0.0000,0.0000,1.0000,0.2436,0.0021,0.0289
37566627,Right,2,-0.0030,0.0017,-0.9986,-0.0531,-0.0000,0.0061,0.0092,0.0113,-0.0119,-0.0357,0.0474,-0.0194,9.7769,-0.0000,0.0001,0.0001,1.0000,0.0012,-0.0005,0.2444
37566628,Left,2,0.0063,-0.0090,-0.9818,0.1894,0.0110,0.0068,0.0055,-0.1354,0.0747,-0.0688,0.0112,0.0749,9.7448,0.0001,0.0001,0.0001,1.0000,0.0003,0.0018,0.2436
37566628,Pelvis,2,-0.2529,-0.6144,-0.2902,0.6887,0.0012,0.0012,0.0018,-0.0051,0.0062,0.0082,9.7520,0.0815,1.1582,0.0000,0.0000,0.0000,1.0000,0.2438,0.0020,0.0290
37566628,Right,2,-0.0030,0.0017,-0.9986,-0.0531,0.0006,0.0055,0.0061,-0.0028,0.0194,-0.0157,0.0648,-0.0490,9.7967,0.0000,0.0001,0.0001,1.0000,0.0016,-0.0012,0.2449
37566629,Left,2,0.0064,-0.0091,-0.9818,0.1893,0.0109,0.0062,0.0049,-0.1352,0.0932,-0.0793,0.0034,0.0593,9.7346,0.0001,0.0001,0.0001,1.0000,0.0001,0.0014,0.2434
37566629,Pelvis,2,-0.2529,-0.6144,-0.2902,0.6887,0.0018,0.0024,0.0012,0.0009,-0.0282,0.0046,9.7520,0.0615,1.1294,0.0000,0.0000,0.0000,1.0000,0.2438,0.0015,0.0282
37566629,Right,2,-0.0030,0.0017,-0.9986,-0.0531,0.0006,0.0055,0.0085,0.0041,-0.0109,-0.0453,0.0546,-0.0194,9.7672,0.0000,0.0001,0.0001,1.0000,0.0014,-0.0005,0.2442
37566630,Left,2,0.0064,-0.0092,-0.9819,0.1893,0.0110,0.0068,0.0061,-0.1334,0.0828,-0.0789,0.0048,0.0713,9.7348,0.0001,0.0001,0.0001,1.0000,0.0001,0.0017,0.2434
37566630,Pelvis,2,-0.2529,-0.6144,-0.2902,0.6887,0.0031,0.0012,0.0006,0.0009,-0.0006,0.0071,9.7519,0.0809,1.1493,0.0000,0.0000,0.0000,1.0000,0.2438,0.0020,0.0287
37566630,Right,2,-0.0030,0.0017,-0.9986,-0.0531,-0.0000,0.0061,0.0085,-0.0029,-0.0003,-0.0353,0.0626,-0.0293,9.7771,-0.0000,0.0001,0.0001,1.0000,0.0016,-0.0007,0.2444
37566631,Left,2,0.0065,-0.0092,-0.9819,0.1892,0.0102,0.0057,0.0043,-0.1211,0.0818,-0.1077,-0.0065,0.0777,9.7058,0.0001,0.0001,0.0001,1.0000,-0.0001,0.0019,0.2426
37566631,Pelvis,2,-0.2529,-0.6144,-0.2902,0.6887,0.0018,0.0018,0.0018,0.0142,-0.0006,0.0061,9.7520,0.0904,1.1399,0.0000,0.0000,0.0000,1.0000,0.2438,0.0023,0.0285
37566631,Right,2,-0.0030,0.0017,-0.9986,-0.0530,0.0006,0.0055,0.0079,-0.0022,-0.0103,-0.0060,0.0610,-0.0194,9.8064,0.0000,0.0001,0.0001,1.0000,0.0015,-0.0005,0.2452
37566632,Left,2,0.0065,-0.0093,-0.9819,0.1892,0.0091,0.0065,0.0043,-0.1507,0.0895,-0.0898,0.0172,0.0612,9.7243,0.0001,0.0001,0.0001,1.0000,0.0005,0.0015,0.2431
37566632,Pelvis,2,-0.2529,-0.6144,-0.2902,0.6887,0.0024,0.0018,0.0006,-0.0213,0.0074,-0.0005,9.7420,0.0708,1.1697,0.0000,0.0000,0.0000,1.0000,0.2435,0.0018,0.0292
37566632,Right,2,-0.0030,0.0017,-0.9986,-0.0531,0.0006,0.0055,0.0073,0.0008,0.0092,-0.0450,0.0598,-0.0388,9.7674,0.0000,0.0001,0.0001,1.0000,0.0015,-0.0010,0.2442
37566633,Left,2,0.0066,-0.0093,-0.9819,0.1891,0.0092,0.0071,0.0062,-0.1396,0.0801,-0.0792,0.0095,0.0754,9.7345,0.0001,0.0001,0.0001,1.0000,0.0003,0.0019,0.2434
37566633,Pelvis,2,-0.2529,-0.6144,-0.2902,0.6887,0.0012,0.0012,0.0018,-0.0212,-0.0072,0.0080,9.7517,0.0607,1.1603,0.0000,0.0000,0.0000,1.0000,0.2438,0.0015,0.0290
37566633,Right,2,-0.0030,0.0017,-0.9986,-0.0531,0.0000,0.0067,0.0079,-0.0072,0.0101,-0.0253,0.0678,-0.0390,9.7871,0.0000,0.0001,0.0001,1.0000,0.0017,-0.0010,0.2447
37566634,Left,2,0.0066,-0.0094,-0.9819,0.1890,0.0104,0.0070,0.0037,-0.1285,0.0892,-0.0986,-0.0049,0.0721,9.7150,0.0001,0.0001,0.0000,1.0000,-0.0001,0.0018,0.2429
37566634,Pelvis,2,-0.2529,-0.6144,-0.2902,0.6887,0.0043,0.0012,0.0012,0.0070,0.0194,0.0181,9.7616,0.0995,1.1605,0.0001,0.0000,0.0000,1.0000,0.2440,0.0025,0.0290
37566634,Right,2,-0.0030,0.0017,-0.9986,-0.0531,0.0006,0.0061,0.0073,-0.0074,0.0004,-0.0449,0.0667,-0.0291,9.7676,0.0000,0.0001,0.0001,1.0000,0.0017,-0.0007,0.2442
37566635,Left,2,0.0067,-0.0095,-0.9819,0.1890,0.0110,0.0068,0.0068,-0.1358,0.0683,-0.0983,0.0087,0.0903,9.7152,0.0001,0.0001,0.0001,1.0000,0.0002,0.0022,0.2429
37566635,Pelvis,2,-0.2529,-0.6144,-0.2902,0.6887,0.0012,0.0012,0.0006,-0.0020,0.0006,-0.0026,9.7420,0.0798,1.1510,0.0000,0.0000,0.0000,1.0000,0.2435,0.0020,0.0288
37566635,Right,2,-0.0030,0.0017,-0.9986,-0.0532,0.0000,0.0061,0.0067,-0.0055,0.0001,-0.0156,0.0647,-0.0291,9.7969,0.0000,0.0001,0.0001,1.0000,0.0016,-0.0007,0.2449
37566636,Left,2,0.0067,-0.0095,-0.9819,0.1889,0.0098,0.0070,0.0055,-0.1564,0.0959,-0.0905,0.0168,0.0587,9.7238,0.0001,0.0001,0.0001,1.0000,0.0004,0.0014,0.2431
37566636,Pelvis,2,-0.2529,-0.6144,-0.2902,0.6887,0.0018,0.0018,0.0012,-0.0148,-0.0010,0.0178,9.7614,0.0699,1.1613,0.0000,0.0000,0.0000,1.0000,0.2440,0.0017,0.0290
37566636,Right,2,-0.0030,0.0017,-0.9986,-0.0532,0.0000,0.0061,0.0079,0.0064,0.0085,-0.0353,0.0536,-0.0387,9.7772,0.0000,0.0001,0.0001,1.0000,0.0014,-0.0010,0.2444
37566637,Left,2,0.0068,-0.0096,-0.9819,0.1889,0.0117,0.0073,0.0055,-0.1338,0.0857,-0.1185,-0.0011,0.0774,9.6952,0.0001,0.0001,0.0001,1.0000,-0.0000,0.0019,0.2424
37566637,Pelvis,2,-0.2529,-0.6144,-0.2902,0.6887,0.0018,0.0012,0.0018,-0.0091,-0.0070,0.0070,9.7516,0.0695,1.1519,0.0000,0.0000,0.0000,1.0000,0.2438,0.0017,0.0288
37566637,Right,2,-0.0030,0.0017,-0.9986,-0.0533,-0.0000,0.0061,0.0092,-0.0033,-0.0001,-0.0449,0.0622,-0.0291,9.7676,-0.0000,0.0001,0.0001,1.0000,0.0016,-0.0007,0.2442
37566638,Left,2,0.0068,-0.0097,-0.9819,0.1888,0.0095,0.0052,0.0061,-0.1356,0.1059,-0.0802,-0.0079,0.0603,9.7338,0.0001,0.0001,0.0001,1.0000,-0.0002,0.0015,0.2433
37566638,Pelvis,2,-0.2529,-0.6144,-0.2902,0.6887,0.0031,0.0012,0.0012,0.0037,0.0076,-0.0025,9.7419,0.0888,1.1520,0.0000,0.0000,0.0000,1.0000,0.2435,0.0022,0.0288
37566638,Right,2,-0.0030,0.0017,-0.9986,-0.0532,0.0006,0.0055,0.0067,-0.0018,-0.0003,-0.0351,0.0606,-0.0290,9.7774,0.0000,0.0001,0.0001,1.0000,0.0015,-0.0007,0.2444
37566639,Left,2,0.0069,-0.0097,-0.9820,0.1887,0.0101,0.0051,0.0049,-0.1437,0.1042,-0.0903,-0.0000,0.0600,9.7238,0.0001,0.0001,0.0001,1.0000,0.0000,0.0015,0.2431
37566639,Pelvis,2,-0.2529,-0.6144,-0.2902,0.6887,0.0012,0.0018,0.0012,-0.0023,-0.0009,0.0168,9.7613,0.0787,1.1525,0.0000,0.0000,0.0000,1.0000,0.2440,0.0020,0.0288
37566639,Right,2,-0.0030,0.0017,-0.9986,-0.0532,-0.0006,0.0061,0.0073,-0.0114,-0.0089,-0.0349,0.0691,-0.0195,9.7775,-0.0000,0.0001,0.0001,1.0000,0.0017,-0.0005,0.2444
37566640,Left,2,0.0069,-0.0098,-0.9820,0.1886,0.0103,0.0063,0.0043,-0.1423,0.0941,-0.0802,0.0018,0.0715,9.7337,0.0001,0.0001,0.0001,1.0000,0.0001,0.0018,0.2433
37566640,Pelvis,2,-0.2529,-0.6144,-0.2902,0.6887,0.0018,0.0018,0.0012,0.0034,-0.0069,0.0060,9.7516,0.0784,1.1431,0.0000,0.0000,0.0000,1.0000,0.2438,0.0020,0.0286
37566640,Right,2,-0.0030,0.0017,-0.9986,-0.0533,0.0000,0.0055,0.0067,0.0033,0.0187,-0.0350,0.0574,-0.0487,9.7774,0.0000,0.0001,0.0001,1.0000,0.0015,-0.0012,0.2444
37566641,Left,2,0.0069,-0.0099,-0.9820,0.1886,0.0101,0.0051,0.0055,-0.1512,0.1115,-0.1008,0.0033,0.0529,9.7135,0.0001,0.0001,0.0001,1.0000,0.0001,0.0013,0.2428
37566641,Pelvis,2,-0.2529,-0.6144,-0.2902,0.6887,0.0024,0.0024,0.0006,-0.0039,0.0001,0.0071,9.7515,0.0783,1.1534,0.0000,0.0000,0.0000,1.0000,0.2438,0.0020,0.0288
37566641,Right,2,-0.0030,0.0017,-0.9986,-0.0532,0.0000,0.0055,0.0073,0.0022,-0.0008,-0.0351,0.0564,-0.0291,9.7774,0.0000,0.0001,0.0001,1.0000,0.0014,-0.0007,0.2444
37566642,Left,2,0.0070,-0.0099,-0.9820,0.1885,0.0099,0.0077,0.0031,-0.1487,0.0913,-0.1001,0.0078,0.0739,9.7139,0.0001,0.0001,0.0000,1.0000,0.0002,0.0018,0.2428
37566642,Pelvis,2,-0.2529,-0.6144,-0.2902,0.6887,0.0024,0.0006,0.0018,0.0103,0.0130,0.0170,9.7613,0.0976,1.1537,0.0000,0.0000,0.0000,1.0000,0.2440,0.0024,0.0288
37566642,Right,2,-0.0030,0.0017,-0.9986,-0.0533,0.0000,0.0055,0.0067,-0.0074,-0.0094,-0.0349,0.0650,-0.0196,9.7775,0.0000,0.0001,0.0001,1.0000,0.0016,-0.0005,0.2444
37566643,Left,2,0.0071,-0.0100,-0.9820,0.1884,0.0103,0.0063,0.0049,-0.1476,0.0999,-0.1102,0.0029,0.0674,9.7039,0.0001,0.0001,0.0001,1.0000,0.0001,0.0017,0.2426
37566643,Pelvis,2,-0.2529,-0.6144,-0.2902,0.6887,0.0006,0.0031,0.0012,-0.0110,-0.0075,0.0167,9.7611,0.0680,1.1543,0.0000,0.0000,0.0000,1.0000,0.2440,0.0017,0.0288
37566643,Right,2,-0.0030,0.0017,-0.9986,-0.0532,-0.0000,0.0049,0.0067,-0.0062,-0.0095,-0.0447,0.0639,-0.0196,9.7678,-0.0000,0.0001,0.0001,1.0000,0.0016,-0.0005,0.2442
37566644,Left,2,0.0071,-0.0100,-0.9820,0.1883,0.0105,0.0075,0.0049,-0.1468,0.0995,-0.1004,0.0014,0.0696,9.7137,0.0001,0.0001,0.0001,1.0000,0.0001,0.0017,0.2428
37566644,Pelvis,2,-0.2529,-0.6144,-0.2902,0.6887,0.0024,0.0012,0.0018,0.0011,0.0080,-0.0025,9.7416,0.0873,1.1547,0.0000,0.0000,0.0000,1.0000,0.2435,0.0022,0.0289
37566644,Right,2,-0.0030,0.0017,-0.9986,-0.0532,0.0000,0.0061,0.0079,-0.0028,-0.0002,-0.0056,0.0617,-0.0294,9.8068,0.0000,0.0001,0.0001,1.0000,0.0016,-0.0007,0.2452
37566645,Left,2,0.0072,-0.0101,-0.9820,0.1882,0.0115,0.0062,0.0043,-0.1565,0.0992,-0.0715,0.0095,0.0685,9.7427,0.0001,0.0001,0.0001,1.0000,0.0003,0.0017,0.2436
37566645,Pelvis,2,-0.2529,-0.6144,-0.2902,0.6887,0.0031,0.0006,0.0006,0.0157,-0.0075,0.0147,9.7612,0.0869,1.1354,0.0000,0.0000,0.0000,1.0000,0.2440,0.0022,0.0284
37566645,Right,2,-0.0030,0.0017,-0.9986,-0.0532,0.0006,0.0049,0.0073,-0.0031,-0.0100,-0.0252,0.0609,-0.0195,9.7873,0.0000,0.0001,0.0001,1.0000,0.0015,-0.0005,0.2447
37566646,Left,2,0.0072,-0.0102,-0.9821,0.1882,0.0115,0.0055,0.0061,-0.1542,0.0883,-0.0809,0.0110,0.0809,9.7331,0.0001,0.0001,0.0001,1.0000,0.0003,0.0020,0.2433
37566646,Pelvis,2,-0.2529,-0.6144,-0.2902,0.6887,0.0024,0.0018,0.0012,0.0077,0.0003,0.0061,9.7513,0.0868,1.1454,0.0000,0.0000,0.0000,1.0000,0.2438,0.0022,0.0286
37566646,Right,2,-0.0030,0.0017,-0.9986,-0.0532,0.0006,0.0061,0.0079,-0.0020,-0.0101,-0.0349,0.0597,-0.0194,9.7776,0.0000,0.0001,0.0001,1.0000,0.0015,-0.0005,0.2444
37566647,Left,2,0.0072,-0.0103,-0.9821,0.1881,0.0115,0.0061,0.0049,-0.1629,0.0963,-0.0913,0.0157,0.0716,9.7229,0.0001,0.0001,0.0001,1.0000,0.0004,0.0018,0.2431
37566647,Pelvis,2,-0.2529,-0.6144,-0.2902,0.6888,0.0024,0.0024,0.0018,-0.0067,-0.0132,0.0059,9.7512,0.0670,1.1461,0.0000,0.0000,0.0000,1.0000,0.2438,0.0017,0.0286
37566647,Right,2,-0.0030,0.0017,-0.9986,-0.0532,0.0006,0.0055,0.0085,0.0200,-0.0030,-0.0353,0.0386,-0.0286,9.7773,0.0000,0.0001,0.0001,1.0000,0.0010,-0.0007,0.2444
37566648,Left,2,0.0073,-0.0103,-0.9821,0.1880,0.0105,0.0075,0.0055,-0.1530,0.1157,-0.0916,-0.0013,0.0587,9.7228,0.0001,0.0001,0.0001,1.0000,-0.0000,0.0014,0.2431
37566648,Pelvis,2,-0.2528,-0.6144,-0.2902,0.6888,0.0024,0.0018,0.0000,0.0069,0.0005,0.0061,9.7512,0.0863,1.1465,0.0000,0.0000,0.0000,1.0000,0.2438,0.0022,0.0287
37566648,Right,2,-0.0030,0.0017,-0.9986,-0.0532,-0.0000,0.0055,0.0079,0.0020,-0.0007,-0.0349,0.0567,-0.0290,9.7776,-0.0000,0.0001,0.0001,1.0000,0.0014,-0.0007,0.2444
37566649,Left,2,0.0074,-0.0104,-0.9821,0.1880,0.0117,0.0074,0.0049,-0.1706,0.1039,-0.0921,0.0185,0.0647,9.7225,0.0001,0.0001,0.0001,1.0000,0.0005,0.0016,0.2431
37566649,Pelvis,2,-0.2528,-0.6144,-0.2902,0.6888,0.0024,0.0018,0.0000,0.0001,-0.0071,0.0157,9.7609,0.0766,1.1470,0.0000,0.0000,0.0000,1.0000,0.2440,0.0019,0.0287
37566649,Right,2,-0.0029,0.0017,-0.9986,-0.0532,-0.0012,0.0061,0.0085,0.0039,-0.0010,-0.0056,0.0548,-0.0291,9.8069,-0.0000,0.0001,0.0001,1.0000,0.0014,-0.0007,0.2452
37566650,Left,2,0.0074,-0.0105,-0.9821,0.1879,0.0097,0.0064,0.0055,-0.1504,0.1141,-0.0916,-0.0048,0.0641,9.7227,0.0001,0.0001,0.0001,1.0000,-0.0001,0.0016,0.2431
37566650,Pelvis,2,-0.2528,-0.6144,-0.2902,0.6888,0.0024,0.0006,0.0018,-0.0008,0.0076,0.0072,9.7511,0.0863,1.1570,0.0000,0.0000,0.0000,1.0000,0.2438,0.0022,0.0289
37566650,Right,2,-0.0029,0.0017,-0.9986,-0.0532,0.0012,0.0067,0.0055,-0.0061,-0.0095,-0.0249,0.0636,-0.0196,9.7875,0.0000,0.0001,0.0001,1.0000,0.0016,-0.0005,0.2447
37566651,Left,2,0.0075,-0.0105,-0.9821,0.1878,0.0098,0.0070,0.0055,-0.1408,0.1243,-0.0720,-0.0184,0.0597,9.7423,0.0001,0.0001,0.0001,1.0000,-0.0004,0.0015,0.2436
37566651,Pelvis,2,-0.2528,-0.6144,-0.2902,0.6888,0.0018,0.0031,0.0012,-0.0077,-0.0138,0.0156,9.7608,0.0664,1.1478,0.0000,0.0000,0.0000,1.0000,0.2440,0.0017,0.0287
37566651,Right,2,-0.0029,0.0017,-0.9986,-0.0532,0.0006,0.0043,0.0085,-0.0033,-0.0000,-0.0151,0.0618,-0.0291,9.7973,0.0000,0.0001,0.0001,1.0000,0.0016,-0.0007,0.2449
37566652,Left,2,0.0075,-0.0106,-0.9821,0.1878,0.0110,0.0068,0.0055,-0.1465,0.0930,-0.0908,-0.0020,0.0875,9.7230,0.0001,0.0001,0.0001,1.0000,-0.0000,0.0022,0.2431
37566652,Pelvis,2,-0.2528,-0.6144,-0.2902,0.6888,0.0031,0.0031,0.0024,-0.0087,0.0009,0.0071,9.7509,0.0759,1.1582,0.0000,0.0000,0.0000,1.0000,0.2438,0.0019,0.0289
37566652,Right,2,-0.0029,0.0017,-0.9986,-0.0532,-0.0006,0.0067,0.0085,0.0074,-0.0013,-0.0349,0.0510,-0.0289,9.7776,-0.0000,0.0001,0.0001,1.0000,0.0013,-0.0007,0.2444
37566653,Left,2,0.0076,-0.0106,-0.9821,0.1877,0.0110,0.0069,0.0043,-0.1644,0.1000,-0.1114,0.0115,0.0753,9.7029,0.0001,0.0001,0.0001,1.0000,0.0003,0.0018,0.2426
37566653,Pelvis,2,-0.2528,-0.6144,-0.2902,0.6888,0.0012,0.0012,0.0012,0.0047,0.0008,0.0061,9.7510,0.0852,1.1489,0.0000,0.0000,0.0000,1.0000,0.2438,0.0021,0.0287
37566653,Right,2,-0.0029,0.0017,-0.9986,-0.0532,0.0012,0.0073,0.0079,-0.0022,-0.0099,-0.0347,0.0593,-0.0193,9.7778,0.0000,0.0001,0.0001,1.0000,0.0015,-0.0005,0.2444
37566654,Left,2,0.0076,-0.0107,-0.9821,0.1877,0.0089,0.0053,0.0055,-0.1635,0.0995,-0.1016,0.0102,0.0775,9.7126,0.0001,0.0001,0.0001,1.0000,0.0003,0.0019,0.2428
37566654,Pelvis,2,-0.2528,-0.6144,-0.2902,0.6888,0.0031,0.0018,0.0018,0.0049,0.0000,0.0158,9.7607,0.0848,1.1493,0.0000,0.0000,0.0000,1.0000,0.2440,0.0021,0.0287
37566654,Right,2,-0.0029,0.0017,-0.9986,-0.0532,-0.0006,0.0061,0.0073,0.0004,-0.0004,-0.0347,0.0574,-0.0290,9.7778,-0.0000,0.0001,0.0001,1.0000,0.0015,-0.0007,0.2444
37566655,Left,2,0.0076,-0.0107,-0.9822,0.1876,0.0110,0.0069,0.0043,-0.1743,0.1185,-0.0735,0.0124,0.0577,9.7413,0.0001,0.0001,0.0001,1.0000,0.0003,0.0014,0.2435
37566655,Pelvis,2,-0.2528,-0.6144,-0.2902,0.6888,0.0024,0.0024,0.0006,-0.0095,-0.0136,0.0156,9.7605,0.0651,1.1499,0.0000,0.0000,0.0000,1.0000,0.2440,0.0016,0.0287
37566655,Right,2,-0.0029,0.0017,-0.9986,-0.0531,0.0006,0.0055,0.0073,-0.0055,0.0201,-0.0344,0.0653,-0.0488,9.7780,0.0000,0.0001,0.0001,1.0000,0.0017,-0.0012,0.2444
37566656,Left,2,0.0077,-0.0108,-0.9822,0.1875,0.0103,0.0063,0.0055,-0.1622,0.1082,-0.0824,0.0044,0.0728,9.7319,0.0001,0.0001,0.0001,1.0000,0.0001,0.0018,0.2433
37566656,Pelvis,2,-0.2528,-0.6144,-0.2902,0.6888,0.0024,0.0031,0.0012,-0.0037,-0.0058,0.0060,9.7507,0.0747,1.1505,0.0000,0.0000,0.0000,1.0000,0.2438,0.0019,0.0288
37566656,Right,2,-0.0029,0.0016,-0.9986,-0.0531,0.0006,0.0067,0.0079,-0.0165,0.0019,-0.0440,0.0742,-0.0294,9.7684,0.0000,0.0001,0.0001,1.0000,0.0019,-0.0007,0.2442
37566657,Left,2,0.0077,-0.0108,-0.9822,0.1874,0.0099,0.0076,0.0055,-0.1608,0.1074,-0.0824,0.0027,0.0753,9.7319,0.0001,0.0001,0.0001,1.0000,0.0001,0.0019,0.2433
37566657,Pelvis,2,-0.2528,-0.6144,-0.2902,0.6888,0.0031,0.0018,0.0018,0.0038,0.0140,0.0170,9.7605,0.0940,1.1608,0.0000,0.0000,0.0000,1.0000,0.2440,0.0024,0.0290
37566657,Right,2,-0.0029,0.0017,-0.9986,-0.0531,-0.0006,0.0055,0.0091,-0.0031,0.0099,0.0046,0.0619,-0.0389,9.8171,-0.0000,0.0001,0.0001,1.0000,0.0016,-0.0010,0.2454
37566658,Left,2,0.0077,-0.0109,-0.9822,0.1874,0.0108,0.0050,0.0067,-0.1691,0.1059,-0.0828,0.0105,0.0748,9.7317,0.0001,0.0001,0.0001,1.0000,0.0003,0.0018,0.2433
37566658,Pelvis,2,-0.2528,-0.6144,-0.2902,0.6888,0.0018,0.0012,0.0000,0.0099,-0.0066,0.0147,9.7605,0.0840,1.1417,0.0000,0.0000,0.0000,1.0000,0.2440,0.0021,0.0285
37566658,Right,2,-0.0029,0.0017,-0.9986,-0.0531,0.0006,0.0061,0.0073,-0.0042,0.0003,-0.0442,0.0615,-0.0292,9.7682,0.0000,0.0001,0.0001,1.0000,0.0016,-0.0007,0.2442
37566659,Left,2,0.0078,-0.0110,-0.9822,0.1874,0.0105,0.0075,0.0062,-0.1591,0.1251,-0.0830,-0.0064,0.0618,9.7316,0.0001,0.0001,0.0001,1.0000,-0.0001,0.0015,0.2433
37566659,Pelvis,2,-0.2528,-0.6143,-0.2902,0.6888,0.0024,0.0024,0.0031,0.0088,-0.0057,0.0050,9.7507,0.0837,1.1421,0.0000,0.0000,0.0000,1.0000,0.2438,0.0021,0.0285
37566659,Right,2,-0.0029,0.0016,-0.9986,-0.0531,0.0012,0.0036,0.0055,-0.0127,0.0015,-0.0537,0.0703,-0.0292,9.7587,0.0000,0.0000,0.0001,1.0000,0.0018,-0.0007,0.2440
37566660,Left,2,0.0078,-0.0110,-0.9822,0.1872,0.0110,0.0069,0.0043,-0.1660,0.1132,-0.1025,0.0039,0.0711,9.7120,0.0001,0.0001,0.0001,1.0000,0.0001,0.0017,0.2428
37566660,Pelvis,2,-0.2528,-0.6144,-0.2902,0.6888,-0.0000,0.0000,0.0018,-0.0113,0.0143,0.0180,9.7603,0.0833,1.1717,-0.0000,0.0000,0.0000,1.0000,0.2440,0.0021,0.0293
37566660,Right,2,-0.0029,0.0017,-0.9986,-0.0531,-0.0012,0.0061,0.0091,-0.0124,-0.0084,-0.0440,0.0691,-0.0194,9.7684,-0.0000,0.0001,0.0001,1.0000,0.0017,-0.0005,0.2442
37566661,Left,2,0.0079,-0.0111,-0.9822,0.1873,0.0101,0.0051,0.0061,-0.1751,0.1124,-0.0834,0.0120,0.0702,9.7313,0.0001,0.0001,0.0001,1.0000,0.0003,0.0017,0.2433
37566661,Pelvis,2,-0.2528,-0.6143,-0.2902,0.6888,0.0031,0.0024,0.0012,0.0086,-0.0064,0.0147,9.7604,0.0828,1.1427,0.0000,0.0000,0.0000,1.0000,0.2440,0.0021,0.0286
37566661,Right,2,-0.0029,0.0017,-0.9986,-0.0531,0.0000,0.0067,0.0079,-0.0108,-0.0086,-0.0342,0.0674,-0.0196,9.7782,0.0000,0.0001,0.0001,1.0000,0.0017,-0.0005,0.2445
37566662,Left,2,0.0079,-0.0111,-0.9822,0.1872,0.0110,0.0068,0.0055,-0.1741,0.1118,-0.0736,0.0107,0.0726,9.7410,0.0001,0.0001,0.0001,1.0000,0.0003,0.0018,0.2435
37566662,Pelvis,2,-0.2528,-0.6143,-0.2902,0.6888,0.0012,0.0018,0.0012,-0.0126,-0.0130,0.0156,9.7602,0.0631,1.1531,0.0000,0.0000,0.0000,1.0000,0.2440,0.0016,0.0288
37566662,Right,2,-0.0029,0.0017,-0.9986,-0.0531,0.0000,0.0067,0.0073,-0.0161,0.0118,-0.0144,0.0747,-0.0393,9.7979,0.0000,0.0001,0.0001,1.0000,0.0019,-0.0010,0.2449
37566663,Left,2,0.0080,-0.0112,-0.9822,0.1871,0.0111,0.0074,0.0049,-0.1724,0.1200,-0.0934,0.0057,0.0664,9.7213,0.0001,0.0001,0.0001,1.0000,0.0002,0.0016,0.2430
37566663,Pelvis,2,-0.2528,-0.6143,-0.2902,0.6888,0.0024,0.0012,0.0012,-0.0136,0.0017,0.0071,9.7504,0.0727,1.1631,0.0000,0.0000,0.0000,1.0000,0.2438,0.0018,0.0291
37566663,Right,2,-0.0029,0.0016,-0.9986,-0.0531,0.0012,0.0055,0.0086,0.0031,-0.0006,-0.0247,0.0541,-0.0290,9.7878,0.0000,0.0001,0.0001,1.0000,0.0014,-0.0007,0.2447
37566664,Left,2,0.0080,-0.0112,-0.9822,0.1871,0.0115,0.0061,0.0049,-0.1606,0.1099,-0.0926,-0.0022,0.0815,9.7216,0.0001,0.0001,0.0001,1.0000,-0.0000,0.0020,0.2430
37566664,Pelvis,2,-0.2528,-0.6143,-0.2902,0.6888,0.0030,0.0012,0.0024,-0.0002,0.0016,0.0061,9.7504,0.0820,1.1536,0.0000,0.0000,0.0000,1.0000,0.2438,0.0021,0.0288
37566664,Right,2,-0.0029,0.0016,-0.9986,-0.0531,0.0000,0.0055,0.0067,0.0032,-0.0104,-0.0247,0.0530,-0.0191,9.7878,0.0000,0.0001,0.0001,1.0000,0.0013,-0.0005,0.2447
37566665,Left,2,0.0080,-0.0113,-0.9823,0.1870,0.0103,0.0063,0.0055,-0.1703,0.1282,-0.0839,-0.0004,0.0623,9.7309,0.0001,0.0001,0.0001,1.0000,0.0000,0.0015,0.2433
37566665,Pelvis,2,-0.2528,-0.6143,-0.2902,0.6888,0.0018,0.0018,0.0012,-0.0009,-0.0120,0.0049,9.7504,0.0718,1.1443,0.0000,0.0000,0.0000,1.0000,0.2438,0.0018,0.0286
37566665,Right,2,-0.0029,0.0016,-0.9986,-0.0531,0.0006,0.0049,0.0086,-0.0110,0.0210,-0.0241,0.0705,-0.0488,9.7882,0.0000,0.0001,0.0001,1.0000,0.0018,-0.0012,0.2447
37566666,Left,2,0.0080,-0.0114,-0.9823,0.1870,0.0107,0.0050,0.0055,-0.1680,0.1266,-0.1034,-0.0021,0.0653,9.7114,0.0001,0.0001,0.0001,1.0000,-0.0000,0.0016,0.2428
37566666,Pelvis,2,-0.2528,-0.6144,-0.2902,0.6888,0.0012,0.0006,0.0006,0.0118,-0.0112,-0.0058,9.7407,0.0814,1.1347,0.0000,0.0000,0.0000,1.0000,0.2435,0.0020,0.0284
37566666,Right,2,-0.0029,0.0016,-0.9986,-0.0531,0.0006,0.0061,0.0073,-0.0030,0.0004,-0.0440,0.0602,-0.0289,9.7685,0.0000,0.0001,0.0001,1.0000,0.0015,-0.0007,0.2442
37566667,Left,2,0.0081,-0.0114,-0.9823,0.1869,0.0096,0.0058,0.0055,-0.1572,0.1265,-0.0932,-0.0125,0.0706,9.7213,0.0001,0.0001,0.0001,1.0000,-0.0003,0.0017,0.2430
37566667,Pelvis,2,-0.2528,-0.6144,-0.2902,0.6888,0.0012,0.0012,0.0018,0.0061,0.0078,0.0159,9.7601,0.0909,1.1545,0.0000,0.0000,0.0000,1.0000,0.2440,0.0023,0.0289
37566667,Right,2,-0.0029,0.0016,-0.9986,-0.0531,-0.0000,0.0037,0.0067,-0.0035,-0.0193,-0.0147,0.0590,-0.0093,9.7978,-0.0000,0.0000,0.0001,1.0000,0.0015,-0.0002,0.2449
37566668,Left,2,0.0081,-0.0114,-0.9823,0.1868,0.0103,0.0063,0.0049,-0.1558,0.1164,-0.0733,-0.0106,0.0820,9.7409,0.0001,0.0001,0.0001,1.0000,-0.0002,0.0020,0.2435
37566668,Pelvis,2,-0.2528,-0.6143,-0.2902,0.6888,0.0018,0.0031,0.0024,0.0192,-0.0060,0.0137,9.7602,0.0903,1.1355,0.0000,0.0000,0.0000,1.0000,0.2440,0.0023,0.0284
37566668,Right,2,-0.0029,0.0016,-0.9986,-0.0531,-0.0000,0.0037,0.0079,0.0081,-0.0109,-0.0442,0.0486,-0.0188,9.7683,-0.0000,0.0000,0.0001,1.0000,0.0012,-0.0005,0.2442
37566669,Left,2,0.0081,-0.0115,-0.9823,0.1867,0.0110,0.0068,0.0055,-0.1930,0.1223,-0.0946,0.0215,0.0635,9.7205,0.0001,0.0001,0.0001,1.0000,0.0006,0.0016,0.2430
37566669,Pelvis,2,-0.2528,-0.6143,-0.2902,0.6888,0.0012,0.0018,0.0012,0.0043,-0.0049,0.0050,9.7503,0.0803,1.1458,0.0000,0.0000,0.0000,1.0000,0.2438,0.0020,0.0286
37566669,Right,2,-0.0029,0.0016,-0.9986,-0.0532,0.0000,0.0061,0.0067,0.0026,0.0095,-0.0342,0.0565,-0.0386,9.7783,0.0000,0.0001,0.0001,1.0000,0.0014,-0.0010,0.2445
37566670,Left,2,0.0082,-0.0115,-0.9823,0.1867,0.0111,0.0074,0.0055,-0.1921,0.1405,-0.1050,0.0136,0.0478,9.7105,0.0001,0.0001,0.0001,1.0000,0.0004,0.0012,0.2428
37566670,Pelvis,2,-0.2528,-0.6143,-0.2902,0.6888,0.0018,0.0012,0.0012,-0.0031,-0.0117,0.0049,9.7502,0.0702,1.1463,0.0000,0.0000,0.0000,1.0000,0.2438,0.0018,0.0287
37566670,Right,2,-0.0029,0.0016,-0.9986,-0.0532,-0.0000,0.0055,0.0085,-0.0164,0.0022,-0.0239,0.0746,-0.0294,9.7884,-0.0000,0.0001,0.0001,1.0000,0.0019,-0.0007,0.2447
37566671,Left,2,0.0082,-0.0116,-0.9823,0.1867,0.0108,0.0056,0.0049,-0.1717,0.1318,-0.0746,-0.0031,0.0653,9.7402,0.0001,0.0001,0.0001,1.0000,-0.0001,0.0016,0.2435
37566671,Pelvis,2,-0.2528,-0.6143,-0.2902,0.6888,0.0018,0.0018,0.0012,0.0043,0.0081,0.0159,9.7599,0.0895,1.1563,0.0000,0.0000,0.0000,1.0000,0.2440,0.0022,0.0289
37566671,Right,2,-0.0029,0.0016,-0.9986,-0.0532,0.0006,0.0061,0.0067,-0.0056,0.0008,-0.0340,0.0637,-0.0291,9.7785,0.0000,0.0001,0.0001,1.0000,0.0016,-0.0007,0.2445
37566672,Left,2,0.0082,-0.0116,-0.9823,0.1866,0.0102,0.0057,0.0061,-0.1978,0.1278,-0.1147,0.0228,0.0594,9.7006,0.0001,0.0001,0.0001,1.0000,0.0006,0.0015,0.2425
37566672,Pelvis,2,-0.2528,-0.6143,-0.2902,0.6888,0.0018,0.0012,0.0012,0.0235,-0.0117,0.0029,9.7503,0.0891,1.1273,0.0000,0.0000,0.0000,1.0000,0.2438,0.0022,0.0282
37566672,Right,2,-0.0029,0.0016,-0.9986,-0.0532,-0.0006,0.0073,0.0073,-0.0170,-0.0173,-0.0533,0.0727,-0.0098,9.7592,-0.0000,0.0001,0.0001,1.0000,0.0018,-0.0002,0.2440
37566673,Left,2,0.0083,-0.0117,-0.9823,0.1865,0.0104,0.0069,0.0055,-0.1688,0.1300,-0.0648,-0.0059,0.0702,9.7500,0.0001,0.0001,0.0001,1.0000,-0.0001,0.0017,0.2437
37566673,Pelvis,2,-0.2528,-0.6143,-0.2902,0.6888,0.0018,0.0006,0.0018,-0.0029,0.0006,0.0255,9.7696,0.0792,1.1570,0.0000,0.0000,0.0000,1.0000,0.2442,0.0020,0.0289
37566673,Right,2,-0.0029,0.0016,-0.9986,-0.0531,0.0012,0.0061,0.0079,0.0004,0.0197,-0.0046,0.0593,-0.0485,9.8078,0.0000,0.0001,0.0001,1.0000,0.0015,-0.0012,0.2452
37566674,Left,2,0.0083,-0.0117,-0.9824,0.1862,0.0102,0.0057,0.0061,-0.1466,0.1292,-0.0933,-0.0263,0.0794,9.7210,0.0001,0.0001,0.0001,1.0000,-0.0006,0.0020,0.2430
37566674,Pelvis,2,-0.2528,-0.6143,-0.2902,0.6888,0.0024,0.0018,0.0006,-0.0183,0.0163,0.0083,9.7499,0.0792,1.1768,0.0000,0.0000,0.0000,1.0000,0.2437,0.0020,0.0294
37566674,Right,2,-0.0029,0.0016,-0.9986,-0.0531,-0.0018,0.0061,0.0061,-0.0015,0.0004,-0.0340,0.0589,-0.0291,9.7785,-0.0000,0.0001,0.0001,1.0000,0.0015,-0.0007,0.2445
37566675,Left,2,0.0084,-0.0118,-0.9823,0.1867,0.0095,0.0089,0.0049,-0.1733,0.1162,-0.1038,0.0026,0.0820,9.7108,0.0001,0.0001,0.0001,1.0000,0.0001,0.0020,0.2428
37566675,Pelvis,2,-0.2528,-0.6143,-0.2902,0.6888,0.0012,0.0024,0.0018,-0.0113,0.0086,0.0169,9.7597,0.0788,1.1676,0.0000,0.0000,0.0000,1.0000,0.2440,0.0020,0.0292
37566675,Right,2,-0.0029,0.0016,-0.9986,-0.0531,0.0018,0.0055,0.0086,-0.0004,0.0003,-0.0437,0.0576,-0.0291,9.7688,0.0000,0.0001,0.0001,1.0000,0.0015,-0.0007,0.2442
37566676,Left,2,0.0084,-0.0118,-0.9822,0.1872,0.0094,0.0046,0.0055,-0.2031,0.1427,-0.0961,0.0197,0.0472,9.7197,0.0001,0.0001,0.0001,1.0000,0.0005,0.0012,0.2430
37566676,Pelvis,2,-0.2528,-0.6143,-0.2902,0.6888,0.0030,0.0006,0.0024,0.0079,-0.0113,0.0039,9.7500,0.0782,1.1386,0.0000,0.0000,0.0000,1.0000,0.2438,0.0020,0.0285
37566676,Right,2,-0.0029,0.0016,-0.9986,-0.0531,-0.0006,0.0055,0.0073,-0.0067,0.0109,-0.0141,0.0652,-0.0390,9.7983,-0.0000,0.0001,0.0001,1.0000,0.0016,-0.0010,0.2450
37566677,Left,2,0.0084,-0.0118,-0.9825,0.1859,0.0098,0.0070,0.0055,-0.1707,0.1244,-0.0943,-0.0033,0.0772,9.7204,0.0001,0.0001,0.0001,1.0000,-0.0001,0.0019,0.2430
37566677,Pelvis,2,-0.2528,-0.6143,-0.2902,0.6888,0.0018,0.0012,0.0000,-0.0070,-0.0103,-0.0048,9.7401,0.0683,1.1486,0.0000,0.0000,0.0000,1.0000,0.2435,0.0017,0.0287
37566677,Right,2,-0.0029,0.0016,-0.9986,-0.0531,-0.0006,0.0049,0.0079,-0.0084,-0.0085,-0.0337,0.0648,-0.0196,9.7787,-0.0000,0.0001,0.0001,1.0000,0.0016,-0.0005,0.2445
37566678,Left,2,0.0084,-0.0119,-0.9826,0.1851,0.0104,0.0069,0.0062,-0.1603,0.1345,-0.0747,-0.0171,0.0731,9.7400,0.0001,0.0001,0.0001,1.0000,-0.0004,0.0018,0.2435
37566678,Pelvis,2,-0.2528,-0.6143,-0.2902,0.6888,0.0031,0.0024,0.0012,-0.0124,0.0225,0.0181,9.7595,0.0879,1.1783,0.0000,0.0000,0.0000,1.0000,0.2440,0.0022,0.0294
37566678,Right,2,-0.0029,0.0016,-0.9986,-0.0531,0.0006,0.0067,0.0073,0.0029,-0.0100,-0.0242,0.0535,-0.0193,9.7883,0.0000,0.0001,0.0001,1.0000,0.0014,-0.0005,0.2447
37566679,Left,2,0.0084,-0.0119,-0.9826,0.1850,0.0115,0.0061,0.0055,-0.2065,0.1301,-0.0959,0.0274,0.0608,9.7196,0.0001,0.0001,0.0001,1.0000,0.0007,0.0015,0.2430
37566679,Pelvis,2,-0.2528,-0.6143,-0.2901,0.6888,0.0030,0.0012,0.0018,0.0064,-0.0248,0.0027,9.7499,0.0678,1.1300,0.0000,0.0000,0.0000,1.0000,0.2437,0.0017,0.0282
37566679,Right,2,-0.0029,0.0016,-0.9986,-0.0531,0.0006,0.0049,0.0086,-0.0130,0.0119,-0.0432,0.0714,-0.0393,9.7692,0.0000,0.0001,0.0001,1.0000,0.0018,-0.0010,0.2442
37566680,Left,2,0.0085,-0.0120,-0.9826,0.1851,0.0103,0.0063,0.0055,-0.1854,0.1395,-0.1052,0.0042,0.0605,9.7100,0.0001,0.0001,0.0001,1.0000,0.0001,0.0015,0.2428
37566680,Pelvis,2,-0.2528,-0.6144,-0.2902,0.6888,0.0012,0.0012,-0.0000,-0.0002,-0.0187,0.0135,9.7596,0.0676,1.1401,0.0000,0.0000,-0.0000,1.0000,0.2440,0.0017,0.0285
37566680,Right,2,-0.0029,0.0016,-0.9986,-0.0531,0.0006,0.0049,0.0079,-0.0124,0.0020,-0.0237,0.0701,-0.0294,9.7887,0.0000,0.0001,0.0001,1.0000,0.0018,-0.0007,0.2447
37566681,Left,2,0.0085,-0.0120,-0.9826,0.1850,0.0112,0.0081,0.0043,-0.1742,0.1297,-0.0850,-0.0035,0.0751,9.7298,0.0001,0.0001,0.0001,1.0000,-0.0001,0.0018,0.2432
37566681,Pelvis,2,-0.2528,-0.6143,-0.2902,0.6888,0.0018,0.0018,0.0012,0.0066,0.0020,0.0148,9.7596,0.0871,1.1501,0.0000,0.0000,0.0000,1.0000,0.2440,0.0022,0.0287
37566681,Right,2,-0.0029,0.0016,-0.9986,-0.0531,0.0006,0.0067,0.0073,-0.0027,-0.0092,-0.0240,0.0592,-0.0192,9.7885,0.0000,0.0001,0.0001,1.0000,0.0015,-0.0005,0.2447
37566682,Left,2,0.0085,-0.0120,-0.9826,0.1849,0.0104,0.0069,0.0049,-0.1925,0.1467,-0.0961,0.0069,0.0533,9.7195,0.0001,0.0001,0.0001,1.0000,0.0002,0.0013,0.2430
37566682,Pelvis,2,-0.2528,-0.6143,-0.2902,0.6888,0.0031,0.0024,-0.0000,-0.0153,-0.0038,0.0060,9.7496,0.0676,1.1605,0.0000,0.0000,-0.0000,1.0000,0.2437,0.0017,0.0290
37566682,Right,2,-0.0029,0.0016,-0.9986,-0.0531,-0.0013,0.0043,0.0091,0.0005,0.0102,-0.0532,0.0579,-0.0388,9.7593,-0.0000,0.0001,0.0001,1.0000,0.0015,-0.0010,0.2440
37566683,Left,2,0.0086,-0.0121,-0.9826,0.1851,0.0115,0.0061,0.0061,-0.2005,0.1355,-0.0863,0.0178,0.0620,9.7292,0.0001,0.0001,0.0001,1.0000,0.0005,0.0015,0.2432
37566683,Pelvis,2,-0.2528,-0.6143,-0.2902,0.6888,0.0024,0.0012,0.0018,0.0053,-0.0254,0.0124,9.7595,0.0672,1.1317,0.0000,0.0000,0.0000,1.0000,0.2440,0.0017,0.0283
37566683,Right,2,-0.0029,0.0016,-0.9986,-0.0531,0.0000,0.0061,0.0067,-0.0164,0.0124,-0.0136,0.0753,-0.0395,9.7987,0.0000,0.0001,0.0001,1.0000,0.0019,-0.0010,0.2450
37566684,Left,2,0.0086,-0.0121,-0.9826,0.1853,0.0093,0.0077,0.0062,-0.1683,0.1250,-0.1141,-0.0089,0.0834,9.7005,0.0001,0.0001,0.0001,1.0000,-0.0002,0.0021,0.2425
37566684,Pelvis,2,-0.2528,-0.6143,-0.2902,0.6888,-0.0000,0.0012,0.0018,-0.0106,0.0049,-0.0133,9.7300,0.0769,1.1610,-0.0000,0.0000,0.0000,1.0000,0.2433,0.0019,0.0290
37566684,Right,2,-0.0029,0.0016,-0.9986,-0.0531,-0.0006,0.0055,0.0073,0.0009,-0.0095,-0.0435,0.0555,-0.0196,9.7690,-0.0000,0.0001,0.0001,1.0000,0.0014,-0.0005,0.2442
37566685,Left,2,0.0086,-0.0122,-0.9826,0.1853,0.0108,0.0056,0.0049,-0.1870,0.1331,-0.0956,0.0051,0.0702,9.7196,0.0001,0.0001,0.0001,1.0000,0.0001,0.0017,0.2430
37566685,Pelvis,2,-0.2528,-0.6144,-0.2902,0.6888,0.0037,-0.0000,0.0006,-0.0027,0.0101,0.0062,9.7496,0.0864,1.1612,0.0000,-0.0000,0.0000,1.0000,0.2437,0.0022,0.0290
37566685,Right,2,-0.0029,0.0016,-0.9986,-0.0531,0.0006,0.0049,0.0073,0.0051,0.0096,-0.0337,0.0535,-0.0391,9.7788,0.0000,0.0001,0.0001,1.0000,0.0014,-0.0010,0.2445
37566686,Left,2,0.0086,-0.0122,-0.9826,0.1851,0.0116,0.0067,0.0049,-0.2248,0.1400,-0.0875,0.0378,0.0512,9.7286,0.0001,0.0001,0.0001,1.0000,0.0010,0.0012,0.2432
37566686,Pelvis,2,-0.2528,-0.6144,-0.2902,0.6888,0.0012,0.0018,0.0006,0.0032,-0.0243,0.0027,9.7497,0.0665,1.1323,0.0000,0.0000,0.0000,1.0000,0.2437,0.0017,0.0283
37566686,Right,2,-0.0029,0.0016,-0.9986,-0.0531,0.0012,0.0055,0.0079,-0.0142,0.0024,-0.0332,0.0720,-0.0297,9.7792,0.0000,0.0001,0.0001,1.0000,0.0018,-0.0007,0.2445
37566687,Left,2,0.0087,-0.0122,-0.9826,0.1849,0.0099,0.0076,0.0055,-0.2035,0.1399,-0.0867,0.0175,0.0600,9.7289,0.0001,0.0001,0.0001,1.0000,0.0005,0.0015,0.2432
37566687,Pelvis,2,-0.2528,-0.6144,-0.2902,0.6888,0.0018,0.0024,0.0006,-0.0113,0.0043,-0.0036,9.7397,0.0765,1.1619,0.0000,0.0000,0.0000,1.0000,0.2435,0.0019,0.0290
37566687,Right,2,-0.0029,0.0016,-0.9986,-0.0531,-0.0006,0.0061,0.0067,-0.0018,0.0106,-0.0334,0.0606,-0.0391,9.7790,-0.0000,0.0001,0.0001,1.0000,0.0015,-0.0010,0.2445
37566688,Left,2,0.0087,-0.0123,-0.9827,0.1848,0.0102,0.0057,0.0043,-0.1910,0.1291,-0.0958,0.0096,0.0749,9.7193,0.0001,0.0001,0.0001,1.0000,0.0003,0.0018,0.2430
37566688,Pelvis,2,-0.2528,-0.6143,-0.2902,0.6888,0.0018,0.0031,0.0018,-0.0108,0.0173,0.0073,9.7494,0.0860,1.1724,0.0000,0.0000,0.0000,1.0000,0.2437,0.0022,0.0293
37566688,Right,2,-0.0029,0.0016,-0.9986,-0.0531,-0.0000,0.0049,0.0079,-0.0031,-0.0089,-0.0335,0.0598,-0.0197,9.7790,-0.0000,0.0001,0.0001,1.0000,0.0015,-0.0005,0.2445
37566689,Left,2,0.0087,-0.0123,-0.9826,0.1853,0.0098,0.0070,0.0055,-0.1996,0.1460,-0.1162,0.0109,0.0560,9.6995,0.0001,0.0001,0.0001,1.0000,0.0003,0.0014,0.2425
37566689,Pelvis,2,-0.2528,-0.6143,-0.2902,0.6888,0.0018,0.0012,0.0000,0.0023,0.0035,0.0051,9.7494,0.0857,1.1533,0.0000,0.0000,0.0000,1.0000,0.2437,0.0021,0.0288
37566689,Right,2,-0.0029,0.0016,-0.9986,-0.0531,0.0006,0.0067,0.0092,0.0009,0.0103,-0.0334,0.0578,-0.0391,9.7790,0.0000,0.0001,0.0001,1.0000,0.0015,-0.0010,0.2445
37566690,Left,2,0.0088,-0.0123,-0.9826,0.1852,0.0094,0.0083,0.0062,-0.1877,0.1359,-0.1057,0.0030,0.0705,9.7095,0.0001,0.0001,0.0001,1.0000,0.0001,0.0017,0.2427
37566690,Pelvis,2,-0.2528,-0.6144,-0.2902,0.6888,0.0037,0.0006,0.0031,-0.0040,-0.0187,0.0232,9.7689,0.0657,1.1441,0.0000,0.0000,0.0000,1.0000,0.2442,0.0017,0.0286
37566690,Right,2,-0.0029,0.0016,-0.9986,-0.0531,-0.0018,0.0049,0.0073,0.0010,0.0005,-0.0334,0.0566,-0.0295,9.7790,-0.0000,0.0001,0.0001,1.0000,0.0014,-0.0007,0.2445
37566691,Left,2,0.0088,-0.0123,-0.9826,0.1853,0.0110,0.0068,0.0043,-0.1958,0.1154,-0.0761,0.0169,0.0881,9.7388,0.0001,0.0001,0.0001,1.0000,0.0004,0.0022,0.2435
37566691,Pelvis,2,-0.2528,-0.6144,-0.2902,0.6888,0.0024,-0.0000,-0.0006,0.0021,0.0028,0.0148,9.7592,0.0851,1.1537,0.0000,-0.0000,-0.0000,1.0000,0.2440,0.0021,0.0288
37566691,Right,2,-0.0029,0.0016,-0.9986,-0.0531,0.0012,0.0049,0.0079,0.0037,0.0100,-0.0334,0.0552,-0.0394,9.7791,0.0000,0.0001,0.0001,1.0000,0.0014,-0.0010,0.2445
37566692,Left,2,0.0088,-0.0124,-0.9826,0.1852,0.0110,0.0068,0.0068,-0.1943,0.1428,-0.0965,0.0058,0.0632,9.7189,0.0001,0.0001,0.0001,1.0000,0.0002,0.0015,0.2430
37566692,Pelvis,2,-0.2528,-0.6144,-0.2902,0.6888,0.0018,0.0018,0.0024,0.0001,-0.0092,-0.0058,9.7396,0.0752,1.1441,0.0000,0.0000,0.0000,1.0000,0.2435,0.0019,0.0286
37566692,Right,2,-0.0029,0.0016,-0.9986,-0.0531,0.0018,0.0042,0.0073,-0.0062,0.0015,-0.0429,0.0643,-0.0296,9.7695,0.0000,0.0001,0.0001,1.0000,0.0016,-0.0007,0.2442
37566693,Left,2,0.0088,-0.0124,-0.9826,0.1852,0.0092,0.0071,0.0043,-0.1921,0.1317,-0.0962,0.0072,0.0749,9.7190,0.0001,0.0001,0.0001,1.0000,0.0002,0.0018,0.2430
37566693,Pelvis,2,-0.2528,-0.6144,-0.2902,0.6888,0.0030,0.0006,0.0024,-0.0128,-0.0107,0.0146,9.7590,0.0649,1.1544,0.0000,0.0000,0.0000,1.0000,0.2440,0.0016,0.0289
37566693,Right,2,-0.0029,0.0016,-0.9986,-0.0531,0.0000,0.0061,0.0073,-0.0127,0.0122,-0.0231,0.0721,-0.0394,9.7893,0.0000,0.0001,0.0001,1.0000,0.0018,-0.0010,0.2447
37566694,Left,2,0.0089,-0.0124,-0.9826,0.1849,0.0110,0.0068,0.0049,-0.1806,0.1407,-0.0961,-0.0069,0.0712,9.7190,0.0001,0.0001,0.0001,1.0000,-0.0002,0.0017,0.2430
37566694,Pelvis,2,-0.2529,-0.6144,-0.2902,0.6888,0.0012,0.0012,0.0018,0.0066,-0.0014,-0.0057,9.7396,0.0840,1.1445,0.0000,0.0000,0.0000,1.0000,0.2435,0.0021,0.0286
37566694,Right,2,-0.0030,0.0017,-0.9986,-0.0532,-0.0000,0.0055,0.0079,0.0079,-0.0012,-0.0334,0.0516,-0.0290,9.7791,-0.0000,0.0001,0.0001,1.0000,0.0013,-0.0007,0.2445
37566695,Left,2,0.0088,-0.0124,-0.9827,0.1847,0.0103,0.0063,0.0049,-0.1781,0.1303,-0.0762,-0.0052,0.0828,9.7386,0.0001,0.0001,0.0001,1.0000,-0.0001,0.0020,0.2435
37566695,Pelvis,2,-0.2529,-0.6143,-0.2902,0.6888,0.0024,0.0024,-0.0000,-0.0061,0.0109,0.0159,9.7590,0.0839,1.1646,0.0000,0.0000,-0.0000,1.0000,0.2440,0.0021,0.0291
37566695,Right,2,-0.0030,0.0017,-0.9986,-0.0532,-0.0006,0.0061,0.0073,-0.0018,-0.0097,-0.0332,0.0603,-0.0197,9.7793,-0.0000,0.0001,0.0001,1.0000,0.0015,-0.0005,0.2445
37566696,Left,2,0.0089,-0.0125,-0.9827,0.1844,0.0097,0.0064,0.0062,-0.1962,0.1470,-0.0969,0.0054,0.0608,9.7187,0.0001,0.0001,0.0001,1.0000,0.0002,0.0015,0.2430
37566696,Pelvis,2,-0.2529,-0.6144,-0.2902,0.6888,0.0024,0.0006,0.0012,-0.0068,-0.0028,0.0147,9.7590,0.0740,1.1553,0.0000,0.0000,0.0000,1.0000,0.2440,0.0019,0.0289
37566696,Right,2,-0.0030,0.0017,-0.9986,-0.0532,0.0012,0.0061,0.0079,0.0009,-0.0002,-0.0332,0.0585,-0.0294,9.7793,0.0000,0.0001,0.0001,1.0000,0.0015,-0.0007,0.2445
37566697,Left,2,0.0089,-0.0125,-0.9828,0.1841,0.0109,0.0062,0.0049,-0.2034,0.1358,-0.0871,0.0164,0.0694,9.7284,0.0001,0.0001,0.0001,1.0000,0.0004,0.0017,0.2432
37566697,Pelvis,2,-0.2529,-0.6144,-0.2902,0.6888,0.0018,0.0006,0.0012,0.0133,-0.0098,0.0126,9.7591,0.0833,1.1358,0.0000,0.0000,0.0000,1.0000,0.2440,0.0021,0.0284
37566697,Right,2,-0.0030,0.0017,-0.9986,-0.0532,-0.0000,0.0043,0.0085,0.0026,-0.0004,-0.0234,0.0570,-0.0292,9.7891,-0.0000,0.0001,0.0001,1.0000,0.0014,-0.0007,0.2447
37566698,Left,2,0.0089,-0.0125,-0.9828,0.1840,0.0092,0.0071,0.0037,-0.1818,0.1446,-0.1062,-0.0070,0.0690,9.7090,0.0001,0.0001,0.0000,1.0000,-0.0002,0.0017,0.2427
37566698,Pelvis,2,-0.2529,-0.6144,-0.2902,0.6888,0.0012,0.0018,-0.0006,-0.0081,0.0120,0.0062,9.7491,0.0836,1.1654,0.0000,0.0000,-0.0000,1.0000,0.2437,0.0021,0.0291
37566698,Right,2,-0.0030,0.0016,-0.9986,-0.0532,0.0018,0.0061,0.0073,0.0110,-0.0213,-0.0237,0.0466,-0.0092,9.7889,0.0000,0.0001,0.0001,1.0000,0.0012,-0.0002,0.2447
37566699,Left,2,0.0089,-0.0125,-0.9829,0.1835,0.0110,0.0068,0.0068,-0.1896,0.1431,-0.0967,0.0006,0.0682,9.7186,0.0001,0.0001,0.0001,1.0000,0.0000,0.0017,0.2430
37566699,Pelvis,2,-0.2529,-0.6144,-0.2902,0.6888,0.0012,0.0024,0.0018,0.0118,-0.0087,0.0029,9.7493,0.0832,1.1366,0.0000,0.0000,0.0000,1.0000,0.2437,0.0021,0.0284
37566699,Right,2,-0.0030,0.0016,-0.9986,-0.0532,-0.0000,0.0049,0.0079,0.0037,-0.0103,-0.0332,0.0549,-0.0190,9.7793,-0.0000,0.0001,0.0001,1.0000,0.0014,-0.0005,0.2445
37566700,Left,2,0.0089,-0.0126,-0.9829,0.1837,0.0106,0.0044,0.0043,-0.1982,0.1603,-0.1073,0.0022,0.0494,9.7086,0.0001,0.0001,0.0001,1.0000,0.0001,0.0012,0.2427
37566700,Pelvis,2,-0.2529,-0.6144,-0.2902,0.6888,0.0018,0.0006,0.0012,-0.0149,-0.0101,0.0243,9.7685,0.0634,1.1568,0.0000,0.0000,0.0000,1.0000,0.2442,0.0016,0.0289
37566700,Right,2,-0.0030,0.0016,-0.9986,-0.0532,0.0000,0.0061,0.0079,-0.0115,0.0115,-0.0325,0.0724,-0.0392,9.7798,0.0000,0.0001,0.0001,1.0000,0.0018,-0.0010,0.2445
37566701,Left,2,0.0089,-0.0126,-0.9827,0.1846,0.0108,0.0056,0.0055,-0.1861,0.1211,-0.0667,0.0045,0.0917,9.7480,0.0001,0.0001,0.0001,1.0000,0.0001,0.0023,0.2437
37566701,Pelvis,2,-0.2529,-0.6144,-0.2902,0.6888,0.0018,0.0030,0.0006,-0.0026,0.0053,0.0051,9.7490,0.0829,1.1569,0.0000,0.0000,0.0000,1.0000,0.2437,0.0021,0.0289
37566701,Right,2,-0.0030,0.0016,-0.9986,-0.0532,-0.0000,0.0055,0.0085,0.0078,-0.0010,-0.0332,0.0518,-0.0288,9.7794,-0.0000,0.0001,0.0001,1.0000,0.0013,-0.0007,0.2445
37566702,Left,2,0.0089,-0.0126,-0.9828,0.1840,0.0104,0.0069,0.0049,-0.1951,0.1390,-0.0676,0.0060,0.0727,9.7477,0.0001,0.0001,0.0001,1.0000,0.0002,0.0018,0.2437
37566702,Pelvis,2,-0.2528,-0.6144,-0.2902,0.6888,0.0018,0.0018,0.0006,0.0181,-0.0025,0.0128,9.7589,0.0924,1.1380,0.0000,0.0000,0.0000,1.0000,0.2440,0.0023,0.0284
37566702,Right,2,-0.0030,0.0016,-0.9986,-0.0532,0.0006,0.0061,0.0079,-0.0082,0.0111,-0.0130,0.0691,-0.0391,9.7994,0.0000,0.0001,0.0001,1.0000,0.0017,-0.0010,0.2450
37566703,Left,2,0.0089,-0.0126,-0.9828,0.1841,0.0110,0.0068,0.0055,-0.2112,0.1361,-0.0877,0.0227,0.0693,9.7280,0.0001,0.0001,0.0001,1.0000,0.0006,0.0017,0.2432
37566703,Pelvis,2,-0.2528,-0.6144,-0.2902,0.6888,0.0030,0.0012,0.0018,-0.0182,-0.0072,-0.0048,9.7391,0.0631,1.1580,0.0000,0.0000,0.0000,1.0000,0.2435,0.0016,0.0289
37566703,Right,2,-0.0030,0.0016,-0.9986,-0.0531,0.0006,0.0061,0.0086,-0.0074,0.0110,-0.0325,0.0681,-0.0390,9.7798,0.0000,0.0001,0.0001,1.0000,0.0017,-0.0010,0.2445
37566704,Left,2,0.0090,-0.0127,-0.9827,0.1844,0.0110,0.0068,0.0055,-0.1916,0.1455,-0.0775,-0.0005,0.0688,9.7379,0.0001,0.0001,0.0001,1.0000,0.0000,0.0017,0.2434
37566704,Pelvis,2,-0.2528,-0.6144,-0.2902,0.6888,0.0018,0.0012,0.0012,-0.0165,0.0040,0.0255,9.7683,0.0725,1.1682,0.0000,0.0000,0.0000,1.0000,0.2442,0.0018,0.0292
37566704,Right,2,-0.0030,0.0016,-0.9986,-0.0531,-0.0000,0.0049,0.0085,0.0023,-0.0002,-0.0329,0.0573,-0.0289,9.7796,-0.0000,0.0001,0.0001,1.0000,0.0014,-0.0007,0.2445
37566705,Left,2,0.0090,-0.0127,-0.9828,0.1843,0.0103,0.0063,0.0049,-0.1971,0.1429,-0.1070,0.0070,0.0686,9.7085,0.0001,0.0001,0.0001,1.0000,0.0002,0.0017,0.2427
37566705,Pelvis,2,-0.2528,-0.6144,-0.2902,0.6888,0.0018,0.0024,0.0018,0.0025,0.0125,0.0052,9.7489,0.0917,1.1585,0.0000,0.0000,0.0000,1.0000,0.2437,0.0023,0.0290
37566705,Right,2,-0.0030,0.0016,-0.9986,-0.0531,0.0012,0.0061,0.0086,-0.0157,0.0024,-0.0323,0.0755,-0.0294,9.7801,0.0000,0.0001,0.0001,1.0000,0.0019,-0.0007,0.2445
37566706,Left,2,0.0090,-0.0127,-0.9827,0.1843,0.0090,0.0059,0.0049,-0.1862,0.1515,-0.1070,-0.0069,0.0648,9.7085,0.0001,0.0001,0.0001,1.0000,-0.0002,0.0016,0.2427
37566706,Pelvis,2,-0.2528,-0.6144,-0.2902,0.6888,0.0012,0.0018,0.0006,0.0154,-0.0151,0.0019,9.7490,0.0815,1.1298,0.0000,0.0000,0.0000,1.0000,0.2437,0.0020,0.0282
37566706,Right,2,-0.0030,0.0016,-0.9986,-0.0531,-0.0018,0.0061,0.0073,0.0040,-0.0102,-0.0231,0.0545,-0.0191,9.7894,-0.0000,0.0001,0.0001,1.0000,0.0014,-0.0005,0.2447
37566707,Left,2,0.0090,-0.0127,-0.9827,0.1843,0.0101,0.0051,0.0049,-0.2031,0.1392,-0.1072,0.0134,0.0702,9.7083,0.0001,0.0001,0.0001,1.0000,0.0004,0.0017,0.2427
37566707,Pelvis,2,-0.2528,-0.6143,-0.2902,0.6888,0.0043,0.0031,0.0024,-0.0058,-0.0217,0.0027,9.7487,0.0617,1.1404,0.0001,0.0000,0.0000,1.0000,0.2437,0.0015,0.0285
37566707,Right,2,-0.0030,0.0016,-0.9986,-0.0531,-0.0000,0.0049,0.0079,-0.0138,0.0023,-0.0616,0.0733,-0.0297,9.7508,-0.0000,0.0001,0.0001,1.0000,0.0018,-0.0007,0.2438
37566708,Left,2,0.0090,-0.0127,-0.9827,0.1845,0.0115,0.0061,0.0049,-0.2016,0.1377,-0.1072,0.0121,0.0728,9.7083,0.0001,0.0001,0.0001,1.0000,0.0003,0.0018,0.2427
37566708,Pelvis,2,-0.2528,-0.6143,-0.2902,0.6888,0.0012,0.0012,0.0018,0.0016,-0.0019,0.0137,9.7585,0.0808,1.1506,0.0000,0.0000,0.0000,1.0000,0.2440,0.0020,0.0288
37566708,Right,2,-0.0030,0.0016,-0.9986,-0.0531,0.0012,0.0061,0.0079,0.0061,-0.0104,-0.0427,0.0523,-0.0192,9.7699,0.0000,0.0001,0.0001,1.0000,0.0013,-0.0005,0.2442
37566709,Left,2,0.0090,-0.0127,-0.9827,0.1844,0.0090,0.0059,0.0056,-0.1797,0.1470,-0.1068,-0.0110,0.0722,9.7084,0.0001,0.0001,0.0001,1.0000,-0.0003,0.0018,0.2427
37566709,Pelvis,2,-0.2528,-0.6143,-0.2902,0.6888,0.0018,0.0018,0.0018,0.0082,0.0050,0.0139,9.7585,0.0902,1.1508,0.0000,0.0000,0.0000,1.0000,0.2440,0.0023,0.0288
37566709,Right,2,-0.0030,0.0016,-0.9986,-0.0531,0.0006,0.0055,0.0067,-0.0013,-0.0094,-0.0131,0.0599,-0.0193,9.7994,0.0000,0.0001,0.0001,1.0000,0.0015,-0.0005,0.2450
37566710,Left,2,0.0090,-0.0127,-0.9827,0.1846,0.0103,0.0063,0.0055,-0.1885,0.1547,-0.1073,-0.0063,0.0622,9.7082,0.0001,0.0001,0.0001,1.0000,-0.0001,0.0015,0.2427
37566710,Pelvis,2,-0.2528,-0.6143,-0.2902,0.6888,0.0018,0.0012,0.0012,0.0077,0.0051,0.0139,9.7585,0.0899,1.1512,0.0000,0.0000,0.0000,1.0000,0.2440,0.0023,0.0288
37566710,Right,2,-0.0030,0.0016,-0.9986,-0.0532,-0.0006,0.0055,0.0061,0.0011,0.0001,-0.0228,0.0585,-0.0290,9.7897,-0.0000,0.0001,0.0001,1.0000,0.0015,-0.0007,0.2447
37566711,Left,2,0.0090,-0.0128,-0.9827,0.1846,0.0103,0.0063,0.0055,-0.2050,0.1332,-0.0975,0.0169,0.0770,9.7179,0.0001,0.0001,0.0001,1.0000,0.0004,0.0019,0.2429
37566711,Pelvis,2,-0.2528,-0.6143,-0.2902,0.6888,0.0024,0.0018,0.0018,-0.0074,-0.0075,0.0039,9.7486,0.0701,1.1517,0.0000,0.0000,0.0000,1.0000,0.2437,0.0018,0.0288
37566711,Right,2,-0.0030,0.0016,-0.9986,-0.0532,0.0000,0.0055,0.0073,-0.0074,0.0014,-0.0323,0.0671,-0.0295,9.7802,0.0000,0.0001,0.0001,1.0000,0.0017,-0.0007,0.2445
37566712,Left,2,0.0090,-0.0128,-0.9827,0.1844,0.0103,0.0063,0.0055,-0.2029,0.1511,-0.0980,0.0092,0.0609,9.7178,0.0001,0.0001,0.0001,1.0000,0.0002,0.0015,0.2429
37566712,Pelvis,2,-0.2528,-0.6143,-0.2902,0.6888,0.0018,0.0012,0.0012,0.0068,0.0053,0.0139,9.7584,0.0893,1.1519,0.0000,0.0000,0.0000,1.0000,0.2440,0.0022,0.0288
37566712,Right,2,-0.0030,0.0016,-0.9986,-0.0532,-0.0000,0.0049,0.0079,-0.0064,0.0013,-0.0420,0.0661,-0.0295,9.7704,-0.0000,0.0001,0.0001,1.0000,0.0017,-0.0007,0.2443
37566713,Left,2,0.0090,-0.0128,-0.9827,0.1847,0.0101,0.0051,0.0049,-0.2115,0.1401,-0.0687,0.0204,0.0693,9.7470,0.0001,0.0001,0.0001,1.0000,0.0005,0.0017,0.2437
37566713,Pelvis,2,-0.2528,-0.6143,-0.2902,0.6888,0.0018,0.0030,0.0006,-0.0070,-0.0091,0.0233,9.7680,0.0695,1.1527,0.0000,0.0000,0.0000,1.0000,0.2442,0.0017,0.0288
37566713,Right,2,-0.0030,0.0016,-0.9986,-0.0532,0.0006,0.0055,0.0061,-0.0058,-0.0087,-0.0225,0.0647,-0.0196,9.7899,0.0000,0.0001,0.0001,1.0000,0.0016,-0.0005,0.2447
37566714,Left,2,0.0090,-0.0128,-0.9827,0.1846,0.0114,0.0055,0.0062,-0.1890,0.1485,-0.0976,-0.0027,0.0692,9.7179,0.0001,0.0001,0.0001,1.0000,-0.0001,0.0017,0.2429
37566714,Pelvis,2,-0.2528,-0.6143,-0.2902,0.6888,0.0012,0.0006,0.0018,0.0123,0.0131,0.0043,9.7486,0.0987,1.1527,0.0000,0.0000,0.0000,1.0000,0.2437,0.0025,0.0288
37566714,Right,2,-0.0030,0.0016,-0.9986,-0.0532,-0.0006,0.0049,0.0085,-0.0013,0.0104,-0.0127,0.0625,-0.0392,9.7997,-0.0000,0.0001,0.0001,1.0000,0.0016,-0.0010,0.2450
37566715,Left,2,0.0089,-0.0128,-0.9827,0.1844,0.0108,0.0056,0.0043,-0.1967,0.1566,-0.0883,0.0021,0.0594,9.7275,0.0001,0.0001,0.0001,1.0000,0.0001,0.0015,0.2432
37566715,Pelvis,2,-0.2528,-0.6143,-0.2902,0.6888,0.0024,0.0024,0.0018,-0.0080,0.0195,0.0160,9.7581,0.0886,1.1728,0.0000,0.0000,0.0000,1.0000,0.2440,0.0022,0.0293
37566715,Right,2,-0.0030,0.0016,-0.9986,-0.0532,0.0006,0.0055,0.0073,-0.0030,-0.0090,-0.0225,0.0621,-0.0197,9.7899,0.0000,0.0001,0.0001,1.0000,0.0016,-0.0005,0.2447
37566716,Left,2,0.0089,-0.0128,-0.9827,0.1847,0.0098,0.0070,0.0068,-0.2034,0.1443,-0.0980,0.0129,0.0682,9.7177,0.0001,0.0001,0.0001,1.0000,0.0003,0.0017,0.2429
37566716,Pelvis,2,-0.2528,-0.6143,-0.2902,0.6888,0.0012,0.0012,0.0018,0.0048,-0.0081,0.0127,9.7582,0.0782,1.1440,0.0000,0.0000,0.0000,1.0000,0.2440,0.0020,0.0286
37566716,Right,2,-0.0030,0.0016,-0.9986,-0.0532,-0.0006,0.0067,0.0073,0.0008,0.0103,-0.0322,0.0602,-0.0392,9.7802,-0.0000,0.0001,0.0001,1.0000,0.0015,-0.0010,0.2445
37566717,Left,2,0.0090,-0.0128,-0.9827,0.1848,0.0102,0.0057,0.0055,-0.2019,0.1424,-0.0979,0.0114,0.0706,9.7176,0.0001,0.0001,0.0001,1.0000,0.0003,0.0017,0.2429
37566717,Pelvis,2,-0.2528,-0.6143,-0.2902,0.6888,0.0018,0.0031,0.0018,0.0053,0.0049,0.0236,9.7679,0.0876,1.1543,0.0000,0.0000,0.0000,1.0000,0.2442,0.0022,0.0288
37566717,Right,2,-0.0030,0.0016,-0.9986,-0.0531,0.0006,0.0049,0.0092,-0.0009,-0.0092,-0.0420,0.0597,-0.0197,9.7704,0.0000,0.0001,0.0001,1.0000,0.0015,-0.0005,0.2443
37566718,Left,2,0.0090,-0.0128,-0.9826,0.1850,0.0102,0.0057,0.0049,-0.2009,0.1505,-0.0884,0.0069,0.0638,9.7273,0.0001,0.0001,0.0001,1.0000,0.0002,0.0016,0.2432
37566718,Pelvis,2,-0.2528,-0.6143,-0.2902,0.6888,0.0031,0.0024,0.0018,0.0035,0.0067,0.0042,9.7483,0.0873,1.1548,0.0000,0.0000,0.0000,1.0000,0.2437,0.0022,0.0289
37566718,Right,2,-0.0030,0.0016,-0.9986,-0.0532,0.0000,0.0061,0.0073,-0.0069,0.0015,-0.0124,0.0670,-0.0297,9.8000,0.0000,0.0001,0.0001,1.0000,0.0017,-0.0007,0.2450
37566719,Left,2,0.0090,-0.0128,-0.9826,0.1852,0.0107,0.0050,0.0055,-0.1899,0.1587,-0.0883,-0.0068,0.0602,9.7274,0.0001,0.0001,0.0001,1.0000,-0.0002,0.0015,0.2432
37566719,Pelvis,2,-0.2528,-0.6143,-0.2902,0.6888,0.0018,0.0018,0.0012,-0.0035,-0.0147,0.0125,9.7580,0.0673,1.1458,0.0000,0.0000,0.0000,1.0000,0.2439,0.0017,0.0286
37566719,Right,2,-0.0030,0.0017,-0.9986,-0.0532,-0.0006,0.0049,0.0073,0.0032,0.0002,-0.0420,0.0567,-0.0295,9.7705,-0.0000,0.0001,0.0001,1.0000,0.0014,-0.0007,0.2443
37566720,Left,2,0.0090,-0.0128,-0.9825,0.1859,0.0097,0.0064,0.0049,-0.1861,0.1373,-0.0877,-0.0019,0.0812,9.7274,0.0001,0.0001,0.0001,1.0000,-0.0000,0.0020,0.2432
37566720,Pelvis,2,-0.2528,-0.6143,-0.2902,0.6888,0.0024,0.0012,0.0012,0.0020,0.0077,-0.0055,9.7384,0.0869,1.1556,0.0000,0.0000,0.0000,1.0000,0.2435,0.0022,0.0289
37566720,Right,2,-0.0030,0.0016,-0.9986,-0.0532,0.0006,0.0055,0.0073,-0.0130,0.0124,-0.0316,0.0743,-0.0400,9.7807,0.0000,0.0001,0.0001,1.0000,0.0019,-0.0010,0.2445
37566721,Left,2,0.0090,-0.0128,-0.9824,0.1860,0.0114,0.0055,0.0062,-0.2037,0.1538,-0.0984,0.0089,0.0591,9.7174,0.0001,0.0001,0.0001,1.0000,0.0002,0.0014,0.2429
37566721,Pelvis,2,-0.2528,-0.6143,-0.2902,0.6888,0.0012,0.0012,0.0012,0.0231,-0.0148,0.0106,9.7581,0.0862,1.1268,0.0000,0.0000,0.0000,1.0000,0.2440,0.0022,0.0282
37566721,Right,2,-0.0030,0.0017,-0.9986,-0.0532,-0.0006,0.0061,0.0073,-0.0141,-0.0072,-0.0219,0.0733,-0.0204,9.7905,-0.0000,0.0001,0.0001,1.0000,0.0019,-0.0005,0.2448
37566722,Left,2,0.0090,-0.0129,-0.9825,0.1856,0.0111,0.0074,0.0043,-0.2017,0.1331,-0.0881,0.0136,0.0802,9.7272,0.0001,0.0001,0.0001,1.0000,0.0004,0.0020,0.2432
37566722,Pelvis,2,-0.2528,-0.6143,-0.2902,0.6888,0.0031,0.0024,0.0012,0.0153,-0.0069,0.0020,9.7483,0.0861,1.1369,0.0000,0.0000,0.0000,1.0000,0.2437,0.0022,0.0284
37566722,Right,2,-0.0030,0.0017,-0.9986,-0.0532,0.0000,0.0055,0.0055,-0.0020,0.0010,-0.0319,0.0621,-0.0299,9.7805,0.0000,0.0001,0.0001,1.0000,0.0016,-0.0007,0.2445
37566723,Left,2,0.0091,-0.0129,-0.9825,0.1858,0.0101,0.0051,0.0049,-0.2004,0.1310,-0.0881,0.0121,0.0828,9.7272,0.0001,0.0001,0.0001,1.0000,0.0003,0.0020,0.2432
37566723,Pelvis,2,-0.2528,-0.6143,-0.2902,0.6888,0.0006,0.0018,0.0012,0.0085,-0.0145,0.0116,9.7579,0.0761,1.1376,0.0000,0.0000,0.0000,1.0000,0.2439,0.0019,0.0284
37566723,Right,2,-0.0030,0.0016,-0.9986,-0.0532,0.0018,0.0042,0.0073,-0.0106,0.0023,-0.0414,0.0709,-0.0301,9.7710,0.0000,0.0001,0.0001,1.0000,0.0018,-0.0008,0.2443
37566724,Left,2,0.0091,-0.0129,-0.9825,0.1853,0.0105,0.0075,0.0062,-0.1996,0.1491,-0.0787,0.0043,0.0668,9.7369,0.0001,0.0001,0.0001,1.0000,0.0001,0.0016,0.2434
37566724,Pelvis,2,-0.2528,-0.6143,-0.2902,0.6888,0.0030,0.0006,0.0012,0.0076,0.0002,0.0031,9.7481,0.0857,1.1475,0.0000,0.0000,0.0000,1.0000,0.2437,0.0021,0.0287
37566724,Right,2,-0.0030,0.0016,-0.9986,-0.0532,0.0006,0.0055,0.0073,-0.0006,-0.0090,-0.0320,0.0600,-0.0197,9.7805,0.0000,0.0001,0.0001,1.0000,0.0015,-0.0005,0.2445
37566725,Left,2,0.0090,-0.0129,-0.9826,0.1850,0.0102,0.0057,0.0056,-0.1743,0.1287,-0.0971,-0.0096,0.0942,9.7175,0.0001,0.0001,0.0001,1.0000,-0.0002,0.0023,0.2429
37566725,Pelvis,2,-0.2528,-0.6143,-0.2902,0.6888,0.0024,0.0012,0.0012,-0.0003,0.0081,-0.0055,9.7382,0.0857,1.1574,0.0000,0.0000,0.0000,1.0000,0.2435,0.0021,0.0289
37566725,Right,2,-0.0030,0.0016,-0.9986,-0.0532,-0.0006,0.0061,0.0073,0.0107,-0.0106,-0.0225,0.0486,-0.0193,9.7900,-0.0000,0.0001,0.0001,1.0000,0.0012,-0.0005,0.2448
37566726,Left,2,0.0090,-0.0129,-0.9824,0.1862,0.0107,0.0050,0.0049,-0.2036,0.1448,-0.0984,0.0106,0.0688,9.7173,0.0001,0.0001,0.0001,1.0000,0.0003,0.0017,0.2429
37566726,Pelvis,2,-0.2528,-0.6143,-0.2902,0.6888,0.0018,0.0012,0.0012,0.0222,-0.0161,0.0301,9.7775,0.0849,1.1287,0.0000,0.0000,0.0000,1.0000,0.2444,0.0021,0.0282
37566726,Right,2,-0.0031,0.0016,-0.9986,-0.0532,0.0006,0.0043,0.0079,-0.0144,0.0128,-0.0313,0.0761,-0.0399,9.7811,0.0000,0.0001,0.0001,1.0000,0.0019,-0.0010,0.2445
37566727,Left,2,0.0091,-0.0129,-0.9822,0.1874,0.0104,0.0069,0.0056,-0.2124,0.1614,-0.0991,0.0122,0.0498,9.7172,0.0001,0.0001,0.0001,1.0000,0.0003,0.0012,0.2429
37566727,Pelvis,2,-0.2528,-0.6143,-0.2902,0.6888,0.0024,0.0018,0.0018,-0.0148,-0.0199,0.0027,9.7478,0.0557,1.1486,0.0000,0.0000,0.0000,1.0000,0.2437,0.0014,0.0287
37566727,Right,2,-0.0030,0.0016,-0.9986,-0.0532,0.0006,0.0061,0.0073,0.0072,0.0096,-0.0026,0.0545,-0.0390,9.8098,0.0000,0.0001,0.0001,1.0000,0.0014,-0.0010,0.2452
37566728,Left,2,0.0090,-0.0129,-0.9822,0.1874,0.0103,0.0063,0.0049,-0.1775,0.1420,-0.1074,-0.0110,0.0802,9.7076,0.0001,0.0001,0.0001,1.0000,-0.0003,0.0020,0.2427
37566728,Pelvis,2,-0.2528,-0.6143,-0.2902,0.6888,0.0024,0.0024,0.0018,-0.0076,-0.0139,0.0125,9.7576,0.0650,1.1491,0.0000,0.0000,0.0000,1.0000,0.2439,0.0016,0.0287
37566728,Right,2,-0.0030,0.0016,-0.9986,-0.0532,0.0000,0.0055,0.0073,0.0080,0.0096,-0.0222,0.0536,-0.0390,9.7903,0.0000,0.0001,0.0001,1.0000,0.0014,-0.0010,0.2448
37566729,Left,2,0.0092,-0.0128,-0.9815,0.1906,0.0110,0.0068,0.0049,-0.1975,0.1273,-0.1174,0.0090,0.0858,9.6977,0.0001,0.0001,0.0001,1.0000,0.0002,0.0021,0.2424
37566729,Pelvis,2,-0.2528,-0.6143,-0.2902,0.6889,0.0012,0.0018,0.0024,0.0196,0.0280,0.0046,9.7480,0.1135,1.1589,0.0000,0.0000,0.0000,1.0000,0.2437,0.0028,0.0290
37566729,Right,2,-0.0031,0.0016,-0.9986,-0.0532,-0.0006,0.0043,0.0073,0.0048,-0.0195,-0.0320,0.0538,-0.0098,9.7806,-0.0000,0.0001,0.0001,1.0000,0.0014,-0.0002,0.2445
37566730,Left,2,0.0090,-0.0129,-0.9824,0.1859,0.0107,0.0050,0.0043,-0.2036,0.1483,-0.0888,0.0107,0.0667,9.7269,0.0001,0.0001,0.0001,1.0000,0.0003,0.0016,0.2432
37566730,Pelvis,2,-0.2528,-0.6143,-0.2902,0.6889,0.0024,0.0018,0.0006,0.0120,-0.0208,0.0105,9.7577,0.0738,1.1305,0.0000,0.0000,0.0000,1.0000,0.2439,0.0018,0.0283
37566730,Right,2,-0.0031,0.0016,-0.9986,-0.0532,0.0006,0.0061,0.0086,0.0098,0.0095,-0.0514,0.0520,-0.0391,9.7610,0.0000,0.0001,0.0001,1.0000,0.0013,-0.0010,0.2440
37566731,Left,2,0.0090,-0.0129,-0.9828,0.1841,0.0093,0.0077,0.0049,-0.1920,0.1666,-0.0890,-0.0064,0.0538,9.7269,0.0001,0.0001,0.0001,1.0000,-0.0001,0.0013,0.2432
37566731,Pelvis,2,-0.2528,-0.6143,-0.2901,0.6889,0.0024,0.0012,0.0018,-0.0164,-0.0058,0.0039,9.7476,0.0641,1.1602,0.0000,0.0000,0.0000,1.0000,0.2437,0.0016,0.0290
37566731,Right,2,-0.0031,0.0016,-0.9986,-0.0532,-0.0000,0.0049,0.0067,-0.0072,0.0119,-0.0215,0.0693,-0.0398,9.7909,-0.0000,0.0001,0.0001,1.0000,0.0017,-0.0010,0.2448
37566732,Left,2,0.0089,-0.0129,-0.9832,0.1819,0.0103,0.0063,0.0062,-0.1877,0.1561,-0.0886,-0.0049,0.0654,9.7269,0.0001,0.0001,0.0001,1.0000,-0.0001,0.0016,0.2432
37566732,Pelvis,2,-0.2528,-0.6143,-0.2901,0.6889,0.0031,0.0018,0.0012,-0.0031,-0.0059,0.0030,9.7477,0.0735,1.1507,0.0000,0.0000,0.0000,1.0000,0.2437,0.0018,0.0288
37566732,Right,2,-0.0031,0.0016,-0.9986,-0.0532,0.0006,0.0067,0.0086,-0.0086,-0.0076,-0.0216,0.0686,-0.0202,9.7909,0.0000,0.0001,0.0001,1.0000,0.0017,-0.0005,0.2448
37566733,Left,2,0.0088,-0.0130,-0.9835,0.1803,0.0098,0.0070,0.0049,-0.2023,0.1456,-0.0888,0.0151,0.0709,9.7268,0.0001,0.0001,0.0001,1.0000,0.0004,0.0017,0.2432
37566733,Pelvis,2,-0.2528,-0.6143,-0.2901,0.6889,0.0018,0.0018,0.0012,0.0048,-0.0007,0.0225,9.7672,0.0829,1.1512,0.0000,0.0000,0.0000,1.0000,0.2442,0.0021,0.0288
37566733,Right,2,-0.0031,0.0016,-0.9986,-0.0532,-0.0006,0.0055,0.0079,-0.0076,-0.0077,-0.0313,0.0674,-0.0202,9.7811,-0.0000,0.0001,0.0001,1.0000,0.0017,-0.0005,0.2445
37566734,Left,2,0.0087,-0.0130,-0.9836,0.1797,0.0097,0.0064,0.0062,-0.1986,0.1449,-0.0985,0.0134,0.0733,9.7170,0.0001,0.0001,0.0001,1.0000,0.0004,0.0018,0.2429
37566734,Pelvis,2,-0.2528,-0.6143,-0.2901,0.6889,0.0037,0.0024,0.0024,-0.0037,0.0081,0.0042,9.7476,0.0828,1.1613,0.0000,0.0000,0.0000,1.0000,0.2437,0.0021,0.0290
37566734,Right,2,-0.0030,0.0016,-0.9986,-0.0532,-0.0006,0.0061,0.0079,-0.0020,0.0211,-0.0312,0.0649,-0.0497,9.7811,-0.0000,0.0001,0.0001,1.0000,0.0016,-0.0012,0.2445
37566735,Left,2,0.0085,-0.0132,-0.9860,0.1658,0.0103,0.0063,0.0056,-0.1818,0.1700,-0.0987,-0.0036,0.0604,9.7170,0.0001,0.0001,0.0001,1.0000,-0.0001,0.0015,0.2429
37566735,Pelvis,2,-0.2528,-0.6143,-0.2901,0.6889,0.0018,0.0018,0.0018,0.0026,0.0012,0.0031,9.7476,0.0822,1.1520,0.0000,0.0000,0.0000,1.0000,0.2437,0.0021,0.0288
37566735,Right,2,-0.0030,0.0016,-0.9986,-0.0532,0.0006,0.0067,0.0073,0.0062,0.0002,-0.0316,0.0543,-0.0298,9.7809,0.0000,0.0001,0.0001,1.0000,0.0014,-0.0007,0.2445
37566736,Left,2,0.0086,-0.0131,-0.9839,0.1779,0.0103,0.0063,0.0049,-0.1821,0.1430,-0.0981,0.0011,0.0814,9.7170,0.0001,0.0001,0.0001,1.0000,0.0000,0.0020,0.2429
37566736,Pelvis,2,-0.2528,-0.6143,-0.2901,0.6889,0.0018,0.0006,0.0006,0.0091,0.0081,0.0032,9.7476,0.0918,1.1522,0.0000,0.0000,0.0000,1.0000,0.2437,0.0023,0.0288
37566736,Right,2,-0.0030,0.0016,-0.9986,-0.0532,-0.0006,0.0055,0.0073,0.0048,-0.0193,-0.0317,0.0535,-0.0103,9.7809,-0.0000,0.0001,0.0001,1.0000,0.0014,-0.0003,0.2445
37566737,Left,2,0.0086,-0.0130,-0.9838,0.1784,0.0103,0.0063,0.0056,-0.1996,0.1497,-0.0889,0.0150,0.0683,9.7267,0.0001,0.0001,0.0001,1.0000,0.0004,0.0017,0.2432
37566737,Pelvis,2,-0.2528,-0.6143,-0.2901,0.6889,0.0012,0.0006,0.0012,-0.0117,-0.0131,0.0125,9.7572,0.0622,1.1528,0.0000,0.0000,0.0000,1.0000,0.2439,0.0016,0.0288
37566737,Right,2,-0.0030,0.0016,-0.9986,-0.0532,-0.0000,0.0049,0.0079,-0.0093,0.0124,-0.0407,0.0709,-0.0404,9.7717,-0.0000,0.0001,0.0001,1.0000,0.0018,-0.0010,0.2443
37566738,Left,2,0.0086,-0.0130,-0.9837,0.1792,0.0111,0.0074,0.0043,-0.1968,0.1473,-0.0888,0.0133,0.0709,9.7267,0.0001,0.0001,0.0001,1.0000,0.0004,0.0017,0.2432
37566738,Pelvis,2,-0.2528,-0.6143,-0.2901,0.6889,0.0018,0.0012,0.0024,0.0089,0.0074,0.0129,9.7573,0.0911,1.1527,0.0000,0.0000,0.0000,1.0000,0.2439,0.0023,0.0288
37566738,Right,2,-0.0031,0.0016,-0.9986,-0.0532,0.0006,0.0049,0.0098,-0.0076,0.0122,-0.0309,0.0694,-0.0403,9.7815,0.0000,0.0001,0.0001,1.0000,0.0018,-0.0010,0.2445
37566739,Left,2,0.0085,-0.0129,-0.9834,0.1810,0.0108,0.0056,0.0056,-0.1833,0.1440,-0.0982,0.0024,0.0768,9.7169,0.0001,0.0001,0.0001,1.0000,0.0001,0.0019,0.2429
37566739,Pelvis,2,-0.2528,-0.6143,-0.2901,0.6889,0.0031,0.0018,0.0012,0.0008,0.0015,0.0031,9.7475,0.0810,1.1531,0.0000,0.0000,0.0000,1.0000,0.2437,0.0020,0.0288
37566739,Right,2,-0.0031,0.0017,-0.9986,-0.0532,-0.0006,0.0055,0.0073,0.0103,-0.0101,-0.0317,0.0494,-0.0201,9.7809,-0.0000,0.0001,0.0001,1.0000,0.0013,-0.0005,0.2445
37566740,Left,2,0.0085,-0.0129,-0.9836,0.1799,0.0115,0.0061,0.0049,-0.1897,0.1420,-0.0886,0.0103,0.0763,9.7266,0.0001,0.0001,0.0001,1.0000,0.0003,0.0019,0.2432
37566740,Pelvis,2,-0.2528,-0.6143,-0.2901,0.6889,0.0018,0.0018,0.0012,0.0147,0.0006,0.0119,9.7573,0.0904,1.1437,0.0000,0.0000,0.0000,1.0000,0.2439,0.0023,0.0286
37566740,Right,2,-0.0031,0.0017,-0.9986,-0.0532,-0.0006,0.0055,0.0073,-0.0059,0.0021,-0.0212,0.0669,-0.0307,9.7912,-0.0000,0.0001,0.0001,1.0000,0.0017,-0.0008,0.2448
37566741,Left,2,0.0085,-0.0129,-0.9835,0.1803,0.0105,0.0075,0.0062,-0.1976,0.1500,-0.0792,0.0148,0.0666,9.7364,0.0001,0.0001,0.0001,1.0000,0.0004,0.0016,0.2434
37566741,Pelvis,2,-0.2528,-0.6143,-0.2901,0.6889,0.0012,0.0018,0.0012,-0.0139,0.0019,0.0040,9.7472,0.0709,1.1638,0.0000,0.0000,0.0000,1.0000,0.2437,0.0018,0.0291
37566741,Right,2,-0.0031,0.0017,-0.9986,-0.0532,0.0000,0.0055,0.0073,-0.0052,0.0021,-0.0407,0.0661,-0.0309,9.7717,0.0000,0.0001,0.0001,1.0000,0.0017,-0.0008,0.2443
37566742,Left,2,0.0084,-0.0129,-0.9835,0.1800,0.0111,0.0074,0.0049,-0.1830,0.1480,-0.0984,0.0037,0.0724,9.7168,0.0001,0.0001,0.0001,1.0000,0.0001,0.0018,0.2429
37566742,Pelvis,2,-0.2528,-0.6143,-0.2901,0.6889,0.0024,0.0006,0.0012,0.0010,0.0138,0.0237,9.7669,0.0900,1.1641,0.0000,0.0000,0.0000,1.0000,0.2442,0.0023,0.0291
37566742,Right,2,-0.0031,0.0017,-0.9986,-0.0532,0.0012,0.0055,0.0080,-0.0003,0.0211,-0.0211,0.0634,-0.0502,9.7913,0.0000,0.0001,0.0001,1.0000,0.0016,-0.0013,0.2448
37566743,Left,2,0.0082,-0.0129,-0.9838,0.1787,0.0104,0.0069,0.0056,-0.1876,0.1471,-0.0790,0.0112,0.0719,9.7363,0.0001,0.0001,0.0001,1.0000,0.0003,0.0018,0.2434
37566743,Pelvis,2,-0.2528,-0.6143,-0.2901,0.6889,0.0024,0.0012,0.0012,0.0127,0.0017,0.0022,9.7475,0.0897,1.1446,0.0000,0.0000,0.0000,1.0000,0.2437,0.0022,0.0286
37566743,Right,2,-0.0031,0.0016,-0.9986,-0.0532,0.0012,0.0055,0.0073,-0.0143,-0.0163,-0.0209,0.0734,-0.0113,9.7915,0.0000,0.0001,0.0001,1.0000,0.0019,-0.0003,0.2448
37566744,Left,2,0.0083,-0.0130,-0.9839,0.1782,0.0109,0.0062,0.0049,-0.1961,0.1552,-0.0891,0.0157,0.0621,9.7265,0.0001,0.0001,0.0001,1.0000,0.0004,0.0015,0.2432
37566744,Right,2,-0.0031,0.0016,-0.9986,-0.0532,0.0000,0.0067,0.0079,-0.0097,0.0028,-0.0111,0.0708,-0.0306,9.8013,0.0000,0.0001,0.0001,1.0000,0.0018,-0.0008,0.2450
37566745,Left,2,0.0081,-0.0129,-0.9839,0.1780,0.0093,0.0077,0.0056,-0.1799,0.1641,-0.0988,0.0016,0.0584,9.7168,0.0001,0.0001,0.0001,1.0000,0.0001,0.0014,0.2429
37566745,Pelvis,2,-0.2528,-0.6143,-0.2901,0.6889,0.0018,0.0015,0.0003,-0.0050,-0.0014,0.0030,9.7472,0.0751,1.1550,0.0000,0.0000,0.0000,1.0000,0.4874,0.0038,0.0577
37566745,Right,2,-0.0030,0.0016,-0.9986,-0.0532,0.0000,0.0067,0.0067,0.0124,0.0095,-0.0117,0.0493,-0.0396,9.8008,0.0000,0.0001,0.0001,1.0000,0.0013,-0.0010,0.2450
37566746,Left,2,0.0081,-0.0129,-0.9836,0.1797,0.0116,0.0067,0.0049,-0.1685,0.1322,-0.0783,0.0001,0.0919,9.7363,0.0001,0.0001,0.0001,1.0000,0.0000,0.0023,0.2434
37566746,Pelvis,2,-0.2528,-0.6143,-0.2901,0.6889,0.0018,0.0024,0.0012,0.0114,0.0020,0.0022,9.7473,0.0895,1.1458,0.0000,0.0000,0.0000,1.0000,0.2437,0.0022,0.0286
37566746,Right,2,-0.0028,0.0017,-0.9986,-0.0532,-0.0051,0.0209,0.0036,0.0020,0.0012,-0.0309,0.0566,-0.0309,9.7815,-0.0001,0.0003,0.0000,1.0000,0.0015,-0.0008,0.2445
37566747,Left,2,0.0082,-0.0129,-0.9836,0.1799,0.0106,0.0044,0.0043,-0.1873,0.1591,-0.0793,0.0078,0.0606,9.7363,0.0001,0.0001,0.0001,1.0000,0.0002,0.0015,0.2434
37566747,Pelvis,2,-0.2528,-0.6143,-0.2901,0.6889,0.0024,0.0012,0.0031,0.0177,-0.0049,0.0011,9.7474,0.0889,1.1364,0.0000,0.0000,0.0000,1.0000,0.2437,0.0022,0.0284
37566747,Right,2,-0.0027,0.0018,-0.9986,-0.0535,-0.0074,0.0191,-0.0123,0.0341,0.0063,-0.0222,0.0218,-0.0410,9.7904,-0.0001,0.0002,-0.0002,1.0000,0.0006,-0.0010,0.2448
37566748,Left,2,0.0081,-0.0129,-0.9836,0.1799,0.0096,0.0058,0.0056,-0.1836,0.1577,-0.0890,0.0065,0.0630,9.7265,0.0001,0.0001,0.0001,1.0000,0.0002,0.0015,0.2432
37566748,Pelvis,2,-0.2528,-0.6143,-0.2901,0.6889,0.0018,0.0018,0.0012,0.0106,-0.0262,0.0095,9.7570,0.0687,1.1273,0.0000,0.0000,0.0000,1.0000,0.2439,0.0017,0.0282
37566748,Right,2,-0.0023,0.0020,-0.9983,-0.0579,-0.0216,0.0315,-0.3435,0.6399,0.0552,-0.1704,-0.5802,-0.1598,9.6449,-0.0003,0.0004,-0.0043,1.0000,-0.0144,-0.0039,0.2411
37566749,Left,2,0.0082,-0.0129,-0.9835,0.1803,0.0111,0.0074,0.0062,-0.1744,0.1652,-0.0987,-0.0075,0.0594,9.7167,0.0001,0.0001,0.0001,1.0000,-0.0002,0.0015,0.2429
37566749,Pelvis,2,-0.2528,-0.6143,-0.2901,0.6889,0.0018,0.0012,0.0006,0.0100,0.0022,0.0022,9.7472,0.0884,1.1469,0.0000,0.0000,0.0000,1.0000,0.2437,0.0022,0.0287
37566749,Right,2,-0.0024,0.0019,-0.9982,-0.0593,0.0116,0.0035,-0.1121,-0.6934,-0.0143,0.0819,0.7351,0.0595,9.8914,0.0001,0.0000,-0.0014,1.0000,0.0184,0.0014,0.2473
37566750,Left,2,0.0081,-0.0129,-0.9835,0.1800,0.0103,0.0063,0.0043,-0.1603,0.1644,-0.0789,-0.0184,0.0652,9.7362,0.0001,0.0001,0.0001,1.0000,-0.0004,0.0016,0.2434
37566750,Pelvis,2,-0.2528,-0.6143,-0.2901,0.6888,0.0018,0.0006,0.0000,0.0169,-0.0055,0.0108,9.7570,0.0882,1.1375,0.0000,0.0000,0.0000,1.0000,0.2439,0.0022,0.0284
37566750,Right,2,-0.0025,0.0018,-0.9982,-0.0592,0.0027,-0.0025,0.0196,0.0143,-0.0202,-0.0313,0.0324,-0.0151,9.7813,0.0000,-0.0000,0.0002,1.0000,0.0008,-0.0004,0.2445
37566751,Left,2,0.0082,-0.0128,-0.9835,0.1802,0.0103,0.0063,0.0043,-0.1873,0.1402,-0.0888,0.0141,0.0768,9.7264,0.0001,0.0001,0.0001,1.0000,0.0004,0.0019,0.2432
37566751,Pelvis,2,-0.2528,-0.6143,-0.2901,0.6889,0.0018,0.0037,0.0018,-0.0047,0.0026,0.0031,9.7470,0.0785,1.1576,0.0000,0.0000,0.0000,1.0000,0.2437,0.0020,0.0289
37566751,Right,2,-0.0025,0.0019,-0.9983,-0.0589,-0.0005,0.0043,0.0336,-0.1562,0.2124,-0.0037,0.2303,-0.2259,9.8072,-0.0000,0.0001,0.0004,1.0000,0.0058,-0.0056,0.2452
37566752,Left,2,0.0082,-0.0128,-0.9835,0.1804,0.0102,0.0057,0.0056,-0.1763,0.1577,-0.0987,-0.0029,0.0639,9.7167,0.0001,0.0001,0.0001,1.0000,-0.0001,0.0016,0.2429
37566752,Pelvis,2,-0.2528,-0.6143,-0.2901,0.6889,0.0018,0.0018,0.0012,0.0016,-0.0043,0.0020,9.7470,0.0781,1.1485,0.0000,0.0000,0.0000,1.0000,0.2437,0.0020,0.0287
37566752,Right,2,-0.0029,0.0019,-0.9984,-0.0571,0.0028,-0.0257,0.1478,-0.1776,-0.0707,-0.0150,0.2223,0.0575,9.7969,0.0000,-0.0003,0.0018,1.0000,0.0055,0.0014,0.2449
37566753,Left,2,0.0082,-0.0128,-0.9835,0.1801,0.0104,0.0069,0.0062,-0.1744,0.1463,-0.0789,-0.0013,0.0757,9.7362,0.0001,0.0001,0.0001,1.0000,-0.0000,0.0019,0.2434
37566753,Pelvis,2,-0.2528,-0.6143,-0.2901,0.6889,0.0024,0.0018,0.0018,0.0088,0.0017,0.0119,9.7568,0.0875,1.1489,0.0000,0.0000,0.0000,1.0000,0.2439,0.0022,0.0287
37566753,Right,2,-0.0028,0.0019,-0.9985,-0.0555,-0.0025,0.0129,0.1349,0.3102,0.0146,-0.0319,-0.2497,-0.0828,9.7822,-0.0000,0.0002,0.0017,1.0000,-0.0062,-0.0021,0.2446
37566754,Left,2,0.0083,-0.0128,-0.9835,0.1805,0.0095,0.0052,0.0068,-0.2031,0.1524,-0.0991,0.0218,0.0594,9.7167,0.0001,0.0001,0.0001,1.0000,0.0006,0.0015,0.2429
37566754,Pelvis,2,-0.2528,-0.6143,-0.2901,0.6889,0.0031,0.0012,0.0012,0.0004,-0.0179,0.0008,9.7469,0.0676,1.1396,0.0000,0.0000,0.0000,1.0000,0.2437,0.0017,0.0285
37566754,Right,2,-0.0027,0.0019,-0.9984,-0.0556,-0.0010,0.0116,0.0006,0.0841,0.0188,-0.0529,-0.0265,-0.0619,9.7599,-0.0000,0.0001,0.0000,1.0000,-0.0006,-0.0015,0.2440
37566755,Left,2,0.0081,-0.0128,-0.9835,0.1804,0.0108,0.0056,0.0043,-0.1867,0.1505,-0.0988,0.0113,0.0650,9.7167,0.0001,0.0001,0.0001,1.0000,0.0003,0.0016,0.2429
37566755,Pelvis,2,-0.2528,-0.6143,-0.2901,0.6889,0.0012,0.0012,0.0018,0.0072,0.0027,0.0022,9.7469,0.0870,1.1494,0.0000,0.0000,0.0000,1.0000,0.2437,0.0022,0.0287
37566755,Right,2,-0.0027,0.0019,-0.9985,-0.0551,0.0012,0.0067,0.0476,-0.0364,-0.0126,-0.0194,0.0892,-0.0175,9.7929,0.0000,0.0001,0.0006,1.0000,0.0022,-0.0004,0.2448
37566756,Left,2,0.0081,-0.0127,-0.9834,0.1808,0.0110,0.0068,0.0068,-0.1654,0.1488,-0.0886,-0.0087,0.0740,9.7264,0.0001,0.0001,0.0001,1.0000,-0.0002,0.0018,0.2432
37566756,Pelvis,2,-0.2528,-0.6143,-0.2901,0.6889,0.0012,0.0024,0.0006,-0.0067,0.0168,0.0043,9.7467,0.0869,1.1694,0.0000,0.0000,0.0000,1.0000,0.2437,0.0022,0.0292
37566756,Right,2,-0.0025,0.0020,-0.9986,-0.0526,-0.0090,0.0185,0.2068,0.3570,-0.1012,-0.0150,-0.3132,0.0270,9.7997,-0.0001,0.0002,0.0026,1.0000,-0.0078,0.0007,0.2450
37566757,Left,2,0.0081,-0.0127,-0.9834,0.1811,0.0103,0.0063,0.0031,-0.1716,0.1469,-0.0984,-0.0010,0.0734,9.7166,0.0001,0.0001,0.0000,1.0000,-0.0000,0.0018,0.2429
37566757,Pelvis,2,-0.2528,-0.6143,-0.2901,0.6889,0.0030,0.0012,0.0018,-0.0071,-0.0115,0.0116,9.7564,0.0669,1.1506,0.0000,0.0000,0.0000,1.0000,0.2439,0.0017,0.0288
37566757,Right,2,-0.0016,0.0026,-0.9988,-0.0483,-0.0493,0.0756,0.3546,0.3222,-0.4912,0.0514,-0.3276,0.4132,9.8675,-0.0006,0.0009,0.0044,1.0000,-0.0080,0.0104,0.2467
37566758,Left,2,0.0079,-0.0127,-0.9834,0.1808,0.0105,0.0075,0.0043,-0.1955,0.1336,-0.0986,0.0282,0.0757,9.7166,0.0001,0.0001,0.0001,1.0000,0.0007,0.0019,0.2429
37566758,Pelvis,2,-0.2528,-0.6143,-0.2901,0.6889,0.0024,0.0024,0.0006,-0.0005,-0.0047,0.0117,9.7565,0.0764,1.1510,0.0000,0.0000,0.0000,1.0000,0.2439,0.0019,0.0288
37566758,Right,2,0.0014,0.0019,-0.9992,-0.0406,0.0471,0.2452,0.6245,0.7235,-0.3443,0.1160,-0.7476,0.2348,9.9301,0.0006,0.0031,0.0078,1.0000,-0.0180,0.0056,0.2483
37566759,Left,2,0.0081,-0.0127,-0.9835,0.1804,0.0104,0.0069,0.0043,-0.1773,0.1522,-0.0791,0.0016,0.0662,9.7361,0.0001,0.0001,0.0001,1.0000,0.0001,0.0016,0.2434
37566759,Pelvis,2,-0.2528,-0.6143,-0.2901,0.6889,0.0018,0.0006,0.0012,0.0122,-0.0039,0.0011,9.7468,0.0860,1.1414,0.0000,0.0000,0.0000,1.0000,0.2437,0.0022,0.0285
37566759,Right,2,0.0000,-0.0136,-0.9992,-0.0384,1.2424,-0.0537,0.1854,2.6198,0.3450,1.2143,-2.6056,-0.4214,11.0281,0.0155,-0.0007,0.0023,0.9999,-0.0653,-0.0150,0.2755
37566760,Left,2,0.0080,-0.0126,-0.9835,0.1803,0.0109,0.0062,0.0049,-0.1626,0.1399,-0.0884,-0.0061,0.0811,9.7263,0.0001,0.0001,0.0001,1.0000,-0.0001,0.0020,0.2432
37566760,Pelvis,2,-0.2528,-0.6143,-0.2901,0.6889,0.0024,0.0012,0.0018,0.0049,0.0032,0.0022,9.7467,0.0858,1.1514,0.0000,0.0000,0.0000,1.0000,0.2437,0.0021,0.0288
37566760,Right,2,-0.0156,-0.0248,-0.9986,-0.0432,0.9382,-1.2116,-0.3569,0.0991,-0.2652,5.3389,0.0906,0.8467,15.1312,0.0117,-0.0151,-0.0045,0.9998,-0.0034,0.0167,0.3785
37566761,Left,2,0.0079,-0.0127,-0.9835,0.1801,0.0116,0.0067,0.0049,-0.1886,0.1471,-0.0988,0.0169,0.0651,9.7166,0.0001,0.0001,0.0001,1.0000,0.0004,0.0016,0.2429
37566761,Pelvis,2,-0.2528,-0.6143,-0.2901,0.6889,0.0024,0.0024,0.0012,0.0186,-0.0115,0.0097,9.7566,0.0852,1.1324,0.0000,0.0000,0.0000,1.0000,0.2439,0.0021,0.0283
37566761,Right,2,-0.0287,-0.0278,-0.9982,-0.0454,0.2863,-1.0400,-0.1495,0.5652,0.4934,12.6087,0.4196,0.6803,22.4204,0.0036,-0.0130,-0.0019,0.9999,0.0032,0.0150,0.5606
37566762,Left,2,0.0079,-0.0126,-0.9835,0.1803,0.0107,0.0050,0.0056,-0.1661,0.1443,-0.0886,-0.0030,0.0742,9.7263,0.0001,0.0001,0.0001,1.0000,-0.0001,0.0018,0.2432
37566762,Pelvis,2,-0.2528,-0.6143,-0.2901,0.6889,0.0018,0.0012,0.0012,-0.0024,-0.0043,0.0117,9.7563,0.0754,1.1524,0.0000,0.0000,0.0000,1.0000,0.2439,0.0019,0.0288
37566762,Right,2,-0.0547,-0.0195,-0.9969,-0.0537,-0.5834,-2.1235,-0.5870,0.3728,1.0844,20.0678,2.1550,0.4188,29.8255,-0.0073,-0.0265,-0.0073,0.9996,0.0342,0.0156,0.7466
37566763,Left,2,0.0081,-0.0125,-0.9835,0.1805,0.0093,0.0077,0.0062,-0.1566,0.1416,-0.0981,-0.0138,0.0797,9.7165,0.0001,0.0001,0.0001,1.0000,-0.0003,0.0020,0.2429
37566763,Pelvis,2,-0.2528,-0.6143,-0.2901,0.6889,0.0012,0.0012,0.0006,0.0032,-0.0103,0.0010,9.7466,0.0752,1.1429,0.0000,0.0000,0.0000,1.0000,0.2437,0.0019,0.0286
37566763,Right,2,-0.0818,0.0122,-0.9947,-0.0611,-2.4380,-2.3127,-0.4095,-0.4551,-0.5196,23.9848,4.9680,1.0791,33.4297,-0.0305,-0.0289,-0.0051,0.9991,0.1002,0.0519,0.8375
37566764,Left,2,0.0080,-0.0125,-0.9835,0.1806,0.0115,0.0061,0.0049,-0.1832,0.1386,-0.0888,0.0123,0.0728,9.7263,0.0001,0.0001,0.0001,1.0000,0.0003,0.0018,0.2432
37566764,Pelvis,2,-0.2528,-0.6143,-0.2901,0.6889,0.0018,0.0031,0.0012,0.0028,-0.0102,0.0010,9.7465,0.0750,1.1434,0.0000,0.0000,0.0000,1.0000,0.2437,0.0019,0.0286
37566764,Right,2,-0.1223,0.0644,-0.9884,-0.0623,-3.9733,-3.5186,0.1809,2.1940,-4.7517,20.2821,3.5631,2.5093,30.2565,-0.0496,-0.0439,0.0023,0.9978,0.0556,0.1004,0.7550
37566765,Left,2,0.0077,-0.0125,-0.9836,0.1799,0.0097,0.0064,0.0043,-0.1930,0.1373,-0.0987,0.0292,0.0690,9.7166,0.0001,0.0001,0.0001,1.0000,0.0008,0.0017,0.2429
37566765,Pelvis,2,-0.2528,-0.6143,-0.2901,0.6889,0.0024,0.0000,0.0018,-0.0038,-0.0041,0.0117,9.7562,0.0747,1.1536,0.0000,0.0000,0.0000,1.0000,0.2439,0.0019,0.0288
37566765,Right,2,-0.1718,0.1337,-0.9741,-0.0615,-5.3125,-4.4012,0.4259,7.7140,-7.5478,11.1856,-1.6921,2.4751,23.4478,-0.0663,-0.0549,0.0053,0.9963,-0.0747,0.1001,0.5769
37566766,Left,2,0.0077,-0.0125,-0.9838,0.1786,0.0102,0.0057,0.0062,-0.1529,0.1557,-0.0983,-0.0155,0.0656,9.7166,0.0001,0.0001,0.0001,1.0000,-0.0004,0.0016,0.2429
37566766,Pelvis,2,-0.2528,-0.6143,-0.2901,0.6889,0.0024,0.0012,0.0012,-0.0050,-0.0031,0.0020,9.7464,0.0745,1.1537,0.0000,0.0000,0.0000,1.0000,0.2437,0.0019,0.0288
37566766,Right,2,-0.2087,0.2205,-0.9503,-0.0691,-6.9508,-3.5504,0.0983,8.1744,-8.7980,-1.7625,-4.8898,4.0466,13.0149,-0.0867,-0.0443,0.0012,0.9952,-0.1364,0.1284,0.3091
37566767,Left,2,0.0077,-0.0124,-0.9838,0.1789,0.0096,0.0058,0.0049,-0.1803,0.1324,-0.0984,0.0171,0.0770,9.7166,0.0001,0.0001,0.0001,1.0000,0.0004,0.0019,0.2429
37566767,Pelvis,2,-0.2528,-0.6143,-0.2901,0.6889,0.0018,0.0012,0.0006,-0.0115,0.0031,0.0128,9.7560,0.0744,1.1638,0.0000,0.0000,0.0000,1.0000,0.2439,0.0019,0.0291
37566767,Right,2,-0.2220,0.3145,-0.9190,-0.0852,-7.9114,-1.7700,-0.0533,3.6548,-6.5589,-14.4820,-5.5418,6.7882,1.2664,-0.0987,-0.0221,-0.0007,0.9949,-0.1388,0.1716,0.0117
37566768,Left,2,0.0076,-0.0124,-0.9837,0.1791,0.0102,0.0057,0.0056,-0.1766,0.1495,-0.0888,0.0094,0.0610,9.7264,0.0001,0.0001,0.0001,1.0000,0.0003,0.0015,0.2432
37566768,Pelvis,2,-0.2528,-0.6143,-0.2901,0.6889,0.0006,0.0018,0.0018,0.0009,-0.0099,0.0010,9.7464,0.0740,1.1446,0.0000,0.0000,0.0000,1.0000,0.2437,0.0019,0.0286
37566768,Right,2,-0.2413,0.3890,-0.8837,-0.0974,-6.4626,-2.2528,-0.3013,-0.7791,0.5698,-25.5129,-6.8970,9.1588,-10.7956,-0.0807,-0.0281,-0.0038,0.9963,-0.1636,0.2066,-0.2919
37566769,Left,2,0.0076,-0.0123,-0.9836,0.1799,0.0105,0.0075,0.0049,-0.1535,0.1469,-0.0884,-0.0107,0.0699,9.7263,0.0001,0.0001,0.0001,1.0000,-0.0002,0.0017,0.2432
37566769,Pelvis,2,-0.2528,-0.6143,-0.2901,0.6889,0.0030,0.0006,0.0018,-0.0063,-0.0028,0.0020,9.7463,0.0737,1.1546,0.0000,0.0000,0.0000,1.0000,0.2437,0.0018,0.0289
37566769,Right,2,-0.2967,0.4287,-0.8482,-0.0940,-3.4187,-5.0194,-0.9876,-7.7691,5.5729,-30.7271,-5.2044,13.1575,-18.1554,-0.0427,-0.0627,-0.0123,0.9970,-0.0969,0.3103,-0.4742
37566770,Left,2,0.0075,-0.0121,-0.9835,0.1801,0.0099,0.0076,0.0056,-0.1768,0.1323,-0.0885,0.0183,0.0721,9.7264,0.0001,0.0001,0.0001,1.0000,0.0005,0.0018,0.2432
37566770,Pelvis,2,-0.2528,-0.6143,-0.2901,0.6888,0.0012,0.0018,0.0018,0.0146,0.0030,0.0110,9.7563,0.0926,1.1450,0.0000,0.0000,0.0000,1.0000,0.2439,0.0023,0.0286
37566770,Right,2,-0.3417,0.4439,-0.8250,-0.0741,-1.0188,-4.3993,0.0044,-20.4437,19.6181,-35.8942,-2.5747,14.3646,-35.6577,-0.0127,-0.0550,0.0001,0.9984,-0.0151,0.3477,-0.8977
37566771,Left,2,0.0073,-0.0121,-0.9834,0.1810,0.0103,0.0063,0.0050,-0.1622,0.1493,-0.0886,0.0011,0.0593,9.7264,0.0001,0.0001,0.0001,1.0000,0.0000,0.0014,0.2432
37566771,Pelvis,2,-0.2528,-0.6143,-0.2901,0.6888,0.0024,0.0012,0.0018,-0.0070,0.0111,0.0032,9.7462,0.0828,1.1649,0.0000,0.0000,0.0000,1.0000,0.2437,0.0021,0.0291
37566771,Right,2,-0.3094,0.4140,-0.8539,-0.0618,3.1476,2.6648,1.3169,-28.9149,33.8193,-48.4094,-6.4352,16.4487,-56.2211,0.0393,0.0333,0.0165,0.9985,-0.2145,0.4627,-1.3814
37566772,Left,2,0.0074,-0.0120,-0.9833,0.1812,0.0110,0.0068,0.0056,-0.1512,0.1273,-0.0783,-0.0034,0.0836,9.7360,0.0001,0.0001,0.0001,1.0000,-0.0001,0.0021,0.2434
37566772,Pelvis,2,-0.2528,-0.6143,-0.2901,0.6888,0.0018,0.0018,0.0012,-0.0075,0.0112,0.0032,9.7462,0.0825,1.1653,0.0000,0.0000,0.0000,1.0000,0.2437,0.0021,0.0291
37566772,Right,2,-0.2216,0.3286,-0.9166,-0.0528,7.7285,7.7145,1.7336,-9.1298,11.0279,-53.2505,-15.7040,22.2757,-36.9101,0.0963,0.0961,0.0216,0.9905,-0.4883,0.6297,-0.8200
37566773,Left,2,0.0073,-0.0119,-0.9834,0.1810,0.0093,0.0077,0.0049,-0.1657,0.1338,-0.0786,0.0101,0.0705,9.7362,0.0001,0.0001,0.0001,1.0000,0.0003,0.0017,0.2434
37566773,Pelvis,2,-0.2528,-0.6143,-0.2901,0.6888,0.0018,0.0012,0.0012,0.0052,0.0119,-0.0074,9.7365,0.0919,1.1557,0.0000,0.0000,0.0000,1.0000,0.2434,0.0023,0.0289
37566773,Right,2,-0.1372,0.2201,-0.9651,-0.0364,9.2036,7.1149,1.7168,7.4752,-16.9257,-26.2640,-12.7558,21.2707,-1.4927,0.1146,0.0886,0.0214,0.9892,-0.3282,0.5222,0.0523
37566774,Left,2,0.0007,-0.0034,-0.9833,0.1817,0.0108,0.0056,0.0043,0.0011,-0.0075,-0.0958,-0.0007,0.0759,9.7165,0.0001,0.0001,0.0001,1.0000,-0.0000,0.0019,0.2429
37566774,Pelvis,2,-0.2529,-0.6144,-0.2902,0.6888,0.0018,0.0012,0.0024,-0.0020,0.0042,0.0119,9.7559,0.0816,1.1563,0.0000,0.0000,0.0000,1.0000,0.2439,0.0020,0.0289
37566774,Right,2,-0.0735,0.1038,-0.9918,-0.0103,9.5847,5.1180,1.9591,17.4401,-24.9144,21.2778,-10.6898,12.4632,40.4212,0.1194,0.0638,0.0244,0.9905,-0.2062,0.1814,1.0520
37566775,Left,2,0.0008,-0.0033,-0.9823,0.1870,0.0109,0.0062,0.0056,-0.0074,-0.0215,-0.0958,0.0103,0.0846,9.7165,0.0001,0.0001,0.0001,1.0000,0.0003,0.0021,0.2429
37566775,Pelvis,2,-0.2529,-0.6144,-0.2902,0.6888,0.0018,0.0012,0.0006,0.0116,0.0178,0.0122,9.7561,0.1008,1.1564,0.0000,0.0000,0.0000,1.0000,0.2439,0.0025,0.0289
37566775,Right,2,-0.0452,0.0331,-0.9984,0.0050,5.7352,2.2259,1.0474,11.8831,-8.8680,54.8785,-4.1144,-0.1835,66.3074,0.0716,0.0278,0.0131,0.9970,-0.0557,-0.1242,1.6536
37566776,Left,2,0.0007,-0.0034,-0.9831,0.1833,0.0103,0.0063,0.0050,-0.0144,-0.0027,-0.0762,0.0116,0.0657,9.7362,0.0001,0.0001,0.0001,1.0000,0.0003,0.0016,0.2434
37566776,Pelvis,2,-0.2529,-0.6144,-0.2902,0.6888,0.0018,0.0012,0.0012,-0.0038,-0.0085,0.0010,9.7461,0.0713,1.1472,0.0000,0.0000,0.0000,1.0000,0.2437,0.0018,0.0287
37566776,Right,2,-0.0491,0.0043,-0.9987,0.0089,2.3129,-0.3306,0.2046,3.3175,3.7274,46.6748,1.9393,-5.8335,56.3812,0.0289,-0.0041,0.0026,0.9996,0.0431,-0.1864,1.4047
37566777,Left,2,0.0008,-0.0033,-0.9823,0.1874,0.0091,0.0065,0.0062,-0.0137,0.0036,-0.0860,0.0069,0.0588,9.7265,0.0001,0.0001,0.0001,1.0000,0.0002,0.0014,0.2432
37566777,Pelvis,2,-0.2529,-0.6144,-0.2902,0.6888,0.0031,0.0024,0.0006,-0.0037,-0.0093,0.0107,9.7558,0.0711,1.1477,0.0000,0.0000,0.0000,1.0000,0.2439,0.0018,0.0287
37566777,Right,2,-0.0445,0.0132,-0.9989,0.0081,-0.7104,0.3817,-0.0203,1.4842,5.0410,24.4552,1.6294,-5.6427,34.1679,-0.0089,0.0048,-0.0003,0.9999,0.0448,-0.1335,0.8552
37566778,Left,2,0.0008,-0.0033,-0.9828,0.1847,0.0111,0.0074,0.0056,-0.0195,-0.0170,-0.0957,0.0208,0.0764,9.7167,0.0001,0.0001,0.0001,1.0000,0.0005,0.0019,0.2429
37566778,Pelvis,2,-0.2529,-0.6144,-0.2902,0.6888,0.0006,0.0012,0.0024,-0.0047,-0.0084,0.0010,9.7460,0.0709,1.1480,0.0000,0.0000,0.0000,1.0000,0.2437,0.0018,0.0287
37566778,Right,2,-0.0279,0.0358,-0.9990,-0.0000,-1.8215,1.3557,-0.5467,0.1401,1.0270,4.9291,0.9123,-1.7506,14.6476,-0.0228,0.0169,-0.0068,0.9996,0.0288,-0.0356,0.3666
37566779,Left,2,0.0007,-0.0034,-0.9831,0.1828,0.0096,0.0058,0.0056,-0.0072,-0.0079,-0.0762,0.0067,0.0731,9.7362,0.0001,0.0001,0.0001,1.0000,0.0002,0.0018,0.2434
37566779,Pelvis,2,-0.2529,-0.6144,-0.2901,0.6888,0.0030,0.0006,0.0025,0.0091,0.0190,0.0025,9.7461,0.0997,1.1577,0.0000,0.0000,0.0000,1.0000,0.2437,0.0025,0.0289
37566779,Right,2,-0.0149,0.0467,-0.9987,-0.0113,-0.8974,1.0738,-0.8297,0.3702,-0.8576,-4.2244,-0.1367,0.3909,5.6509,-0.0112,0.0134,-0.0104,0.9998,-0.0014,0.0114,0.1412
