PacketId,Role,StatusWord,Qx,Qy,Qz,Qw,Gx,Gy,Gz,FreeAx,FreeAy,FreeAz,Ax,Ay,Az,DQx,DQy,DQz,DQw,DVx,DVy,DVz
3580607,Left,2,0.0071,-0.0005,-0.9794,0.2018,0.0094,0.0015,0.0033,-0.0880,-0.1058,-0.0924,-0.0101,0.1014,9.7207,0.0001,0.0000,0.0000,1.0000,-0.0002,0.0025,0.2430
3580607,Right,2,0.0071,0.0053,-1.0000,0.0017,0.0038,0.0063,-0.0031,-0.1239,-0.0904,-0.0674,-0.0139,-0.0138,9.7465,0.0000,0.0001,-0.0000,1.0000,-0.0003,-0.0004,0.2437
3580607,Pelvis,2,-0.6709,-0.0191,-0.7409,0.0221,0.0024,0.0012,0.0019,0.0100,-0.0839,-0.0077,9.7564,0.0708,0.9756,0.0000,0.0000,0.0000,1.0000,0.2439,0.0018,0.0244
3580608,Left,2,0.0071,-0.0005,-0.9794,0.2018,0.0083,0.0033,0.0025,-0.0901,-0.0803,-0.0789,-0.0185,0.0769,9.7342,0.0001,0.0000,0.0000,1.0000,-0.0005,0.0019,0.2434
3580608,Right,2,0.0070,0.0053,-1.0000,0.0017,0.0037,0.0046,-0.0017,-0.1348,-0.0813,-0.0374,-0.0034,-0.0230,9.7765,0.0000,0.0001,-0.0000,1.0000,-0.0001,-0.0006,0.2444
3580608,Pelvis,2,-0.6709,-0.0190,-0.7409,0.0220,0.0018,0.0000,0.0013,-0.0084,-0.0722,-0.0089,9.7569,0.0580,0.9579,0.0000,0.0000,0.0000,1.0000,0.2439,0.0015,0.0239
3580609,Left,2,0.0071,-0.0005,-0.9794,0.2018,0.0083,0.0033,0.0025,-0.0885,-0.0893,-0.0857,-0.0166,0.0855,9.7274,0.0001,0.0000,0.0000,1.0000,-0.0004,0.0021,0.2432
3580609,Right,2,0.0070,0.0053,-1.0000,0.0017,0.0023,0.0057,-0.0015,-0.1361,-0.0893,-0.0488,-0.0018,-0.0148,9.7653,0.0000,0.0001,-0.0000,1.0000,-0.0000,-0.0004,0.2441
3580609,Pelvis,2,-0.6709,-0.0190,-0.7409,0.0220,0.0025,0.0018,0.0012,0.0022,-0.0622,0.0003,9.7650,0.0487,0.9699,0.0000,0.0000,0.0000,1.0000,0.2441,0.0012,0.0242
3580610,Left,2,0.0071,-0.0005,-0.9794,0.2018,0.0095,0.0013,0.0014,-0.0779,-0.0822,-0.0808,-0.0292,0.0829,9.7322,0.0001,0.0000,0.0000,1.0000,-0.0007,0.0020,0.2433
3580610,Right,2,0.0070,0.0053,-1.0000,0.0018,0.0029,0.0052,-0.0013,-0.1409,-0.0852,-0.0338,0.0027,-0.0192,9.7803,0.0000,0.0001,-0.0000,1.0000,0.0001,-0.0005,0.2445
3580610,Pelvis,2,-0.6709,-0.0190,-0.7410,0.0220,0.0012,0.0019,0.0018,0.0016,-0.0716,0.0010,9.7658,0.0580,0.9690,0.0000,0.0000,0.0000,1.0000,0.2441,0.0015,0.0242
3580611,Left,2,0.0071,-0.0005,-0.9794,0.2018,0.0108,0.0014,0.0021,-0.0831,-0.0927,-0.0721,-0.0203,0.0907,9.7409,0.0001,0.0000,0.0000,1.0000,-0.0005,0.0022,0.2435
3580611,Right,2,0.0071,0.0054,-1.0000,0.0018,0.0017,0.0062,-0.0023,-0.1381,-0.0951,-0.0365,-0.0001,-0.0094,9.7776,0.0000,0.0001,-0.0000,1.0000,0.0000,-0.0002,0.2444
3580611,Pelvis,2,-0.6709,-0.0190,-0.7410,0.0220,0.0018,0.0013,0.0018,0.0117,-0.0729,-0.0085,9.7554,0.0598,0.9782,0.0000,0.0000,0.0000,1.0000,0.2439,0.0015,0.0245
3580612,Left,2,0.0071,-0.0005,-0.9794,0.2018,0.0089,0.0027,0.0028,-0.0901,-0.0754,-0.0925,-0.0204,0.0719,9.7206,0.0001,0.0000,0.0000,1.0000,-0.0005,0.0018,0.2430
3580612,Right,2,0.0070,0.0054,-1.0000,0.0018,0.0022,0.0046,-0.0007,-0.1336,-0.0822,-0.0460,-0.0045,-0.0224,9.7679,0.0000,0.0001,-0.0000,1.0000,-0.0001,-0.0006,0.2442
3580612,Pelvis,2,-0.6709,-0.0190,-0.7410,0.0220,-0.0000,0.0007,0.0018,0.0136,-0.0525,-0.0003,9.7632,0.0394,0.9820,-0.0000,0.0000,0.0000,1.0000,0.2441,0.0010,0.0245
3580613,Left,2,0.0071,-0.0005,-0.9794,0.2018,0.0102,0.0028,0.0035,-0.0765,-0.0817,-0.0876,-0.0306,0.0830,9.7254,0.0001,0.0000,0.0000,1.0000,-0.0008,0.0020,0.2431
3580613,Right,2,0.0071,0.0054,-1.0000,0.0018,0.0042,0.0077,-0.0026,-0.1436,-0.0927,-0.0538,0.0055,-0.0118,9.7604,0.0001,0.0001,-0.0000,1.0000,0.0002,-0.0003,0.2440
3580613,Pelvis,2,-0.6709,-0.0189,-0.7410,0.0220,0.0012,0.0007,0.0018,-0.0065,-0.0602,0.0000,9.7656,0.0457,0.9615,0.0000,0.0000,0.0000,1.0000,0.2441,0.0011,0.0240
3580614,Left,2,0.0071,-0.0005,-0.9794,0.2018,0.0101,0.0013,0.0015,-0.0842,-0.0928,-0.0925,-0.0190,0.0903,9.7206,0.0001,0.0000,0.0000,1.0000,-0.0005,0.0022,0.2430
3580614,Right,2,0.0071,0.0053,-1.0000,0.0018,0.0039,0.0051,-0.0029,-0.1253,-0.0948,-0.0401,-0.0131,-0.0095,9.7739,0.0000,0.0001,-0.0000,1.0000,-0.0003,-0.0002,0.2443
3580614,Pelvis,2,-0.6709,-0.0189,-0.7410,0.0220,0.0025,0.0025,0.0018,0.0026,-0.0704,0.0010,9.7657,0.0564,0.9702,0.0000,0.0000,0.0000,1.0000,0.2441,0.0014,0.0242
3580615,Left,2,0.0071,-0.0005,-0.9794,0.2018,0.0114,0.0021,0.0039,-0.0979,-0.0770,-0.0974,-0.0125,0.0705,9.7158,0.0001,0.0000,0.0000,1.0000,-0.0003,0.0017,0.2429
3580615,Right,2,0.0071,0.0054,-1.0000,0.0018,0.0021,0.0064,-0.0010,-0.1383,-0.0868,-0.0424,-0.0002,-0.0175,9.7717,0.0000,0.0001,-0.0000,1.0000,0.0000,-0.0004,0.2443
3580615,Pelvis,2,-0.6709,-0.0190,-0.7410,0.0220,0.0025,0.0012,0.0006,-0.0157,-0.0587,-0.0002,9.7663,0.0437,0.9527,0.0000,0.0000,0.0000,1.0000,0.2442,0.0011,0.0238
3580616,Left,2,0.0071,-0.0005,-0.9794,0.2018,0.0097,0.0024,0.0009,-0.1033,-0.0805,-0.0820,-0.0064,0.0718,9.7313,0.0001,0.0000,0.0000,1.0000,-0.0002,0.0018,0.2433
3580616,Right,2,0.0071,0.0054,-1.0000,0.0018,0.0020,0.0061,-0.0035,-0.1328,-0.0894,-0.0337,-0.0060,-0.0152,9.7803,0.0000,0.0001,-0.0000,1.0000,-0.0001,-0.0004,0.2445
3580616,Pelvis,2,-0.6709,-0.0190,-0.7410,0.0220,0.0024,0.0012,0.0019,0.0137,-0.0609,0.0005,9.7640,0.0477,0.9819,0.0000,0.0000,0.0000,1.0000,0.2441,0.0012,0.0245
3580617,Left,2,0.0071,-0.0005,-0.9794,0.2018,0.0102,0.0025,0.0029,-0.0923,-0.0874,-0.0907,-0.0137,0.0825,9.7225,0.0001,0.0000,0.0000,1.0000,-0.0003,0.0020,0.2431
3580617,Right,2,0.0071,0.0054,-1.0000,0.0018,0.0025,0.0056,-0.0027,-0.1402,-0.0926,-0.0301,0.0013,-0.0122,9.7840,0.0000,0.0001,-0.0000,1.0000,0.0000,-0.0003,0.2446
3580617,Pelvis,2,-0.6709,-0.0190,-0.7410,0.0220,0.0018,-0.0000,0.0007,0.0139,-0.0606,0.0005,9.7640,0.0474,0.9821,0.0000,-0.0000,0.0000,1.0000,0.2441,0.0012,0.0246
3580618,Left,2,0.0071,-0.0005,-0.9794,0.2019,0.0099,0.0009,0.0036,-0.0935,-0.0900,-0.1042,-0.0114,0.0844,9.7090,0.0001,0.0000,0.0000,1.0000,-0.0003,0.0021,0.2427
3580618,Right,2,0.0071,0.0054,-1.0000,0.0018,0.0031,0.0057,-0.0026,-0.1214,-0.0884,-0.0373,-0.0175,-0.0163,9.7765,0.0000,0.0001,-0.0000,1.0000,-0.0004,-0.0004,0.2444
3580618,Pelvis,2,-0.6709,-0.0189,-0.7410,0.0219,0.0019,0.0011,-0.0000,0.0037,-0.0699,-0.0087,9.7559,0.0564,0.9704,0.0000,0.0000,-0.0000,1.0000,0.2439,0.0014,0.0243
3580619,Left,2,0.0071,-0.0005,-0.9794,0.2019,0.0110,0.0033,0.0033,-0.0899,-0.0774,-0.0771,-0.0200,0.0745,9.7360,0.0001,0.0000,0.0000,1.0000,-0.0005,0.0018,0.2434
3580619,Right,2,0.0071,0.0054,-1.0000,0.0018,0.0026,0.0044,-0.0025,-0.1411,-0.0858,-0.0596,0.0026,-0.0188,9.7544,0.0000,0.0001,-0.0000,1.0000,0.0001,-0.0005,0.2439
3580619,Pelvis,2,-0.6709,-0.0189,-0.7410,0.0219,0.0025,0.0024,0.0005,0.0038,-0.0697,-0.0087,9.7559,0.0564,0.9708,0.0000,0.0000,0.0000,1.0000,0.2439,0.0014,0.0243
3580620,Left,2,0.0071,-0.0005,-0.9794,0.2019,0.0095,0.0026,0.0029,-0.0885,-0.0794,-0.0771,-0.0207,0.0770,9.7360,0.0001,0.0000,0.0000,1.0000,-0.0005,0.0019,0.2434
3580620,Right,2,0.0071,0.0054,-1.0000,0.0018,0.0038,0.0052,-0.0023,-0.1418,-0.0835,-0.0360,0.0031,-0.0212,9.7781,0.0000,0.0001,-0.0000,1.0000,0.0001,-0.0005,0.2445
3580620,Pelvis,2,-0.6709,-0.0189,-0.7410,0.0219,0.0018,0.0013,0.0018,-0.0242,-0.0570,-0.0101,9.7572,0.0423,0.9437,0.0000,0.0000,0.0000,1.0000,0.2439,0.0011,0.0236
3580621,Left,2,0.0071,-0.0005,-0.9794,0.2019,0.0087,0.0013,0.0027,-0.0864,-0.1024,-0.0975,-0.0131,0.0987,9.7156,0.0001,0.0000,0.0000,1.0000,-0.0003,0.0024,0.2429
3580621,Right,2,0.0071,0.0054,-1.0000,0.0018,0.0024,0.0057,-0.0021,-0.1241,-0.0959,-0.0573,-0.0142,-0.0085,9.7566,0.0000,0.0001,-0.0000,1.0000,-0.0003,-0.0002,0.2439
3580621,Pelvis,2,-0.6709,-0.0189,-0.7410,0.0219,0.0012,0.0019,0.0018,0.0140,-0.0690,0.0013,9.7648,0.0564,0.9821,0.0000,0.0000,0.0000,1.0000,0.2441,0.0014,0.0245
3580622,Left,2,0.0071,-0.0005,-0.9794,0.2019,0.0114,0.0011,0.0016,-0.0814,-0.0824,-0.1061,-0.0253,0.0823,9.7069,0.0001,0.0000,0.0000,1.0000,-0.0006,0.0020,0.2427
3580622,Right,2,0.0071,0.0054,-1.0000,0.0018,0.0016,0.0069,-0.0018,-0.1420,-0.0664,-0.0305,0.0031,-0.0385,9.7834,0.0000,0.0001,-0.0000,1.0000,0.0001,-0.0010,0.2446
3580622,Pelvis,2,-0.6709,-0.0189,-0.7410,0.0219,0.0007,0.0019,0.0011,-0.0139,-0.0572,-0.0099,9.7563,0.0430,0.9542,0.0000,0.0000,0.0000,1.0000,0.2439,0.0011,0.0238
3580623,Left,2,0.0071,-0.0005,-0.9794,0.2019,0.0096,0.0026,0.0029,-0.0961,-0.0880,-0.0888,-0.0097,0.0819,9.7244,0.0001,0.0000,0.0000,1.0000,-0.0002,0.0020,0.2431
3580623,Right,2,0.0071,0.0054,-1.0000,0.0018,0.0027,0.0049,-0.0032,-0.1433,-0.0745,-0.0418,0.0044,-0.0306,9.7721,0.0000,0.0001,-0.0000,1.0000,0.0001,-0.0008,0.2443
3580623,Pelvis,2,-0.6709,-0.0189,-0.7410,0.0219,0.0025,0.0012,0.0006,-0.0154,-0.0763,-0.0083,9.7581,0.0621,0.9518,0.0000,0.0000,0.0000,1.0000,0.2440,0.0016,0.0238
3580624,Left,2,0.0071,-0.0005,-0.9794,0.2019,0.0096,0.0021,0.0017,-0.0921,-0.0895,-0.0752,-0.0131,0.0848,9.7379,0.0001,0.0000,0.0000,1.0000,-0.0003,0.0021,0.2434
3580624,Right,2,0.0071,0.0054,-1.0000,0.0018,0.0035,0.0047,-0.0011,-0.1261,-0.0931,-0.0423,-0.0125,-0.0118,9.7717,0.0000,0.0001,-0.0000,1.0000,-0.0003,-0.0003,0.2443
3580624,Pelvis,2,-0.6709,-0.0189,-0.7410,0.0219,0.0024,0.0006,0.0007,-0.0048,-0.0656,0.0106,9.7759,0.0521,0.9648,0.0000,0.0000,0.0000,1.0000,0.2444,0.0013,0.0241
3580625,Left,2,0.0071,-0.0005,-0.9794,0.2019,0.0095,0.0018,0.0025,-0.0867,-0.0834,-0.0974,-0.0200,0.0812,9.7156,0.0001,0.0000,0.0000,1.0000,-0.0005,0.0020,0.2429
3580625,Right,2,0.0071,0.0054,-1.0000,0.0018,0.0031,0.0063,-0.0026,-0.1262,-0.0846,-0.0395,-0.0124,-0.0203,9.7743,0.0000,0.0001,-0.0000,1.0000,-0.0003,-0.0005,0.2444
3580625,Pelvis,2,-0.6709,-0.0190,-0.7410,0.0219,0.0024,0.0006,0.0013,0.0151,-0.0678,0.0013,9.7647,0.0556,0.9833,0.0000,0.0000,0.0000,1.0000,0.2441,0.0014,0.0246
3580626,Left,2,0.0071,-0.0005,-0.9794,0.2019,0.0095,0.0028,0.0034,-0.0855,-0.0784,-0.0907,-0.0233,0.0770,9.7224,0.0001,0.0000,0.0000,1.0000,-0.0006,0.0019,0.2431
3580626,Right,2,0.0071,0.0054,-1.0000,0.0018,0.0019,0.0055,-0.0028,-0.1397,-0.0829,-0.0209,0.0007,-0.0223,9.7931,0.0000,0.0001,-0.0000,1.0000,0.0000,-0.0006,0.2448
3580626,Pelvis,2,-0.6709,-0.0190,-0.7410,0.0219,0.0018,0.0019,0.0018,-0.0040,-0.0665,-0.0089,9.7564,0.0532,0.9635,0.0000,0.0000,0.0000,1.0000,0.2439,0.0013,0.0241
3580627,Left,2,0.0071,-0.0005,-0.9794,0.2019,0.0095,0.0018,0.0025,-0.0771,-0.0859,-0.1129,-0.0278,0.0870,9.7001,0.0001,0.0000,0.0000,1.0000,-0.0007,0.0021,0.2425
3580627,Right,2,0.0071,0.0054,-1.0000,0.0018,0.0024,0.0069,-0.0028,-0.1390,-0.0939,-0.0560,0.0004,-0.0111,9.7582,0.0000,0.0001,-0.0000,1.0000,0.0000,-0.0003,0.2440
3580627,Pelvis,2,-0.6709,-0.0190,-0.7410,0.0219,0.0031,0.0018,0.0012,-0.0135,-0.0645,0.0006,9.7668,0.0507,0.9551,0.0000,0.0000,0.0000,1.0000,0.2442,0.0013,0.0239
3580628,Left,2,0.0071,-0.0005,-0.9794,0.2019,0.0102,0.0021,0.0018,-0.0855,-0.0759,-0.0974,-0.0242,0.0747,9.7156,0.0001,0.0000,0.0000,1.0000,-0.0006,0.0018,0.2429
3580628,Right,2,0.0071,0.0054,-1.0000,0.0019,0.0010,0.0050,-0.0010,-0.1289,-0.0921,-0.0595,-0.0098,-0.0131,9.7544,0.0000,0.0001,-0.0000,1.0000,-0.0002,-0.0003,0.2439
3580628,Pelvis,2,-0.6709,-0.0189,-0.7410,0.0219,0.0011,0.0008,0.0031,-0.0029,-0.0546,0.0098,9.7748,0.0412,0.9673,0.0000,0.0000,0.0000,1.0000,0.2444,0.0010,0.0242
3580629,Left,2,0.0071,-0.0005,-0.9794,0.2019,0.0095,0.0020,0.0031,-0.0878,-0.0929,-0.0820,-0.0155,0.0894,9.7311,0.0001,0.0000,0.0000,1.0000,-0.0004,0.0022,0.2433
3580629,Right,2,0.0071,0.0054,-1.0000,0.0019,0.0029,0.0052,-0.0013,-0.1434,-0.0748,-0.0591,0.0047,-0.0306,9.7549,0.0000,0.0001,-0.0000,1.0000,0.0001,-0.0008,0.2439
3580629,Pelvis,2,-0.6709,-0.0189,-0.7410,0.0219,0.0031,0.0012,0.0013,-0.0227,-0.0638,-0.0093,9.7578,0.0492,0.9452,0.0000,0.0000,0.0000,1.0000,0.2439,0.0012,0.0236
3580630,Left,2,0.0071,-0.0005,-0.9794,0.2019,0.0097,0.0042,0.0035,-0.0768,-0.0998,-0.0907,-0.0230,0.1000,9.7222,0.0001,0.0001,0.0000,1.0000,-0.0006,0.0025,0.2431
3580630,Right,2,0.0071,0.0054,-1.0000,0.0019,0.0006,0.0066,-0.0032,-0.1396,-0.1004,-0.0437,0.0007,-0.0056,9.7705,0.0000,0.0001,-0.0000,1.0000,0.0000,-0.0001,0.2443
3580630,Pelvis,2,-0.6709,-0.0190,-0.7410,0.0219,0.0025,0.0012,0.0006,-0.0031,-0.0645,0.0009,9.7660,0.0510,0.9656,0.0000,0.0000,0.0000,1.0000,0.2442,0.0013,0.0241
3580631,Left,2,0.0071,-0.0005,-0.9794,0.2019,0.0099,0.0006,0.0031,-0.0880,-0.0834,-0.0820,-0.0194,0.0806,9.7311,0.0001,0.0000,0.0000,1.0000,-0.0005,0.0020,0.2433
3580631,Right,2,0.0071,0.0054,-1.0000,0.0019,0.0042,0.0050,-0.0041,-0.1315,-0.0957,-0.0236,-0.0078,-0.0106,9.7904,0.0001,0.0001,-0.0001,1.0000,-0.0002,-0.0003,0.2448
3580631,Pelvis,2,-0.6709,-0.0189,-0.7410,0.0219,0.0012,0.0001,0.0019,-0.0029,-0.0641,0.0009,9.7660,0.0508,0.9658,0.0000,0.0000,0.0000,1.0000,0.2441,0.0013,0.0241
3580632,Left,2,0.0071,-0.0005,-0.9794,0.2019,0.0090,0.0027,0.0014,-0.0716,-0.0963,-0.0704,-0.0294,0.0988,9.7425,0.0001,0.0000,0.0000,1.0000,-0.0007,0.0024,0.2436
3580632,Right,2,0.0071,0.0054,-1.0000,0.0019,0.0018,0.0056,-0.0022,-0.1440,-0.0813,-0.0468,0.0050,-0.0246,9.7673,0.0000,0.0001,-0.0000,1.0000,0.0001,-0.0006,0.2442
3580632,Pelvis,2,-0.6709,-0.0190,-0.7410,0.0219,0.0025,0.0024,0.0005,-0.0335,-0.0806,0.0018,9.7700,0.0655,0.9345,0.0000,0.0000,0.0000,1.0000,0.2443,0.0016,0.0234
3580633,Left,2,0.0071,-0.0005,-0.9794,0.2019,0.0088,0.0019,0.0025,-0.0788,-0.0719,-0.0838,-0.0323,0.0733,9.7291,0.0001,0.0000,0.0000,1.0000,-0.0008,0.0018,0.2432
3580633,Right,2,0.0071,0.0055,-1.0000,0.0019,0.0021,0.0049,-0.0033,-0.1303,-0.0878,-0.0208,-0.0089,-0.0186,9.7931,0.0000,0.0001,-0.0000,1.0000,-0.0002,-0.0005,0.2448
3580633,Pelvis,2,-0.6709,-0.0190,-0.7410,0.0219,0.0019,0.0012,0.0006,0.0073,-0.0644,0.0011,9.7652,0.0518,0.9761,0.0000,0.0000,0.0000,1.0000,0.2441,0.0013,0.0244
3580634,Left,2,0.0071,-0.0005,-0.9794,0.2019,0.0103,0.0031,0.0027,-0.0958,-0.0851,-0.0869,-0.0115,0.0785,9.7263,0.0001,0.0000,0.0000,1.0000,-0.0003,0.0019,0.2432
3580634,Right,2,0.0071,0.0055,-1.0000,0.0019,0.0025,0.0045,-0.0019,-0.1316,-0.0959,-0.0322,-0.0073,-0.0106,9.7818,0.0000,0.0001,-0.0000,1.0000,-0.0002,-0.0003,0.2445
3580634,Pelvis,2,-0.6709,-0.0190,-0.7410,0.0219,0.0025,0.0018,0.0012,-0.0126,-0.0729,-0.0083,9.7579,0.0593,0.9550,0.0000,0.0000,0.0000,1.0000,0.2439,0.0015,0.0239
3580635,Left,2,0.0071,-0.0005,-0.9794,0.2019,0.0100,0.0012,0.0028,-0.0822,-0.0915,-0.0820,-0.0215,0.0899,9.7310,0.0001,0.0000,0.0000,1.0000,-0.0005,0.0022,0.2433
3580635,Right,2,0.0071,0.0055,-1.0000,0.0019,0.0026,0.0044,-0.0025,-0.1256,-0.0922,-0.0445,-0.0128,-0.0143,9.7695,0.0000,0.0001,-0.0000,1.0000,-0.0003,-0.0004,0.2442
3580635,Pelvis,2,-0.6709,-0.0190,-0.7410,0.0219,0.0025,0.0017,-0.0000,-0.0135,-0.0807,0.0119,9.7781,0.0672,0.9558,0.0000,0.0000,-0.0000,1.0000,0.2445,0.0017,0.0239
3580636,Left,2,0.0071,-0.0005,-0.9794,0.2020,0.0090,0.0030,0.0020,-0.0927,-0.0961,-0.0937,-0.0098,0.0898,9.7195,0.0001,0.0000,0.0000,1.0000,-0.0002,0.0022,0.2430
3580636,Right,2,0.0071,0.0055,-1.0000,0.0019,0.0023,0.0051,-0.0014,-0.1473,-0.0866,-0.0431,0.0091,-0.0200,9.7710,0.0000,0.0001,-0.0000,1.0000,0.0002,-0.0005,0.2443
3580636,Pelvis,2,-0.6709,-0.0190,-0.7410,0.0219,0.0018,0.0019,0.0018,0.0074,-0.0741,-0.0079,9.7563,0.0619,0.9751,0.0000,0.0000,0.0000,1.0000,0.2439,0.0016,0.0244
3580637,Left,2,0.0071,-0.0005,-0.9794,0.2019,0.0097,0.0027,0.0015,-0.0852,-0.0755,-0.0887,-0.0251,0.0738,9.7243,0.0001,0.0000,0.0000,1.0000,-0.0006,0.0018,0.2431
3580637,Right,2,0.0071,0.0055,-1.0000,0.0019,0.0019,0.0062,-0.0029,-0.1346,-0.0775,-0.0353,-0.0038,-0.0293,9.7786,0.0000,0.0001,-0.0000,1.0000,-0.0001,-0.0007,0.2445
3580637,Pelvis,2,-0.6709,-0.0190,-0.7410,0.0219,0.0018,0.0012,0.0012,-0.0022,-0.0722,0.0016,9.7667,0.0593,0.9667,0.0000,0.0000,0.0000,1.0000,0.2442,0.0015,0.0242
3580638,Left,2,0.0071,-0.0005,-0.9794,0.2020,0.0107,0.0014,0.0035,-0.0836,-0.0845,-0.0955,-0.0229,0.0828,9.7175,0.0001,0.0000,0.0000,1.0000,-0.0006,0.0020,0.2429
3580638,Right,2,0.0071,0.0055,-1.0000,0.0019,0.0024,0.0051,-0.0020,-0.1272,-0.0831,-0.0503,-0.0111,-0.0238,9.7635,0.0000,0.0001,-0.0000,1.0000,-0.0003,-0.0006,0.2441
3580638,Pelvis,2,-0.6709,-0.0190,-0.7410,0.0219,0.0024,-0.0001,0.0007,-0.0110,-0.0614,0.0007,9.7665,0.0481,0.9586,0.0000,-0.0000,0.0000,1.0000,0.2442,0.0012,0.0240
3580639,Left,2,0.0071,-0.0005,-0.9794,0.2020,0.0094,0.0010,0.0022,-0.0863,-0.0875,-0.0665,-0.0194,0.0847,9.7465,0.0001,0.0000,0.0000,1.0000,-0.0005,0.0021,0.2437
3580639,Right,2,0.0071,0.0055,-1.0000,0.0019,0.0018,0.0068,-0.0030,-0.1547,-0.0985,-0.0509,0.0164,-0.0086,9.7635,0.0000,0.0001,-0.0000,1.0000,0.0004,-0.0002,0.2441
3580639,Pelvis,2,-0.6709,-0.0190,-0.7410,0.0219,0.0018,0.0006,0.0013,-0.0010,-0.0619,0.0009,9.7657,0.0493,0.9683,0.0000,0.0000,0.0000,1.0000,0.2441,0.0012,0.0242
3580640,Left,2,0.0071,-0.0005,-0.9794,0.2020,0.0094,0.0015,0.0033,-0.0877,-0.0830,-0.0733,-0.0196,0.0799,9.7398,0.0001,0.0000,0.0000,1.0000,-0.0005,0.0020,0.2435
3580640,Right,2,0.0071,0.0055,-1.0000,0.0019,0.0035,0.0065,-0.0019,-0.1280,-0.0723,-0.0239,-0.0111,-0.0350,9.7899,0.0000,0.0001,-0.0000,1.0000,-0.0003,-0.0009,0.2447
3580640,Pelvis,2,-0.6709,-0.0190,-0.7410,0.0219,0.0007,0.0024,-0.0001,-0.0025,-0.0810,0.0024,9.7676,0.0685,0.9660,0.0000,0.0000,-0.0000,1.0000,0.2442,0.0017,0.0241
3580641,Left,2,0.0071,-0.0005,-0.9794,0.2020,0.0101,0.0015,0.0020,-0.0915,-0.0860,-0.1004,-0.0144,0.0810,9.7128,0.0001,0.0000,0.0000,1.0000,-0.0004,0.0020,0.2428
3580641,Right,2,0.0071,0.0055,-1.0000,0.0019,0.0026,0.0050,-0.0026,-0.1406,-0.0901,-0.0430,0.0018,-0.0170,9.7711,0.0000,0.0001,-0.0000,1.0000,0.0001,-0.0004,0.2443
3580641,Pelvis,2,-0.6709,-0.0190,-0.7410,0.0219,0.0018,0.0012,0.0012,-0.0102,-0.0604,0.0007,9.7664,0.0477,0.9595,0.0000,0.0000,0.0000,1.0000,0.2442,0.0012,0.0240
3580642,Left,2,0.0070,-0.0005,-0.9794,0.2020,0.0087,0.0011,0.0021,-0.0876,-0.0805,-0.0800,-0.0201,0.0774,9.7331,0.0001,0.0000,0.0000,1.0000,-0.0005,0.0019,0.2433
3580642,Right,2,0.0071,0.0055,-1.0000,0.0019,0.0027,0.0059,-0.0008,-0.1335,-0.0699,-0.0411,-0.0053,-0.0373,9.7727,0.0000,0.0001,-0.0000,1.0000,-0.0001,-0.0009,0.2443
3580642,Pelvis,2,-0.6709,-0.0190,-0.7410,0.0218,0.0019,0.0011,-0.0000,-0.0196,-0.0593,0.0005,9.7671,0.0461,0.9501,0.0000,0.0000,-0.0000,1.0000,0.2442,0.0012,0.0237
3580643,Left,2,0.0070,-0.0005,-0.9794,0.2020,0.0102,0.0023,0.0024,-0.1019,-0.1002,-0.0763,0.0008,0.0898,9.7370,0.0001,0.0000,0.0000,1.0000,0.0000,0.0022,0.2434
3580643,Right,2,0.0071,0.0055,-1.0000,0.0019,0.0026,0.0050,-0.0026,-0.1451,-0.1033,-0.0422,0.0065,-0.0040,9.7721,0.0000,0.0001,-0.0000,1.0000,0.0002,-0.0001,0.2443
3580643,Pelvis,2,-0.6709,-0.0190,-0.7410,0.0218,0.0006,0.0013,0.0012,-0.0008,-0.0696,0.0114,9.7762,0.0577,0.9692,0.0000,0.0000,0.0000,1.0000,0.2444,0.0014,0.0242
3580644,Left,2,0.0070,-0.0005,-0.9794,0.2020,0.0100,0.0017,0.0040,-0.0878,-0.0710,-0.0799,-0.0236,0.0686,9.7331,0.0001,0.0000,0.0000,1.0000,-0.0006,0.0017,0.2433
3580644,Right,2,0.0071,0.0055,-1.0000,0.0019,0.0031,0.0039,-0.0017,-0.1191,-0.0873,-0.0502,-0.0193,-0.0198,9.7635,0.0000,0.0000,-0.0000,1.0000,-0.0005,-0.0005,0.2441
3580644,Pelvis,2,-0.6709,-0.0190,-0.7410,0.0219,0.0025,0.0019,0.0018,0.0095,-0.0718,-0.0079,9.7561,0.0604,0.9775,0.0000,0.0000,0.0000,1.0000,0.2439,0.0015,0.0244
3580645,Left,2,0.0070,-0.0005,-0.9794,0.2020,0.0091,0.0035,0.0018,-0.0955,-0.0821,-0.0849,-0.0121,0.0757,9.7283,0.0001,0.0000,0.0000,1.0000,-0.0003,0.0019,0.2432
3580645,Right,2,0.0071,0.0055,-1.0000,0.0019,0.0028,0.0064,-0.0015,-0.1362,-0.0774,-0.0611,-0.0020,-0.0297,9.7528,0.0000,0.0001,-0.0000,1.0000,-0.0000,-0.0008,0.2438
3580645,Pelvis,2,-0.6709,-0.0190,-0.7410,0.0219,0.0018,0.0000,0.0013,-0.0179,-0.0479,0.0094,9.7758,0.0349,0.9533,0.0000,0.0000,0.0000,1.0000,0.2444,0.0009,0.0238
3580646,Left,2,0.0070,-0.0005,-0.9794,0.2020,0.0109,0.0020,0.0019,-0.0847,-0.0820,-0.0868,-0.0222,0.0799,9.7263,0.0001,0.0000,0.0000,1.0000,-0.0005,0.0020,0.2432
3580646,Right,2,0.0071,0.0055,-1.0000,0.0020,0.0016,0.0069,-0.0018,-0.1414,-0.0796,-0.0252,0.0025,-0.0281,9.7888,0.0000,0.0001,-0.0000,1.0000,0.0001,-0.0007,0.2447
3580646,Pelvis,2,-0.6709,-0.0190,-0.7410,0.0218,0.0017,-0.0005,0.0026,0.0011,-0.0606,-0.0088,9.7559,0.0486,0.9694,0.0000,-0.0000,0.0000,1.0000,0.2439,0.0012,0.0242
3580647,Left,2,0.0071,-0.0005,-0.9794,0.2020,0.0109,0.0025,0.0030,-0.0925,-0.0931,-0.0917,-0.0107,0.0872,9.7215,0.0001,0.0000,0.0000,1.0000,-0.0003,0.0021,0.2430
3580647,Right,2,0.0071,0.0055,-1.0000,0.0020,0.0031,0.0057,-0.0026,-0.1329,-0.1007,-0.0221,-0.0061,-0.0071,9.7920,0.0000,0.0001,-0.0000,1.0000,-0.0001,-0.0002,0.2448
3580647,Pelvis,2,-0.6709,-0.0190,-0.7410,0.0218,0.0025,0.0012,0.0006,-0.0111,-0.0886,-0.0067,9.7594,0.0757,0.9557,0.0000,0.0000,0.0000,1.0000,0.2440,0.0019,0.0239
3580648,Left,2,0.0070,-0.0005,-0.9794,0.2020,0.0088,0.0019,0.0025,-0.0886,-0.0876,-0.0713,-0.0167,0.0838,9.7418,0.0001,0.0000,0.0000,1.0000,-0.0004,0.0021,0.2435
3580648,Right,2,0.0071,0.0055,-1.0000,0.0020,0.0027,0.0059,-0.0008,-0.1239,-0.0833,-0.0438,-0.0150,-0.0242,9.7700,0.0000,0.0001,-0.0000,1.0000,-0.0004,-0.0006,0.2442
3580648,Pelvis,2,-0.6709,-0.0189,-0.7410,0.0218,0.0006,0.0013,0.0012,0.0216,-0.0506,0.0103,9.7728,0.0397,0.9921,0.0000,0.0000,0.0000,1.0000,0.2443,0.0010,0.0248
3580649,Left,2,0.0070,-0.0005,-0.9794,0.2020,0.0095,0.0018,0.0025,-0.0767,-0.0728,-0.1021,-0.0329,0.0747,9.7108,0.0001,0.0000,0.0000,1.0000,-0.0008,0.0018,0.2428
3580649,Right,2,0.0071,0.0055,-1.0000,0.0020,0.0039,0.0051,-0.0029,-0.1436,-0.0807,-0.0661,0.0051,-0.0265,9.7480,0.0000,0.0001,-0.0000,1.0000,0.0001,-0.0007,0.2437
3580649,Pelvis,2,-0.6709,-0.0189,-0.7410,0.0218,0.0006,0.0007,0.0018,0.0026,-0.0501,-0.0096,9.7549,0.0381,0.9713,0.0000,0.0000,0.0000,1.0000,0.2439,0.0010,0.0243
3580650,Left,2,0.0070,-0.0005,-0.9794,0.2020,0.0089,0.0029,0.0034,-0.0699,-0.0809,-0.0819,-0.0363,0.0847,9.7310,0.0001,0.0000,0.0000,1.0000,-0.0009,0.0021,0.2433
3580650,Right,2,0.0071,0.0055,-1.0000,0.0020,0.0025,0.0062,-0.0028,-0.1345,-0.0916,-0.0279,-0.0046,-0.0159,9.7861,0.0000,0.0001,-0.0000,1.0000,-0.0001,-0.0004,0.2447
3580650,Pelvis,2,-0.6709,-0.0189,-0.7410,0.0218,0.0030,0.0012,0.0019,-0.0107,-0.0862,0.0127,9.7787,0.0732,0.9583,0.0000,0.0000,0.0000,1.0000,0.2445,0.0018,0.0240
3580651,Left,2,0.0070,-0.0005,-0.9794,0.2020,0.0089,0.0022,0.0017,-0.0898,-0.0875,-0.0916,-0.0154,0.0827,9.7215,0.0001,0.0000,0.0000,1.0000,-0.0004,0.0020,0.2430
3580651,Right,2,0.0071,0.0055,-1.0000,0.0020,0.0024,0.0057,-0.0021,-0.1327,-0.0859,-0.0488,-0.0063,-0.0214,9.7652,0.0000,0.0001,-0.0000,1.0000,-0.0001,-0.0005,0.2441
3580651,Pelvis,2,-0.6709,-0.0189,-0.7410,0.0218,0.0025,0.0019,0.0018,0.0012,-0.0681,0.0017,9.7664,0.0558,0.9701,0.0000,0.0000,0.0000,1.0000,0.2442,0.0014,0.0242
3580652,Left,2,0.0071,-0.0005,-0.9794,0.2020,0.0103,0.0029,0.0021,-0.0914,-0.0760,-0.0915,-0.0186,0.0714,9.7216,0.0001,0.0000,0.0000,1.0000,-0.0005,0.0018,0.2430
3580652,Right,2,0.0071,0.0055,-1.0000,0.0020,0.0024,0.0051,-0.0020,-0.1241,-0.0749,-0.0496,-0.0149,-0.0325,9.7641,0.0000,0.0001,-0.0000,1.0000,-0.0004,-0.0008,0.2441
3580652,Pelvis,2,-0.6709,-0.0189,-0.7410,0.0218,0.0030,0.0019,0.0024,-0.0084,-0.0661,0.0112,9.7768,0.0531,0.9618,0.0000,0.0000,0.0000,1.0000,0.2444,0.0013,0.0240
3580653,Left,2,0.0070,-0.0005,-0.9794,0.2020,0.0093,0.0004,0.0024,-0.1057,-0.0957,-0.0878,0.0024,0.0838,9.7255,0.0001,0.0000,0.0000,1.0000,0.0001,0.0021,0.2431
3580653,Right,2,0.0071,0.0055,-1.0000,0.0020,0.0036,0.0058,-0.0018,-0.1392,-0.0962,-0.0243,-0.0001,-0.0116,9.7899,0.0000,0.0001,-0.0000,1.0000,0.0000,-0.0003,0.2447
3580653,Pelvis,2,-0.6709,-0.0189,-0.7410,0.0219,0.0011,-0.0005,0.0019,-0.0185,-0.0754,0.0020,9.7687,0.0616,0.9501,0.0000,-0.0000,0.0000,1.0000,0.2442,0.0015,0.0238
3580654,Left,2,0.0070,-0.0005,-0.9794,0.2020,0.0094,0.0015,0.0033,-0.0705,-0.1044,-0.0801,-0.0262,0.1057,9.7328,0.0001,0.0000,0.0000,1.0000,-0.0007,0.0026,0.2433
3580654,Right,2,0.0071,0.0055,-1.0000,0.0020,0.0021,0.0064,-0.0010,-0.1378,-0.0969,-0.0242,-0.0016,-0.0109,9.7899,0.0000,0.0001,-0.0000,1.0000,-0.0000,-0.0003,0.2447
3580654,Pelvis,2,-0.6709,-0.0189,-0.7410,0.0219,0.0019,0.0031,0.0011,-0.0077,-0.0663,0.0015,9.7670,0.0531,0.9614,0.0000,0.0000,0.0000,1.0000,0.2442,0.0013,0.0240
3580655,Left,2,0.0070,-0.0005,-0.9794,0.2020,0.0090,0.0025,0.0009,-0.0684,-0.0778,-0.0953,-0.0385,0.0819,9.7175,0.0001,0.0000,0.0000,1.0000,-0.0010,0.0020,0.2429
3580655,Right,2,0.0071,0.0055,-1.0000,0.0020,0.0040,0.0060,-0.0011,-0.1205,-0.0834,-0.0287,-0.0190,-0.0242,9.7850,0.0001,0.0001,-0.0000,1.0000,-0.0005,-0.0006,0.2446
3580655,Pelvis,2,-0.6709,-0.0189,-0.7410,0.0218,-0.0000,0.0000,0.0006,-0.0064,-0.0570,-0.0090,9.7564,0.0441,0.9623,-0.0000,0.0000,0.0000,1.0000,0.2439,0.0011,0.0241
3580656,Left,2,0.0070,-0.0004,-0.9794,0.2020,0.0090,0.0027,0.0014,-0.0979,-0.0795,-0.0963,-0.0108,0.0716,9.7169,0.0001,0.0000,0.0000,1.0000,-0.0003,0.0018,0.2429
3580656,Right,2,0.0071,0.0055,-1.0000,0.0020,0.0021,0.0049,-0.0033,-0.1408,-0.0871,-0.0301,0.0012,-0.0205,9.7840,0.0000,0.0001,-0.0000,1.0000,0.0000,-0.0005,0.2446
3580656,Pelvis,2,-0.6709,-0.0189,-0.7410,0.0218,0.0018,0.0014,0.0030,-0.0178,-0.0744,0.0021,9.7687,0.0607,0.9510,0.0000,0.0000,0.0000,1.0000,0.2442,0.0015,0.0238
3580657,Left,2,0.0070,-0.0004,-0.9794,0.2020,0.0096,0.0026,0.0029,-0.0843,-0.0860,-0.0915,-0.0210,0.0828,9.7215,0.0001,0.0000,0.0000,1.0000,-0.0005,0.0020,0.2430
3580657,Right,2,0.0071,0.0055,-1.0000,0.0020,0.0024,0.0057,-0.0021,-0.1375,-0.0907,-0.0537,-0.0016,-0.0168,9.7603,0.0000,0.0001,-0.0000,1.0000,-0.0000,-0.0004,0.2440
3580657,Pelvis,2,-0.6709,-0.0189,-0.7410,0.0218,0.0018,0.0019,0.0018,-0.0059,-0.0564,-0.0090,9.7563,0.0431,0.9628,0.0000,0.0000,0.0000,1.0000,0.2439,0.0011,0.0241
3580658,Left,2,0.0070,-0.0004,-0.9794,0.2020,0.0095,0.0020,0.0031,-0.0613,-0.0903,-0.0886,-0.0404,0.0958,9.7241,0.0001,0.0000,0.0000,1.0000,-0.0010,0.0024,0.2431
3580658,Right,2,0.0071,0.0055,-1.0000,0.0020,0.0025,0.0056,-0.0027,-0.1248,-0.0816,-0.0459,-0.0145,-0.0260,9.7679,0.0000,0.0001,-0.0000,1.0000,-0.0003,-0.0007,0.2442
3580658,Pelvis,2,-0.6709,-0.0189,-0.7410,0.0218,0.0024,-0.0006,0.0014,0.0137,-0.0571,0.0011,9.7645,0.0448,0.9831,0.0000,-0.0000,0.0000,1.0000,0.2441,0.0011,0.0246
3580659,Left,2,0.0070,-0.0004,-0.9794,0.2020,0.0087,0.0011,0.0021,-0.1000,-0.0941,-0.0877,-0.0031,0.0838,9.7256,0.0001,0.0000,0.0000,1.0000,-0.0001,0.0021,0.2431
3580659,Right,2,0.0071,0.0055,-1.0000,0.0021,0.0031,0.0045,-0.0018,-0.1491,-0.0834,-0.0559,0.0101,-0.0242,9.7582,0.0000,0.0001,-0.0000,1.0000,0.0003,-0.0006,0.2440
3580659,Pelvis,2,-0.6709,-0.0189,-0.7410,0.0218,0.0024,0.0006,0.0019,-0.0046,-0.0453,-0.0001,9.7651,0.0320,0.9652,0.0000,0.0000,0.0000,1.0000,0.2441,0.0008,0.0241
3580660,Left,2,0.0070,-0.0004,-0.9794,0.2020,0.0082,0.0022,0.0030,-0.0961,-0.0887,-0.0673,-0.0090,0.0801,9.7459,0.0001,0.0000,0.0000,1.0000,-0.0002,0.0020,0.2436
3580660,Right,2,0.0071,0.0055,-1.0000,0.0021,0.0027,0.0059,-0.0008,-0.1395,-0.0880,-0.0386,0.0003,-0.0198,9.7754,0.0000,0.0001,-0.0000,1.0000,0.0000,-0.0005,0.2444
3580660,Pelvis,2,-0.6709,-0.0189,-0.7410,0.0218,0.0025,0.0011,0.0000,-0.0256,-0.0618,0.0108,9.7781,0.0474,0.9443,0.0000,0.0000,0.0000,1.0000,0.2445,0.0012,0.0236
3580661,Left,2,0.0070,-0.0004,-0.9793,0.2021,0.0116,0.0022,0.0025,-0.0662,-0.1053,-0.0936,-0.0296,0.1071,9.7192,0.0001,0.0000,0.0000,1.0000,-0.0007,0.0026,0.2430
3580661,Right,2,0.0071,0.0055,-1.0000,0.0021,0.0019,0.0062,-0.0029,-0.1340,-0.0906,-0.0300,-0.0054,-0.0174,9.7840,0.0000,0.0001,-0.0000,1.0000,-0.0001,-0.0004,0.2446
3580661,Pelvis,2,-0.6709,-0.0189,-0.7410,0.0218,0.0001,0.0019,0.0005,0.0039,-0.0650,0.0017,9.7661,0.0525,0.9727,0.0000,0.0000,0.0000,1.0000,0.2442,0.0013,0.0243
3580662,Left,2,0.0070,-0.0004,-0.9793,0.2021,0.0092,0.0046,0.0027,-0.0773,-0.0889,-0.0847,-0.0263,0.0878,9.7283,0.0001,0.0001,0.0000,1.0000,-0.0006,0.0022,0.2432
3580662,Right,2,0.0071,0.0055,-1.0000,0.0021,0.0029,0.0082,-0.0029,-0.1224,-0.0981,-0.0364,-0.0173,-0.0099,9.7775,0.0000,0.0001,-0.0000,1.0000,-0.0004,-0.0003,0.2444
3580662,Pelvis,2,-0.6709,-0.0189,-0.7410,0.0218,0.0012,0.0013,0.0018,0.0033,-0.0743,0.0025,9.7670,0.0618,0.9717,0.0000,0.0000,0.0000,1.0000,0.2442,0.0016,0.0243
3580663,Left,2,0.0070,-0.0004,-0.9794,0.2020,0.0102,0.0012,0.0015,-0.1069,-0.0837,-0.0788,-0.0015,0.0713,9.7345,0.0001,0.0000,0.0000,1.0000,-0.0000,0.0018,0.2434
3580663,Right,2,0.0071,0.0055,-1.0000,0.0021,0.0029,0.0058,-0.0014,-0.1483,-0.0907,-0.0436,0.0083,-0.0174,9.7706,0.0000,0.0001,-0.0000,1.0000,0.0002,-0.0004,0.2443
3580663,Pelvis,2,-0.6709,-0.0189,-0.7410,0.0218,0.0018,0.0006,0.0013,-0.0150,-0.0634,-0.0084,9.7579,0.0498,0.9532,0.0000,0.0000,0.0000,1.0000,0.2439,0.0012,0.0238
3580664,Left,2,0.0070,-0.0004,-0.9793,0.2021,0.0093,0.0009,0.0036,-0.0961,-0.0836,-0.0808,-0.0111,0.0755,9.7325,0.0001,0.0000,0.0000,1.0000,-0.0003,0.0019,0.2433
3580664,Right,2,0.0071,0.0055,-1.0000,0.0021,0.0034,0.0056,-0.0037,-0.1397,-0.0796,-0.0444,-0.0003,-0.0283,9.7695,0.0000,0.0001,-0.0000,1.0000,0.0000,-0.0007,0.2442
3580664,Pelvis,2,-0.6709,-0.0189,-0.7410,0.0218,0.0007,0.0018,0.0005,0.0049,-0.0657,-0.0178,9.7467,0.0533,0.9719,0.0000,0.0000,0.0000,1.0000,0.2437,0.0013,0.0243
3580665,Left,2,0.0070,-0.0004,-0.9793,0.2021,0.0102,0.0028,0.0035,-0.0908,-0.0774,-0.1029,-0.0180,0.0718,9.7102,0.0001,0.0000,0.0000,1.0000,-0.0004,0.0018,0.2428
3580665,Right,2,0.0071,0.0055,-1.0000,0.0021,0.0018,0.0050,-0.0021,-0.1282,-0.0871,-0.0508,-0.0117,-0.0208,9.7630,0.0000,0.0001,-0.0000,1.0000,-0.0003,-0.0005,0.2441
3580665,Pelvis,2,-0.6709,-0.0189,-0.7410,0.0218,-0.0000,0.0001,0.0012,0.0154,-0.0542,0.0109,9.7740,0.0425,0.9857,-0.0000,0.0000,0.0000,1.0000,0.2444,0.0011,0.0246
3580666,Left,2,0.0070,-0.0004,-0.9793,0.2021,0.0094,0.0017,0.0039,-0.0998,-0.0962,-0.0722,-0.0028,0.0856,9.7411,0.0001,0.0000,0.0000,1.0000,-0.0001,0.0021,0.2435
3580666,Right,2,0.0071,0.0055,-1.0000,0.0021,0.0039,0.0051,-0.0029,-0.1556,-0.1026,-0.0513,0.0159,-0.0054,9.7631,0.0000,0.0001,-0.0000,1.0000,0.0004,-0.0001,0.2441
3580666,Pelvis,2,-0.6709,-0.0189,-0.7410,0.0218,0.0031,0.0018,0.0012,-0.0045,-0.0633,-0.0082,9.7571,0.0506,0.9636,0.0000,0.0000,0.0000,1.0000,0.2439,0.0013,0.0241
3580667,Left,2,0.0070,-0.0004,-0.9793,0.2021,0.0102,0.0023,0.0024,-0.0911,-0.0609,-0.0959,-0.0243,0.0565,9.7172,0.0001,0.0000,0.0000,1.0000,-0.0006,0.0014,0.2429
3580667,Right,2,0.0071,0.0055,-1.0000,0.0021,0.0028,0.0064,-0.0015,-0.1187,-0.0831,-0.0308,-0.0215,-0.0249,9.7829,0.0000,0.0001,-0.0000,1.0000,-0.0005,-0.0006,0.2446
3580667,Pelvis,2,-0.6709,-0.0189,-0.7410,0.0218,0.0025,0.0012,0.0012,-0.0043,-0.0622,0.0015,9.7667,0.0496,0.9648,0.0000,0.0000,0.0000,1.0000,0.2442,0.0012,0.0241
3580668,Left,2,0.0070,-0.0004,-0.9793,0.2021,0.0096,0.0019,0.0012,-0.0895,-0.0699,-0.1027,-0.0221,0.0654,9.7104,0.0001,0.0000,0.0000,1.0000,-0.0005,0.0016,0.2428
3580668,Right,2,0.0072,0.0055,-1.0000,0.0021,0.0044,0.0064,-0.0030,-0.1241,-0.0892,-0.0508,-0.0159,-0.0184,9.7630,0.0001,0.0001,-0.0000,1.0000,-0.0004,-0.0005,0.2441
3580668,Pelvis,2,-0.6709,-0.0189,-0.7410,0.0218,0.0025,0.0030,0.0011,0.0058,-0.0636,-0.0080,9.7562,0.0516,0.9741,0.0000,0.0000,0.0000,1.0000,0.2439,0.0013,0.0243
3580669,Left,2,0.0070,-0.0004,-0.9793,0.2021,0.0095,0.0020,0.0031,-0.0916,-0.0940,-0.0943,-0.0107,0.0866,9.7189,0.0001,0.0000,0.0000,1.0000,-0.0003,0.0021,0.2430
3580669,Right,2,0.0072,0.0055,-1.0000,0.0021,0.0016,0.0063,-0.0017,-0.1576,-0.0999,-0.0362,0.0172,-0.0080,9.7782,0.0000,0.0001,-0.0000,1.0000,0.0004,-0.0002,0.2445
3580669,Pelvis,2,-0.6709,-0.0189,-0.7410,0.0218,0.0019,0.0011,-0.0000,-0.0152,-0.0801,0.0029,9.7692,0.0671,0.9535,0.0000,0.0000,-0.0000,1.0000,0.2442,0.0017,0.0238
3580670,Left,2,0.0070,-0.0004,-0.9793,0.2021,0.0096,0.0021,0.0017,-0.0906,-0.0820,-0.0806,-0.0166,0.0761,9.7325,0.0001,0.0000,0.0000,1.0000,-0.0004,0.0019,0.2433
3580670,Right,2,0.0072,0.0055,-1.0000,0.0021,0.0041,0.0048,-0.0009,-0.1260,-0.0950,-0.0385,-0.0144,-0.0127,9.7754,0.0001,0.0001,-0.0000,1.0000,-0.0003,-0.0003,0.2444
3580670,Pelvis,2,-0.6709,-0.0189,-0.7410,0.0218,0.0012,0.0014,0.0030,0.0064,-0.0630,-0.0080,9.7561,0.0512,0.9749,0.0000,0.0000,0.0000,1.0000,0.2439,0.0013,0.0244
3580671,Left,2,0.0070,-0.0004,-0.9793,0.2021,0.0090,0.0030,0.0020,-0.0827,-0.0754,-0.0892,-0.0265,0.0730,9.7238,0.0001,0.0000,0.0000,1.0000,-0.0007,0.0018,0.2431
3580671,Right,2,0.0072,0.0055,-1.0000,0.0021,0.0019,0.0056,-0.0028,-0.1303,-0.0845,-0.0443,-0.0100,-0.0231,9.7695,0.0000,0.0001,-0.0000,1.0000,-0.0002,-0.0006,0.2442
3580671,Pelvis,2,-0.6709,-0.0189,-0.7410,0.0218,0.0019,0.0005,0.0000,0.0180,-0.0434,0.0003,9.7632,0.0322,0.9884,0.0000,0.0000,0.0000,1.0000,0.2441,0.0008,0.0247
3580672,Left,2,0.0070,-0.0004,-0.9793,0.2021,0.0102,0.0023,0.0024,-0.0969,-0.0951,-0.0856,-0.0058,0.0854,9.7277,0.0001,0.0000,0.0000,1.0000,-0.0001,0.0021,0.2432
3580672,Right,2,0.0072,0.0055,-1.0000,0.0021,0.0017,0.0057,-0.0016,-0.1510,-0.0947,-0.0248,0.0104,-0.0135,9.7895,0.0000,0.0001,-0.0000,1.0000,0.0003,-0.0003,0.2447
3580672,Pelvis,2,-0.6709,-0.0189,-0.7410,0.0218,0.0012,0.0013,0.0012,0.0041,-0.0906,0.0041,9.7686,0.0788,0.9721,0.0000,0.0000,0.0000,1.0000,0.2442,0.0020,0.0243
3580673,Left,2,0.0070,-0.0004,-0.9793,0.2021,0.0102,0.0012,0.0015,-0.0984,-0.0905,-0.0923,-0.0061,0.0807,9.7210,0.0001,0.0000,0.0000,1.0000,-0.0001,0.0020,0.2430
3580673,Right,2,0.0072,0.0055,-1.0000,0.0021,0.0033,0.0050,-0.0031,-0.1288,-0.1024,-0.0585,-0.0112,-0.0054,9.7555,0.0000,0.0001,-0.0000,1.0000,-0.0003,-0.0001,0.2439
3580673,Pelvis,2,-0.6709,-0.0189,-0.7410,0.0218,0.0031,0.0012,0.0013,-0.0131,-0.0700,-0.0076,9.7585,0.0572,0.9550,0.0000,0.0000,0.0000,1.0000,0.2440,0.0014,0.0239
3580674,Left,2,0.0070,-0.0004,-0.9793,0.2021,0.0090,0.0037,0.0037,-0.0906,-0.0769,-0.0940,-0.0187,0.0712,9.7191,0.0001,0.0000,0.0000,1.0000,-0.0005,0.0018,0.2430
3580674,Right,2,0.0072,0.0055,-1.0000,0.0021,0.0024,0.0057,-0.0021,-0.1437,-0.0916,-0.0370,0.0034,-0.0165,9.7771,0.0000,0.0001,-0.0000,1.0000,0.0001,-0.0004,0.2444
3580674,Pelvis,2,-0.6709,-0.0189,-0.7410,0.0218,0.0012,0.0013,0.0012,-0.0123,-0.0583,0.0110,9.7769,0.0457,0.9584,0.0000,0.0000,0.0000,1.0000,0.2444,0.0011,0.0240
3580675,Left,2,0.0070,-0.0004,-0.9793,0.2021,0.0102,0.0025,0.0029,-0.0801,-0.0630,-0.0822,-0.0343,0.0625,9.7308,0.0001,0.0000,0.0000,1.0000,-0.0008,0.0015,0.2433
3580675,Right,2,0.0072,0.0055,-1.0000,0.0021,0.0028,0.0055,-0.0039,-0.1351,-0.0806,-0.0379,-0.0053,-0.0276,9.7761,0.0000,0.0001,-0.0000,1.0000,-0.0001,-0.0007,0.2444
3580675,Pelvis,2,-0.6709,-0.0189,-0.7410,0.0218,0.0018,0.0012,0.0012,-0.0013,-0.0500,0.0007,9.7655,0.0381,0.9688,0.0000,0.0000,0.0000,1.0000,0.2441,0.0010,0.0242
3580676,Left,2,0.0070,-0.0004,-0.9793,0.2021,0.0084,0.0028,0.0014,-0.0789,-0.1145,-0.0877,-0.0150,0.1101,9.7253,0.0001,0.0000,0.0000,1.0000,-0.0004,0.0027,0.2431
3580676,Right,2,0.0072,0.0055,-1.0000,0.0021,0.0024,0.0051,-0.0020,-0.1437,-0.1003,-0.0484,0.0036,-0.0078,9.7658,0.0000,0.0001,-0.0000,1.0000,0.0001,-0.0002,0.2441
3580676,Pelvis,2,-0.6709,-0.0189,-0.7410,0.0217,0.0013,0.0017,-0.0007,-0.0028,-0.0698,-0.0074,9.7577,0.0581,0.9656,0.0000,0.0000,-0.0000,1.0000,0.2439,0.0015,0.0241
3580677,Left,2,0.0071,-0.0004,-0.9793,0.2021,0.0104,0.0024,-0.0004,-0.0900,-0.0981,-0.0787,-0.0116,0.0907,9.7344,0.0001,0.0000,-0.0000,1.0000,-0.0003,0.0022,0.2434
3580677,Right,2,0.0071,0.0055,-1.0000,0.0021,0.0035,0.0050,-0.0037,-0.1291,-0.0941,-0.0643,-0.0107,-0.0138,9.7497,0.0000,0.0001,-0.0000,1.0000,-0.0003,-0.0004,0.2437
3580677,Pelvis,2,-0.6709,-0.0189,-0.7410,0.0217,0.0012,0.0006,0.0006,-0.0018,-0.0590,0.0015,9.7664,0.0477,0.9681,0.0000,0.0000,0.0000,1.0000,0.2442,0.0012,0.0242
3580678,Left,2,0.0070,-0.0004,-0.9794,0.2020,0.0096,0.0016,0.0006,-0.0849,-0.0849,-0.0940,-0.0212,0.0805,9.7191,0.0001,0.0000,0.0000,1.0000,-0.0005,0.0020,0.2430
3580678,Right,2,0.0072,0.0056,-1.0000,0.0021,0.0017,0.0057,-0.0016,-0.1293,-0.0856,-0.0615,-0.0106,-0.0224,9.7524,0.0000,0.0001,-0.0000,1.0000,-0.0002,-0.0006,0.2438
3580678,Pelvis,2,-0.6709,-0.0189,-0.7410,0.0217,0.0013,0.0012,0.0006,-0.0121,-0.0684,-0.0076,9.7584,0.0566,0.9565,0.0000,0.0000,0.0000,1.0000,0.2440,0.0014,0.0239
3580679,Left,2,0.0070,-0.0004,-0.9793,0.2021,0.0086,0.0008,0.0029,-0.0902,-0.0817,-0.0717,-0.0177,0.0753,9.7415,0.0001,0.0000,0.0000,1.0000,-0.0004,0.0019,0.2435
3580679,Right,2,0.0072,0.0056,-1.0000,0.0022,0.0029,0.0058,-0.0014,-0.1544,-0.1002,-0.0297,0.0141,-0.0084,9.7847,0.0000,0.0001,-0.0000,1.0000,0.0004,-0.0002,0.2446
3580679,Pelvis,2,-0.6709,-0.0189,-0.7410,0.0217,0.0018,0.0007,0.0025,-0.0119,-0.0680,-0.0076,9.7584,0.0563,0.9567,0.0000,0.0000,0.0000,1.0000,0.2440,0.0014,0.0239
3580680,Left,2,0.0071,-0.0004,-0.9793,0.2021,0.0110,0.0043,0.0056,-0.0912,-0.0979,-0.0990,-0.0100,0.0898,9.7142,0.0001,0.0001,0.0001,1.0000,-0.0002,0.0022,0.2429
3580680,Right,2,0.0072,0.0056,-1.0000,0.0022,0.0018,0.0062,-0.0023,-0.1353,-0.0895,-0.0578,-0.0048,-0.0189,9.7562,0.0000,0.0001,-0.0000,1.0000,-0.0001,-0.0005,0.2439
3580680,Pelvis,2,-0.6709,-0.0189,-0.7410,0.0217,0.0013,0.0025,0.0017,0.0174,-0.0696,0.0027,9.7657,0.0593,0.9869,0.0000,0.0000,0.0000,1.0000,0.2441,0.0015,0.0247
3580681,Left,2,0.0071,-0.0004,-0.9793,0.2021,0.0096,0.0024,0.0023,-0.0994,-0.0881,-0.0833,-0.0069,0.0777,9.7300,0.0001,0.0000,0.0000,1.0000,-0.0002,0.0019,0.2432
3580681,Right,2,0.0072,0.0056,-1.0000,0.0022,0.0025,0.0062,-0.0028,-0.1240,-0.1033,-0.0434,-0.0163,-0.0054,9.7706,0.0000,0.0001,-0.0000,1.0000,-0.0004,-0.0001,0.2443
3580681,Pelvis,2,-0.6709,-0.0189,-0.7410,0.0217,0.0031,0.0005,0.0001,0.0196,-0.0507,-0.0086,9.7541,0.0407,0.9891,0.0000,0.0000,0.0000,1.0000,0.2439,0.0010,0.0247
3580682,Left,2,0.0071,-0.0004,-0.9793,0.2021,0.0103,0.0021,0.0018,-0.0794,-0.0790,-0.0803,-0.0289,0.0773,9.7327,0.0001,0.0000,0.0000,1.0000,-0.0007,0.0019,0.2433
3580682,Right,2,0.0072,0.0056,-1.0000,0.0022,0.0029,0.0058,-0.0014,-0.1412,-0.0934,-0.0541,0.0009,-0.0153,9.7600,0.0000,0.0001,-0.0000,1.0000,0.0000,-0.0004,0.2440
3580682,Pelvis,2,-0.6709,-0.0189,-0.7410,0.0217,0.0030,0.0013,0.0025,-0.0107,-0.0550,0.0208,9.7864,0.0433,0.9617,0.0000,0.0000,0.0000,1.0000,0.2447,0.0011,0.0240
3580683,Left,2,0.0070,-0.0004,-0.9793,0.2021,0.0101,0.0014,0.0034,-0.0807,-0.0814,-0.0938,-0.0265,0.0790,9.7192,0.0001,0.0000,0.0000,1.0000,-0.0007,0.0019,0.2430
3580683,Right,2,0.0072,0.0056,-1.0000,0.0022,0.0024,0.0051,-0.0020,-0.1376,-0.0932,-0.0218,-0.0033,-0.0159,9.7922,0.0000,0.0001,-0.0000,1.0000,-0.0001,-0.0004,0.2448
3580683,Pelvis,2,-0.6709,-0.0189,-0.7410,0.0217,0.0019,0.0005,-0.0006,-0.0001,-0.0587,-0.0179,9.7469,0.0479,0.9680,0.0000,0.0000,-0.0000,1.0000,0.2437,0.0012,0.0242
3580684,Left,2,0.0070,-0.0004,-0.9793,0.2021,0.0096,0.0026,0.0029,-0.0766,-0.0830,-0.0803,-0.0298,0.0821,9.7327,0.0001,0.0000,0.0000,1.0000,-0.0007,0.0020,0.2433
3580684,Right,2,0.0072,0.0056,-1.0000,0.0022,0.0036,0.0052,-0.0018,-0.1343,-0.0967,-0.0455,-0.0060,-0.0120,9.7686,0.0000,0.0001,-0.0000,1.0000,-0.0001,-0.0003,0.2442
3580684,Pelvis,2,-0.6709,-0.0189,-0.7410,0.0217,0.0025,0.0012,0.0012,-0.0109,-0.0649,0.0119,9.7776,0.0535,0.9598,0.0000,0.0000,0.0000,1.0000,0.2444,0.0013,0.0240
3580685,Left,2,0.0071,-0.0004,-0.9793,0.2021,0.0097,0.0027,0.0015,-0.0900,-0.0809,-0.0986,-0.0181,0.0748,9.7146,0.0001,0.0000,0.0000,1.0000,-0.0004,0.0018,0.2429
3580685,Right,2,0.0072,0.0056,-1.0000,0.0022,0.0025,0.0045,-0.0019,-0.1285,-0.0929,-0.0578,-0.0115,-0.0156,9.7562,0.0000,0.0001,-0.0000,1.0000,-0.0003,-0.0004,0.2439
3580685,Pelvis,2,-0.6709,-0.0189,-0.7410,0.0217,0.0011,-0.0004,0.0031,0.0002,-0.0565,0.0015,9.7662,0.0457,0.9700,0.0000,-0.0000,0.0000,1.0000,0.2442,0.0012,0.0243
3580686,Left,2,0.0070,-0.0004,-0.9793,0.2021,0.0088,0.0019,0.0025,-0.0829,-0.0960,-0.0853,-0.0189,0.0914,9.7278,0.0001,0.0000,0.0000,1.0000,-0.0005,0.0023,0.2432
3580686,Right,2,0.0071,0.0056,-1.0000,0.0022,0.0005,0.0055,-0.0019,-0.1460,-0.0894,-0.0476,0.0060,-0.0196,9.7665,0.0000,0.0001,-0.0000,1.0000,0.0002,-0.0005,0.2442
3580686,Pelvis,2,-0.6709,-0.0189,-0.7410,0.0217,0.0007,0.0019,0.0011,0.0108,-0.0466,0.0107,9.7742,0.0362,0.9821,0.0000,0.0000,0.0000,1.0000,0.2444,0.0009,0.0245
3580687,Left,2,0.0071,-0.0004,-0.9793,0.2021,0.0090,0.0030,0.0020,-0.0844,-0.0845,-0.0850,-0.0221,0.0800,9.7280,0.0001,0.0000,0.0000,1.0000,-0.0005,0.0020,0.2432
3580687,Right,2,0.0072,0.0056,-1.0000,0.0022,0.0029,0.0058,-0.0014,-0.1491,-0.0946,-0.0354,0.0089,-0.0149,9.7789,0.0000,0.0001,-0.0000,1.0000,0.0002,-0.0004,0.2445
3580687,Pelvis,2,-0.6709,-0.0189,-0.7410,0.0217,0.0025,-0.0001,-0.0005,-0.0002,-0.0664,-0.0074,9.7574,0.0556,0.9682,0.0000,-0.0000,-0.0000,1.0000,0.2439,0.0014,0.0242
3580688,Left,2,0.0070,-0.0004,-0.9793,0.2021,0.0108,0.0014,0.0021,-0.0896,-0.0882,-0.0696,-0.0160,0.0814,9.7436,0.0001,0.0000,0.0000,1.0000,-0.0004,0.0020,0.2436
3580688,Right,2,0.0071,0.0056,-1.0000,0.0022,0.0036,0.0052,-0.0017,-0.1376,-0.1020,-0.0418,-0.0025,-0.0073,9.7724,0.0000,0.0001,-0.0000,1.0000,-0.0000,-0.0002,0.2443
3580688,Pelvis,2,-0.6709,-0.0189,-0.7410,0.0217,0.0012,0.0013,0.0012,-0.0011,-0.0749,0.0031,9.7681,0.0644,0.9678,0.0000,0.0000,0.0000,1.0000,0.2442,0.0016,0.0242
3580689,Left,2,0.0070,-0.0004,-0.9793,0.2021,0.0096,0.0021,0.0017,-0.0817,-0.0815,-0.0782,-0.0258,0.0785,9.7349,0.0001,0.0000,0.0000,1.0000,-0.0006,0.0019,0.2434
3580689,Right,2,0.0072,0.0056,-1.0000,0.0023,0.0022,0.0064,-0.0016,-0.1389,-0.0778,-0.0571,-0.0011,-0.0313,9.7569,0.0000,0.0001,-0.0000,1.0000,-0.0000,-0.0008,0.2439
3580689,Pelvis,2,-0.6709,-0.0189,-0.7410,0.0217,0.0019,0.0012,0.0006,0.0013,-0.0568,-0.0179,9.7468,0.0466,0.9691,0.0000,0.0000,0.0000,1.0000,0.2437,0.0012,0.0242
3580690,Left,2,0.0070,-0.0004,-0.9793,0.2021,0.0095,0.0021,0.0031,-0.0896,-0.0856,-0.0762,-0.0169,0.0790,9.7369,0.0001,0.0000,0.0000,1.0000,-0.0004,0.0019,0.2434
3580690,Right,2,0.0072,0.0056,-1.0000,0.0023,0.0024,0.0051,-0.0020,-0.1364,-0.0942,-0.0390,-0.0039,-0.0153,9.7751,0.0000,0.0001,-0.0000,1.0000,-0.0001,-0.0004,0.2444
3580690,Pelvis,2,-0.6709,-0.0189,-0.7410,0.0217,0.0012,0.0007,0.0018,-0.0104,-0.0717,0.0224,9.7881,0.0608,0.9605,0.0000,0.0000,0.0000,1.0000,0.2447,0.0015,0.0240
3580691,Left,2,0.0071,-0.0004,-0.9793,0.2021,0.0097,0.0029,0.0021,-0.1004,-0.0832,-0.0809,-0.0080,0.0724,9.7323,0.0001,0.0000,0.0000,1.0000,-0.0002,0.0018,0.2433
3580691,Right,2,0.0072,0.0056,-1.0000,0.0023,0.0025,0.0056,-0.0027,-0.1494,-0.0862,-0.0411,0.0092,-0.0234,9.7731,0.0000,0.0001,-0.0000,1.0000,0.0002,-0.0006,0.2443
3580691,Pelvis,2,-0.6709,-0.0189,-0.7410,0.0216,0.0006,0.0001,0.0012,0.0113,-0.0555,0.0017,9.7654,0.0458,0.9808,0.0000,0.0000,0.0000,1.0000,0.2441,0.0011,0.0245
3580692,Left,2,0.0070,-0.0003,-0.9793,0.2021,0.0081,0.0014,0.0026,-0.0710,-0.0789,-0.0868,-0.0366,0.0799,9.7261,0.0001,0.0000,0.0000,1.0000,-0.0009,0.0020,0.2432
3580692,Right,2,0.0072,0.0056,-1.0000,0.0023,0.0038,0.0063,-0.0031,-0.1394,-0.0844,-0.0447,-0.0009,-0.0250,9.7693,0.0000,0.0001,-0.0000,1.0000,-0.0000,-0.0006,0.2442
3580692,Pelvis,2,-0.6709,-0.0189,-0.7410,0.0216,0.0031,0.0018,0.0012,0.0011,-0.0648,-0.0074,9.7573,0.0545,0.9691,0.0000,0.0000,0.0000,1.0000,0.2439,0.0014,0.0242
3580693,Left,2,0.0071,-0.0003,-0.9793,0.2021,0.0097,0.0032,0.0026,-0.0908,-0.0923,-0.1033,-0.0129,0.0841,9.7099,0.0001,0.0000,0.0000,1.0000,-0.0003,0.0021,0.2427
3580693,Right,2,0.0072,0.0056,-1.0000,0.0023,0.0029,0.0052,-0.0013,-0.1225,-0.0772,-0.0284,-0.0182,-0.0322,9.7853,0.0000,0.0001,-0.0000,1.0000,-0.0004,-0.0008,0.2446
3580693,Pelvis,2,-0.6709,-0.0189,-0.7410,0.0217,0.0024,0.0006,0.0019,0.0110,-0.0654,-0.0072,9.7566,0.0556,0.9791,0.0000,0.0000,0.0000,1.0000,0.2439,0.0014,0.0245
3580694,Left,2,0.0070,-0.0003,-0.9793,0.2021,0.0107,0.0014,0.0035,-0.0924,-0.0808,-0.1031,-0.0160,0.0730,9.7101,0.0001,0.0000,0.0000,1.0000,-0.0004,0.0018,0.2428
3580694,Right,2,0.0072,0.0056,-1.0000,0.0023,0.0015,0.0048,-0.0034,-0.1457,-0.0947,-0.0202,0.0051,-0.0151,9.7940,0.0000,0.0001,-0.0000,1.0000,0.0001,-0.0004,0.2449
3580694,Pelvis,2,-0.6709,-0.0189,-0.7410,0.0217,0.0018,0.0019,0.0024,-0.0085,-0.0617,0.0119,9.7774,0.0506,0.9619,0.0000,0.0000,0.0000,1.0000,0.2444,0.0013,0.0240
3580695,Left,2,0.0070,-0.0004,-0.9793,0.2022,0.0102,0.0017,0.0026,-0.0854,-0.0890,-0.0829,-0.0194,0.0835,9.7302,0.0001,0.0000,0.0000,1.0000,-0.0005,0.0021,0.2433
3580695,Right,2,0.0072,0.0056,-1.0000,0.0023,0.0023,0.0063,-0.0022,-0.1425,-0.0982,-0.0439,0.0023,-0.0115,9.7704,0.0000,0.0001,-0.0000,1.0000,0.0001,-0.0003,0.2443
3580695,Pelvis,2,-0.6709,-0.0189,-0.7410,0.0217,0.0025,0.0011,-0.0006,-0.0089,-0.0719,0.0029,9.7686,0.0609,0.9600,0.0000,0.0000,-0.0000,1.0000,0.2442,0.0015,0.0240
3580696,Left,2,0.0070,-0.0003,-0.9793,0.2022,0.0096,0.0024,0.0023,-0.0745,-0.0958,-0.0917,-0.0265,0.0941,9.7212,0.0001,0.0000,0.0000,1.0000,-0.0007,0.0023,0.2430
3580696,Right,2,0.0072,0.0056,-1.0000,0.0023,0.0035,0.0053,-0.0012,-0.1370,-0.1009,-0.0352,-0.0034,-0.0089,9.7789,0.0000,0.0001,-0.0000,1.0000,-0.0001,-0.0002,0.2445
3580696,Pelvis,2,-0.6709,-0.0189,-0.7410,0.0217,0.0018,0.0013,0.0018,0.0020,-0.0627,0.0023,9.7669,0.0526,0.9713,0.0000,0.0000,0.0000,1.0000,0.2442,0.0013,0.0243
3580697,Left,2,0.0070,-0.0004,-0.9793,0.2022,0.0107,0.0014,0.0035,-0.0853,-0.0864,-0.0895,-0.0202,0.0812,9.7235,0.0001,0.0000,0.0000,1.0000,-0.0005,0.0020,0.2431
3580697,Right,2,0.0072,0.0056,-1.0000,0.0023,0.0030,0.0052,-0.0019,-0.1254,-0.0761,-0.0455,-0.0148,-0.0334,9.7682,0.0000,0.0001,-0.0000,1.0000,-0.0004,-0.0008,0.2442
3580697,Pelvis,2,-0.6709,-0.0189,-0.7410,0.0216,0.0012,-0.0000,0.0007,-0.0074,-0.0614,0.0022,9.7677,0.0509,0.9618,0.0000,-0.0000,0.0000,1.0000,0.2442,0.0013,0.0240
3580698,Left,2,0.0070,-0.0003,-0.9793,0.2022,0.0083,0.0022,0.0016,-0.1055,-0.0860,-0.0923,-0.0018,0.0728,9.7211,0.0001,0.0000,0.0000,1.0000,-0.0000,0.0018,0.2430
3580698,Right,2,0.0072,0.0056,-1.0000,0.0023,0.0025,0.0063,-0.0028,-0.1399,-0.0911,-0.0410,-0.0004,-0.0186,9.7731,0.0000,0.0001,-0.0000,1.0000,0.0000,-0.0005,0.2443
3580698,Pelvis,2,-0.6709,-0.0189,-0.7410,0.0216,0.0012,0.0007,0.0018,0.0017,-0.0725,-0.0066,9.7582,0.0625,0.9693,0.0000,0.0000,0.0000,1.0000,0.2440,0.0016,0.0242
3580699,Left,2,0.0071,-0.0003,-0.9793,0.2022,0.0099,0.0038,0.0010,-0.1014,-0.0807,-0.0719,-0.0081,0.0695,9.7414,0.0001,0.0000,0.0000,1.0000,-0.0002,0.0017,0.2435
3580699,Right,2,0.0071,0.0056,-1.0000,0.0023,0.0026,0.0044,-0.0025,-0.1326,-0.0966,-0.0561,-0.0074,-0.0130,9.7580,0.0000,0.0001,-0.0000,1.0000,-0.0002,-0.0003,0.2439
3580699,Pelvis,2,-0.6709,-0.0189,-0.7410,0.0216,0.0031,0.0017,0.0000,-0.0167,-0.0608,-0.0078,9.7587,0.0498,0.9517,0.0000,0.0000,0.0000,1.0000,0.2440,0.0012,0.0238
3580700,Left,2,0.0070,-0.0003,-0.9793,0.2022,0.0096,0.0019,0.0012,-0.0839,-0.0858,-0.0962,-0.0219,0.0809,9.7169,0.0001,0.0000,0.0000,1.0000,-0.0005,0.0020,0.2429
3580700,Right,2,0.0071,0.0056,-1.0000,0.0023,0.0029,0.0052,-0.0013,-0.1399,-0.0998,-0.0524,0.0001,-0.0099,9.7618,0.0000,0.0001,-0.0000,1.0000,0.0000,-0.0003,0.2440
3580700,Pelvis,2,-0.6709,-0.0189,-0.7410,0.0216,0.0018,0.0013,0.0018,-0.0173,-0.0702,-0.0070,9.7596,0.0593,0.9506,0.0000,0.0000,0.0000,1.0000,0.2440,0.0015,0.0238
3580701,Left,2,0.0071,-0.0003,-0.9793,0.2022,0.0095,0.0030,0.0054,-0.0797,-0.0944,-0.0896,-0.0226,0.0904,9.7235,0.0001,0.0000,0.0001,1.0000,-0.0006,0.0022,0.2431
3580701,Right,2,0.0071,0.0056,-1.0000,0.0023,0.0027,0.0056,-0.0033,-0.1359,-0.0932,-0.0410,-0.0042,-0.0166,9.7731,0.0000,0.0001,-0.0000,1.0000,-0.0001,-0.0004,0.2443
3580701,Pelvis,2,-0.6709,-0.0189,-0.7410,0.0216,0.0012,0.0007,0.0018,0.0042,-0.0523,-0.0082,9.7562,0.0425,0.9729,0.0000,0.0000,0.0000,1.0000,0.2439,0.0011,0.0243
3580702,Left,2,0.0070,-0.0003,-0.9793,0.2022,0.0107,0.0004,0.0012,-0.0878,-0.0846,-0.0738,-0.0191,0.0784,9.7393,0.0001,0.0000,0.0000,1.0000,-0.0005,0.0019,0.2435
3580702,Right,2,0.0071,0.0056,-1.0000,0.0023,0.0024,0.0051,-0.0020,-0.1346,-0.0939,-0.0410,-0.0055,-0.0160,9.7731,0.0000,0.0001,-0.0000,1.0000,-0.0001,-0.0004,0.2443
3580702,Pelvis,2,-0.6709,-0.0189,-0.7410,0.0216,0.0024,-0.0001,0.0007,-0.0168,-0.0696,-0.0070,9.7596,0.0586,0.9510,0.0000,-0.0000,0.0000,1.0000,0.2440,0.0015,0.0238
3580703,Left,2,0.0070,-0.0003,-0.9793,0.2022,0.0088,0.0019,0.0025,-0.0768,-0.0983,-0.0896,-0.0233,0.0953,9.7234,0.0001,0.0000,0.0000,1.0000,-0.0006,0.0024,0.2431
3580703,Right,2,0.0071,0.0056,-1.0000,0.0023,0.0029,0.0058,-0.0014,-0.1389,-0.0834,-0.0467,-0.0010,-0.0265,9.7673,0.0000,0.0001,-0.0000,1.0000,-0.0000,-0.0007,0.2442
3580703,Pelvis,2,-0.6709,-0.0189,-0.7410,0.0216,0.0011,0.0001,0.0019,0.0030,-0.0711,-0.0066,9.7581,0.0612,0.9702,0.0000,0.0000,0.0000,1.0000,0.2440,0.0015,0.0243
3580704,Left,2,0.0070,-0.0004,-0.9793,0.2022,0.0115,0.0024,0.0045,-0.0728,-0.0862,-0.0623,-0.0321,0.0859,9.7507,0.0001,0.0000,0.0001,1.0000,-0.0008,0.0021,0.2438
3580704,Right,2,0.0072,0.0056,-1.0000,0.0023,0.0025,0.0063,-0.0028,-0.1462,-0.0867,-0.0430,0.0061,-0.0233,9.7711,0.0000,0.0001,-0.0000,1.0000,0.0002,-0.0006,0.2443
3580704,Pelvis,2,-0.6709,-0.0189,-0.7410,0.0216,0.0006,0.0012,0.0006,0.0040,-0.0603,0.0024,9.7668,0.0505,0.9726,0.0000,0.0000,0.0000,1.0000,0.2442,0.0013,0.0243
3580705,Left,2,0.0071,-0.0004,-0.9793,0.2022,0.0097,0.0034,0.0032,-0.0863,-0.0840,-0.0805,-0.0205,0.0787,9.7326,0.0001,0.0000,0.0000,1.0000,-0.0005,0.0019,0.2433
3580705,Right,2,0.0072,0.0056,-1.0000,0.0024,0.0030,0.0058,-0.0020,-0.1346,-0.0940,-0.0495,-0.0054,-0.0159,9.7645,0.0000,0.0001,-0.0000,1.0000,-0.0001,-0.0004,0.2441
3580705,Pelvis,2,-0.6709,-0.0189,-0.7410,0.0216,0.0018,0.0000,0.0013,0.0130,-0.0697,0.0131,9.7767,0.0606,0.9819,0.0000,0.0000,0.0000,1.0000,0.2444,0.0015,0.0245
3580706,Left,2,0.0070,-0.0004,-0.9793,0.2022,0.0102,0.0012,0.0015,-0.0819,-0.0995,-0.0808,-0.0184,0.0946,9.7323,0.0001,0.0000,0.0000,1.0000,-0.0005,0.0023,0.2433
3580706,Right,2,0.0071,0.0056,-1.0000,0.0024,0.0020,0.0049,-0.0027,-0.1437,-0.0945,-0.0221,0.0033,-0.0159,9.7921,0.0000,0.0001,-0.0000,1.0000,0.0001,-0.0004,0.2448
3580706,Pelvis,2,-0.6709,-0.0189,-0.7410,0.0216,0.0019,0.0012,0.0006,-0.0050,-0.0596,-0.0076,9.7578,0.0495,0.9624,0.0000,0.0000,0.0000,1.0000,0.2439,0.0012,0.0241
3580707,Left,2,0.0071,-0.0004,-0.9793,0.2022,0.0097,0.0034,0.0032,-0.0862,-0.0883,-0.0940,-0.0188,0.0826,9.7191,0.0001,0.0000,0.0000,1.0000,-0.0005,0.0020,0.2430
3580707,Right,2,0.0071,0.0057,-1.0000,0.0024,0.0017,0.0051,-0.0015,-0.1334,-0.0862,-0.0467,-0.0065,-0.0241,9.7673,0.0000,0.0001,-0.0000,1.0000,-0.0001,-0.0006,0.2442
3580707,Pelvis,2,-0.6709,-0.0189,-0.7410,0.0216,0.0012,0.0013,0.0012,0.0145,-0.0595,0.0123,9.7757,0.0506,0.9838,0.0000,0.0000,0.0000,1.0000,0.2444,0.0013,0.0246
3580708,Left,2,0.0071,-0.0004,-0.9793,0.2022,0.0103,0.0021,0.0018,-0.0885,-0.0987,-0.0719,-0.0130,0.0914,9.7412,0.0001,0.0000,0.0000,1.0000,-0.0003,0.0023,0.2435
3580708,Right,2,0.0071,0.0057,-1.0000,0.0024,0.0025,0.0045,-0.0019,-0.1410,-0.0959,-0.0221,0.0010,-0.0149,9.7921,0.0000,0.0001,-0.0000,1.0000,0.0000,-0.0004,0.2448
3580708,Pelvis,2,-0.6709,-0.0189,-0.7410,0.0216,0.0012,0.0013,0.0024,-0.0143,-0.0573,0.0020,9.7682,0.0466,0.9543,0.0000,0.0000,0.0000,1.0000,0.2442,0.0012,0.0239
3580709,Left,2,0.0070,-0.0004,-0.9793,0.2022,0.0093,0.0004,0.0025,-0.0740,-0.0902,-0.0960,-0.0291,0.0892,9.7170,0.0001,0.0000,0.0000,1.0000,-0.0007,0.0022,0.2429
3580709,Right,2,0.0071,0.0057,-1.0000,0.0024,0.0031,0.0063,-0.0026,-0.1436,-0.0882,-0.0516,0.0040,-0.0223,9.7626,0.0000,0.0001,-0.0000,1.0000,0.0001,-0.0006,0.2441
3580709,Pelvis,2,-0.6709,-0.0189,-0.7410,0.0216,0.0043,0.0011,0.0013,-0.0052,-0.0674,0.0030,9.7684,0.0573,0.9628,0.0001,0.0000,0.0000,1.0000,0.2442,0.0014,0.0241
3580710,Left,2,0.0070,-0.0003,-0.9793,0.2022,0.0077,0.0031,0.0019,-0.0913,-0.0894,-0.0852,-0.0135,0.0814,9.7280,0.0001,0.0000,0.0000,1.0000,-0.0003,0.0020,0.2432
3580710,Right,2,0.0071,0.0057,-1.0000,0.0024,0.0024,0.0051,-0.0020,-0.1524,-0.0822,-0.0450,0.0126,-0.0284,9.7691,0.0000,0.0001,-0.0000,1.0000,0.0003,-0.0007,0.2442
3580710,Pelvis,2,-0.6709,-0.0190,-0.7410,0.0216,0.0025,-0.0001,-0.0005,0.0058,-0.0591,-0.0074,9.7570,0.0500,0.9731,0.0000,-0.0000,-0.0000,1.0000,0.2439,0.0012,0.0243
3580711,Left,2,0.0070,-0.0003,-0.9793,0.2022,0.0104,0.0029,0.0021,-0.0898,-0.0983,-0.0921,-0.0115,0.0899,9.7211,0.0001,0.0000,0.0000,1.0000,-0.0003,0.0022,0.2430
3580711,Right,2,0.0071,0.0057,-1.0000,0.0024,0.0022,0.0052,-0.0008,-0.1340,-0.0843,-0.0315,-0.0059,-0.0266,9.7824,0.0000,0.0001,-0.0000,1.0000,-0.0001,-0.0007,0.2446
3580711,Pelvis,2,-0.6709,-0.0190,-0.7410,0.0216,0.0007,0.0018,-0.0001,0.0041,-0.0774,0.0040,9.7685,0.0685,0.9714,0.0000,0.0000,-0.0000,1.0000,0.2442,0.0017,0.0243
3580712,Left,2,0.0070,-0.0003,-0.9793,0.2022,0.0089,0.0022,0.0017,-0.0848,-0.0850,-0.1073,-0.0213,0.0796,9.7058,0.0001,0.0000,0.0000,1.0000,-0.0005,0.0020,0.2426
3580712,Right,2,0.0071,0.0057,-1.0000,0.0024,0.0027,0.0050,-0.0032,-0.1371,-0.0894,-0.0192,-0.0028,-0.0217,9.7948,0.0000,0.0001,-0.0000,1.0000,-0.0001,-0.0005,0.2449
3580712,Pelvis,2,-0.6709,-0.0190,-0.7410,0.0216,0.0025,0.0012,0.0012,0.0051,-0.0675,0.0032,9.7676,0.0588,0.9731,0.0000,0.0000,0.0000,1.0000,0.2442,0.0015,0.0243
3580713,Left,2,0.0070,-0.0003,-0.9793,0.2022,0.0103,0.0021,0.0018,-0.0871,-0.0954,-0.0852,-0.0154,0.0883,9.7280,0.0001,0.0000,0.0000,1.0000,-0.0004,0.0022,0.2432
3580713,Right,2,0.0071,0.0057,-1.0000,0.0024,0.0029,0.0052,-0.0013,-0.1384,-0.0974,-0.0306,-0.0012,-0.0136,9.7835,0.0000,0.0001,-0.0000,1.0000,-0.0000,-0.0003,0.2446
3580713,Pelvis,2,-0.6709,-0.0189,-0.7410,0.0216,0.0005,0.0008,0.0024,0.0064,-0.0583,-0.0074,9.7569,0.0496,0.9739,0.0000,0.0000,0.0000,1.0000,0.2439,0.0012,0.0243
3580714,Left,2,0.0070,-0.0003,-0.9793,0.2022,0.0095,0.0023,0.0037,-0.0576,-0.0911,-0.0910,-0.0440,0.0960,9.7217,0.0001,0.0000,0.0000,1.0000,-0.0011,0.0024,0.2430
3580714,Right,2,0.0071,0.0057,-1.0000,0.0024,0.0026,0.0050,-0.0026,-0.1371,-0.0981,-0.0306,-0.0024,-0.0129,9.7835,0.0000,0.0001,-0.0000,1.0000,-0.0000,-0.0003,0.2446
3580714,Pelvis,2,-0.6709,-0.0189,-0.7410,0.0216,0.0018,-0.0006,0.0013,0.0055,-0.0669,0.0032,9.7675,0.0579,0.9734,0.0000,-0.0000,0.0000,1.0000,0.2442,0.0015,0.0243
3580715,Left,2,0.0070,-0.0003,-0.9793,0.2022,0.0089,0.0024,0.0022,-0.0899,-0.0862,-0.0984,-0.0162,0.0785,9.7148,0.0001,0.0000,0.0000,1.0000,-0.0004,0.0019,0.2429
3580715,Right,2,0.0071,0.0057,-1.0000,0.0024,0.0036,0.0070,-0.0026,-0.1486,-0.0994,-0.0355,0.0091,-0.0115,9.7788,0.0000,0.0001,-0.0000,1.0000,0.0002,-0.0003,0.2445
3580715,Pelvis,2,-0.6709,-0.0189,-0.7410,0.0216,0.0006,0.0013,0.0012,-0.0030,-0.0560,0.0022,9.7673,0.0466,0.9652,0.0000,0.0000,0.0000,1.0000,0.2442,0.0012,0.0241
3580716,Left,2,0.0070,-0.0003,-0.9793,0.2022,0.0082,0.0014,0.0013,-0.0950,-0.0899,-0.0829,-0.0102,0.0797,9.7303,0.0001,0.0000,0.0000,1.0000,-0.0003,0.0020,0.2433
3580716,Right,2,0.0071,0.0057,-1.0000,0.0024,0.0019,0.0062,-0.0029,-0.1443,-0.0864,-0.0449,0.0046,-0.0245,9.7692,0.0000,0.0001,-0.0000,1.0000,0.0001,-0.0006,0.2442
3580716,Pelvis,2,-0.6709,-0.0189,-0.7409,0.0216,-0.0007,0.0008,0.0018,-0.0034,-0.0662,-0.0067,9.7586,0.0567,0.9632,-0.0000,0.0000,0.0000,1.0000,0.2440,0.0014,0.0241
3580717,Left,2,0.0070,-0.0003,-0.9793,0.2022,0.0097,0.0027,0.0015,-0.0993,-0.0787,-0.0961,-0.0105,0.0674,9.7172,0.0001,0.0000,0.0000,1.0000,-0.0003,0.0017,0.2429
3580717,Right,2,0.0071,0.0057,-1.0000,0.0024,0.0029,0.0052,-0.0013,-0.1327,-0.0938,-0.0515,-0.0069,-0.0171,9.7626,0.0000,0.0001,-0.0000,1.0000,-0.0002,-0.0004,0.2441
3580717,Pelvis,2,-0.6709,-0.0189,-0.7410,0.0216,0.0031,0.0012,0.0013,0.0075,-0.0571,-0.0073,9.7568,0.0482,0.9745,0.0000,0.0000,0.0000,1.0000,0.2439,0.0012,0.0244
3580718,Left,2,0.0070,-0.0003,-0.9793,0.2022,0.0102,0.0017,0.0026,-0.0800,-0.0984,-0.0783,-0.0207,0.0933,9.7348,0.0001,0.0000,0.0000,1.0000,-0.0005,0.0023,0.2434
3580718,Right,2,0.0071,0.0057,-1.0000,0.0024,0.0031,0.0057,-0.0026,-0.1475,-0.0831,-0.0298,0.0076,-0.0281,9.7843,0.0000,0.0001,-0.0000,1.0000,0.0002,-0.0007,0.2446
3580718,Pelvis,2,-0.6710,-0.0189,-0.7409,0.0216,0.0012,-0.0000,0.0007,-0.0128,-0.0638,0.0028,9.7690,0.0538,0.9549,0.0000,-0.0000,0.0000,1.0000,0.2442,0.0013,0.0239
3580719,Left,2,0.0070,-0.0003,-0.9793,0.2022,0.0107,0.0014,0.0035,-0.0871,-0.0875,-0.1050,-0.0180,0.0805,9.7081,0.0001,0.0000,0.0000,1.0000,-0.0004,0.0020,0.2427
3580719,Right,2,0.0071,0.0057,-1.0000,0.0025,0.0018,0.0044,-0.0014,-0.1216,-0.0990,-0.0343,-0.0181,-0.0120,9.7797,0.0000,0.0001,-0.0000,1.0000,-0.0004,-0.0003,0.2445
3580719,Pelvis,2,-0.6710,-0.0189,-0.7409,0.0216,0.0012,0.0013,0.0018,-0.0019,-0.0555,-0.0075,9.7576,0.0462,0.9651,0.0000,0.0000,0.0000,1.0000,0.2439,0.0012,0.0241
3580720,Left,2,0.0070,-0.0003,-0.9793,0.2022,0.0083,0.0017,0.0005,-0.0893,-0.0979,-0.0829,-0.0120,0.0892,9.7302,0.0001,0.0000,0.0000,1.0000,-0.0003,0.0022,0.2433
3580720,Right,2,0.0071,0.0057,-1.0000,0.0025,0.0018,0.0050,-0.0021,-0.1302,-0.0866,-0.0486,-0.0092,-0.0246,9.7653,0.0000,0.0001,-0.0000,1.0000,-0.0002,-0.0006,0.2441
3580720,Pelvis,2,-0.6710,-0.0189,-0.7409,0.0215,0.0012,0.0006,0.0012,-0.0123,-0.0640,-0.0069,9.7593,0.0541,0.9544,0.0000,0.0000,0.0000,1.0000,0.2440,0.0014,0.0239
3580721,Left,2,0.0070,-0.0003,-0.9793,0.2022,0.0096,0.0021,0.0017,-0.0786,-0.0978,-0.0849,-0.0218,0.0931,9.7281,0.0001,0.0000,0.0000,1.0000,-0.0005,0.0023,0.2432
3580721,Right,2,0.0071,0.0057,-1.0000,0.0025,0.0029,0.0070,-0.0021,-0.1258,-0.1057,-0.0542,-0.0135,-0.0055,9.7598,0.0000,0.0001,-0.0000,1.0000,-0.0003,-0.0001,0.2440
3580721,Pelvis,2,-0.6709,-0.0189,-0.7410,0.0215,0.0019,0.0018,0.0012,0.0064,-0.0744,0.0040,9.7684,0.0655,0.9734,0.0000,0.0000,0.0000,1.0000,0.2442,0.0016,0.0243
3580722,Left,2,0.0070,-0.0003,-0.9793,0.2022,0.0102,0.0020,0.0032,-0.0865,-0.1019,-0.0830,-0.0129,0.0937,9.7302,0.0001,0.0000,0.0000,1.0000,-0.0003,0.0023,0.2433
3580722,Right,2,0.0071,0.0057,-1.0000,0.0025,0.0037,0.0046,-0.0017,-0.1506,-0.0819,-0.0469,0.0110,-0.0294,9.7672,0.0000,0.0001,-0.0000,1.0000,0.0003,-0.0007,0.2442
3580722,Pelvis,2,-0.6709,-0.0189,-0.7410,0.0215,0.0018,0.0012,0.0012,0.0066,-0.0749,-0.0057,9.7586,0.0661,0.9729,0.0000,0.0000,0.0000,1.0000,0.2440,0.0017,0.0243
3580723,Left,2,0.0070,-0.0003,-0.9793,0.2022,0.0096,0.0029,0.0034,-0.0880,-0.0972,-0.0896,-0.0134,0.0889,9.7236,0.0001,0.0000,0.0000,1.0000,-0.0003,0.0022,0.2431
3580723,Right,2,0.0071,0.0057,-1.0000,0.0025,0.0035,0.0059,-0.0012,-0.1348,-0.0912,-0.0449,-0.0047,-0.0199,9.7692,0.0000,0.0001,-0.0000,1.0000,-0.0001,-0.0005,0.2442
3580723,Pelvis,2,-0.6709,-0.0189,-0.7410,0.0215,0.0013,0.0012,0.0006,0.0076,-0.0632,0.0129,9.7770,0.0546,0.9764,0.0000,0.0000,0.0000,1.0000,0.2444,0.0014,0.0244
3580724,Left,2,0.0070,-0.0003,-0.9793,0.2022,0.0103,0.0023,0.0024,-0.0680,-0.0813,-0.0796,-0.0383,0.0822,9.7332,0.0001,0.0000,0.0000,1.0000,-0.0009,0.0020,0.2433
3580724,Right,2,0.0071,0.0057,-1.0000,0.0025,0.0030,0.0058,-0.0020,-0.1421,-0.0945,-0.0411,0.0025,-0.0166,9.7730,0.0000,0.0001,-0.0000,1.0000,0.0001,-0.0004,0.2443
3580724,Pelvis,2,-0.6709,-0.0189,-0.7410,0.0215,0.0006,0.0013,0.0018,0.0089,-0.0540,0.0024,9.7664,0.0456,0.9772,0.0000,0.0000,0.0000,1.0000,0.2442,0.0011,0.0244
3580725,Left,2,0.0070,-0.0003,-0.9793,0.2022,0.0095,0.0016,0.0020,-0.0880,-0.0946,-0.0962,-0.0144,0.0865,9.7170,0.0001,0.0000,0.0000,1.0000,-0.0004,0.0021,0.2429
3580725,Right,2,0.0071,0.0057,-1.0000,0.0025,0.0025,0.0045,-0.0019,-0.1381,-0.0879,-0.0297,-0.0017,-0.0233,9.7843,0.0000,0.0001,-0.0000,1.0000,-0.0000,-0.0006,0.2446
3580725,Pelvis,2,-0.6709,-0.0189,-0.7410,0.0215,0.0018,0.0012,0.0012,-0.0014,-0.0632,-0.0067,9.7584,0.0542,0.9656,0.0000,0.0000,0.0000,1.0000,0.2440,0.0014,0.0241
3580726,Left,2,0.0070,-0.0003,-0.9793,0.2022,0.0111,0.0031,0.0014,-0.0774,-0.0808,-0.0843,-0.0298,0.0782,9.7287,0.0001,0.0000,0.0000,1.0000,-0.0007,0.0019,0.2432
3580726,Right,2,0.0071,0.0057,-1.0000,0.0025,0.0019,0.0056,-0.0028,-0.1350,-0.0914,-0.0534,-0.0043,-0.0197,9.7606,0.0000,0.0001,-0.0000,1.0000,-0.0001,-0.0005,0.2440
3580726,Pelvis,2,-0.6709,-0.0189,-0.7410,0.0215,0.0019,0.0031,0.0011,-0.0119,-0.0708,0.0036,9.7697,0.0613,0.9560,0.0000,0.0000,0.0000,1.0000,0.2442,0.0015,0.0239
3580727,Left,2,0.0070,-0.0003,-0.9793,0.2022,0.0094,0.0015,0.0034,-0.0787,-0.0898,-0.1047,-0.0248,0.0860,9.7083,0.0001,0.0000,0.0000,1.0000,-0.0006,0.0021,0.2427
3580727,Right,2,0.0071,0.0057,-1.0000,0.0025,0.0027,0.0050,-0.0032,-0.1265,-0.0803,-0.0542,-0.0127,-0.0309,9.7595,0.0000,0.0001,-0.0000,1.0000,-0.0003,-0.0008,0.2440
3580727,Pelvis,2,-0.6709,-0.0189,-0.7410,0.0215,0.0019,0.0005,0.0000,0.0088,-0.0635,-0.0065,9.7575,0.0554,0.9762,0.0000,0.0000,0.0000,1.0000,0.2439,0.0014,0.0244
3580728,Left,2,0.0070,-0.0003,-0.9793,0.2022,0.0097,0.0024,0.0009,-0.0838,-0.0937,-0.0892,-0.0187,0.0875,9.7239,0.0001,0.0000,0.0000,1.0000,-0.0005,0.0022,0.2431
3580728,Right,2,0.0071,0.0057,-1.0000,0.0025,0.0017,0.0057,-0.0016,-0.1340,-0.0900,-0.0297,-0.0055,-0.0217,9.7843,0.0000,0.0001,-0.0000,1.0000,-0.0001,-0.0005,0.2446
3580728,Pelvis,2,-0.6709,-0.0189,-0.7410,0.0215,0.0006,0.0019,0.0017,-0.0105,-0.0606,0.0028,9.7687,0.0514,0.9581,0.0000,0.0000,0.0000,1.0000,0.2442,0.0013,0.0239
3580729,Left,2,0.0070,-0.0003,-0.9793,0.2022,0.0090,0.0024,0.0022,-0.0759,-0.0869,-0.0978,-0.0286,0.0843,9.7152,0.0001,0.0000,0.0000,1.0000,-0.0007,0.0021,0.2429
3580729,Right,2,0.0071,0.0057,-1.0000,0.0025,0.0026,0.0050,-0.0026,-0.1282,-0.0862,-0.0419,-0.0111,-0.0255,9.7719,0.0000,0.0001,-0.0000,1.0000,-0.0003,-0.0006,0.2443
3580729,Pelvis,2,-0.6709,-0.0189,-0.7410,0.0215,0.0013,0.0019,0.0011,-0.0199,-0.0602,-0.0071,9.7597,0.0505,0.9480,0.0000,0.0000,0.0000,1.0000,0.2440,0.0013,0.0237
3580730,Left,2,0.0070,-0.0003,-0.9793,0.2022,0.0103,0.0023,0.0024,-0.0960,-0.0865,-0.1004,-0.0103,0.0759,9.7128,0.0001,0.0000,0.0000,1.0000,-0.0003,0.0019,0.2428
3580730,Right,2,0.0071,0.0057,-1.0000,0.0025,0.0023,0.0058,-0.0015,-0.1443,-0.0920,-0.0345,0.0049,-0.0200,9.7796,0.0000,0.0001,-0.0000,1.0000,0.0001,-0.0005,0.2445
3580730,Pelvis,2,-0.6709,-0.0189,-0.7410,0.0215,0.0013,0.0018,0.0005,-0.0109,-0.0705,-0.0061,9.7599,0.0614,0.9567,0.0000,0.0000,0.0000,1.0000,0.2440,0.0015,0.0239
3580731,Left,2,0.0070,-0.0003,-0.9793,0.2022,0.0096,0.0026,0.0029,-0.0795,-0.0996,-0.0893,-0.0205,0.0946,9.7238,0.0001,0.0000,0.0000,1.0000,-0.0005,0.0023,0.2431
3580731,Right,2,0.0071,0.0057,-1.0000,0.0025,0.0024,0.0051,-0.0020,-0.1300,-0.0921,-0.0296,-0.0094,-0.0200,9.7843,0.0000,0.0001,-0.0000,1.0000,-0.0002,-0.0005,0.2446
3580731,Pelvis,2,-0.6709,-0.0189,-0.7410,0.0215,0.0024,0.0013,0.0019,-0.0108,-0.0694,0.0036,9.7695,0.0603,0.9580,0.0000,0.0000,0.0000,1.0000,0.2442,0.0015,0.0239
3580732,Left,2,0.0070,-0.0003,-0.9793,0.2022,0.0096,0.0024,0.0023,-0.0933,-0.0835,-0.0935,-0.0142,0.0743,9.7197,0.0001,0.0000,0.0000,1.0000,-0.0003,0.0018,0.2430
3580732,Right,2,0.0071,0.0058,-1.0000,0.0026,0.0017,0.0057,-0.0016,-0.1242,-0.0882,-0.0419,-0.0150,-0.0238,9.7719,0.0000,0.0001,-0.0000,1.0000,-0.0004,-0.0006,0.2443
3580732,Pelvis,2,-0.6709,-0.0189,-0.7410,0.0215,0.0012,0.0006,0.0006,0.0001,-0.0602,0.0030,9.7678,0.0519,0.9692,0.0000,0.0000,0.0000,1.0000,0.2442,0.0013,0.0242
3580733,Left,2,0.0070,-0.0003,-0.9793,0.2022,0.0093,0.0014,0.0047,-0.0825,-0.0835,-0.0955,-0.0241,0.0784,9.7176,0.0001,0.0000,0.0001,1.0000,-0.0006,0.0019,0.2429
3580733,Right,2,0.0071,0.0057,-1.0000,0.0026,0.0032,0.0051,-0.0025,-0.1386,-0.1033,-0.0373,-0.0005,-0.0090,9.7769,0.0000,0.0001,-0.0000,1.0000,0.0000,-0.0002,0.2444
3580733,Pelvis,2,-0.6709,-0.0189,-0.7410,0.0215,0.0031,0.0012,0.0013,0.0002,-0.0591,0.0128,9.7775,0.0509,0.9704,0.0000,0.0000,0.0000,1.0000,0.2444,0.0013,0.0243
3580734,Left,2,0.0070,-0.0003,-0.9793,0.2022,0.0094,0.0010,0.0022,-0.0810,-0.0923,-0.1024,-0.0216,0.0870,9.7106,0.0001,0.0000,0.0000,1.0000,-0.0005,0.0021,0.2428
3580734,Right,2,0.0071,0.0057,-1.0000,0.0025,0.0026,0.0062,-0.0034,-0.1200,-0.0988,-0.0447,-0.0191,-0.0133,9.7692,0.0000,0.0001,-0.0000,1.0000,-0.0005,-0.0003,0.2442
3580734,Pelvis,2,-0.6709,-0.0189,-0.7410,0.0215,0.0013,0.0012,0.0006,-0.0001,-0.0710,-0.0156,9.7493,0.0628,0.9666,0.0000,0.0000,0.0000,1.0000,0.2437,0.0016,0.0242
3580735,Left,2,0.0070,-0.0003,-0.9793,0.2023,0.0094,0.0020,0.0045,-0.0954,-0.0982,-0.0850,-0.0061,0.0867,9.7283,0.0001,0.0000,0.0001,1.0000,-0.0001,0.0021,0.2432
3580735,Right,2,0.0071,0.0057,-1.0000,0.0026,0.0029,0.0058,-0.0014,-0.1418,-0.1000,-0.0222,0.0023,-0.0126,9.7920,0.0000,0.0001,-0.0000,1.0000,0.0001,-0.0003,0.2448
3580735,Pelvis,2,-0.6709,-0.0189,-0.7410,0.0214,0.0007,0.0019,0.0011,-0.0088,-0.0583,0.0028,9.7685,0.0499,0.9605,0.0000,0.0000,0.0000,1.0000,0.2442,0.0013,0.0240
3580736,Left,2,0.0070,-0.0003,-0.9793,0.2023,0.0093,0.0044,0.0007,-0.0874,-0.0983,-0.1005,-0.0134,0.0898,9.7127,0.0001,0.0001,0.0000,1.0000,-0.0003,0.0022,0.2428
3580736,Right,2,0.0071,0.0058,-1.0000,0.0026,0.0018,0.0062,-0.0023,-0.1386,-0.0969,-0.0667,-0.0004,-0.0152,9.7474,0.0000,0.0001,-0.0000,1.0000,0.0000,-0.0004,0.2437
3580736,Pelvis,2,-0.6709,-0.0189,-0.7410,0.0215,0.0024,0.0007,0.0025,-0.0191,-0.0669,0.0035,9.7702,0.0576,0.9498,0.0000,0.0000,0.0000,1.0000,0.2443,0.0014,0.0237
3580737,Left,2,0.0070,-0.0003,-0.9793,0.2023,0.0088,0.0013,0.0027,-0.0739,-0.0911,-0.0820,-0.0290,0.0884,9.7310,0.0001,0.0000,0.0000,1.0000,-0.0007,0.0022,0.2433
3580737,Right,2,0.0071,0.0058,-1.0000,0.0026,0.0030,0.0052,-0.0019,-0.1390,-0.0949,-0.0430,-0.0004,-0.0176,9.7711,0.0000,0.0001,-0.0000,1.0000,0.0000,-0.0005,0.2443
3580737,Pelvis,2,-0.6709,-0.0189,-0.7410,0.0215,0.0018,0.0000,0.0013,0.0201,-0.0702,0.0042,9.7671,0.0631,0.9884,0.0000,0.0000,0.0000,1.0000,0.2442,0.0016,0.0247
3580738,Left,2,0.0070,-0.0003,-0.9793,0.2023,0.0109,0.0020,0.0019,-0.0874,-0.0957,-0.1070,-0.0144,0.0871,9.7061,0.0001,0.0000,0.0000,1.0000,-0.0004,0.0021,0.2427
3580738,Right,2,0.0071,0.0058,-1.0000,0.0026,0.0018,0.0056,-0.0022,-0.1304,-0.0838,-0.0439,-0.0090,-0.0288,9.7700,0.0000,0.0001,-0.0000,1.0000,-0.0002,-0.0007,0.2443
3580738,Pelvis,2,-0.6709,-0.0189,-0.7410,0.0214,0.0007,0.0012,-0.0001,0.0020,-0.0592,-0.0067,9.7580,0.0513,0.9698,0.0000,0.0000,-0.0000,1.0000,0.2439,0.0013,0.0242
3580739,Left,2,0.0070,-0.0003,-0.9793,0.2023,0.0091,0.0032,0.0026,-0.0861,-0.0908,-0.1001,-0.0177,0.0833,9.7130,0.0001,0.0000,0.0000,1.0000,-0.0004,0.0021,0.2428
3580739,Right,2,0.0071,0.0058,-1.0000,0.0026,0.0029,0.0052,-0.0013,-0.1447,-0.0924,-0.0601,0.0056,-0.0202,9.7540,0.0000,0.0001,-0.0000,1.0000,0.0002,-0.0005,0.2439
3580739,Pelvis,2,-0.6709,-0.0189,-0.7410,0.0214,0.0018,0.0007,0.0019,-0.0085,-0.0669,0.0037,9.7694,0.0584,0.9599,0.0000,0.0000,0.0000,1.0000,0.2442,0.0015,0.0240
3580740,Left,2,0.0070,-0.0003,-0.9793,0.2023,0.0097,0.0032,0.0026,-0.0911,-0.0946,-0.0846,-0.0120,0.0847,9.7286,0.0001,0.0000,0.0000,1.0000,-0.0003,0.0021,0.2432
3580740,Right,2,0.0071,0.0058,-1.0000,0.0026,0.0027,0.0059,-0.0008,-0.1204,-0.1056,-0.0410,-0.0188,-0.0071,9.7730,0.0000,0.0001,-0.0000,1.0000,-0.0005,-0.0002,0.2443
3580740,Pelvis,2,-0.6709,-0.0189,-0.7410,0.0215,0.0018,0.0007,0.0025,0.0228,-0.0499,0.0026,9.7651,0.0431,0.9917,0.0000,0.0000,0.0000,1.0000,0.2441,0.0011,0.0248
3580741,Left,2,0.0071,-0.0003,-0.9793,0.2023,0.0110,0.0025,0.0017,-0.0803,-0.1014,-0.0936,-0.0193,0.0953,9.7195,0.0001,0.0000,0.0000,1.0000,-0.0005,0.0023,0.2430
3580741,Right,2,0.0071,0.0058,-1.0000,0.0026,0.0036,0.0059,-0.0018,-0.1350,-0.0884,-0.0401,-0.0045,-0.0243,9.7739,0.0000,0.0001,-0.0000,1.0000,-0.0001,-0.0006,0.2443
3580741,Pelvis,2,-0.6709,-0.0189,-0.7410,0.0215,0.0024,0.0005,0.0007,-0.0079,-0.0671,-0.0061,9.7596,0.0584,0.9593,0.0000,0.0000,0.0000,1.0000,0.2440,0.0015,0.0240
3580742,Left,2,0.0071,-0.0003,-0.9793,0.2023,0.0083,0.0032,0.0039,-0.0846,-0.0969,-0.1136,-0.0170,0.0894,9.6995,0.0001,0.0000,0.0000,1.0000,-0.0004,0.0022,0.2425
3580742,Right,2,0.0071,0.0058,-1.0000,0.0026,0.0027,0.0050,-0.0032,-0.1321,-0.0984,-0.0430,-0.0072,-0.0143,9.7711,0.0000,0.0001,-0.0000,1.0000,-0.0002,-0.0004,0.2443
3580742,Pelvis,2,-0.6709,-0.0189,-0.7410,0.0215,0.0013,0.0025,0.0017,0.0030,-0.0579,-0.0067,9.7579,0.0500,0.9707,0.0000,0.0000,0.0000,1.0000,0.2439,0.0013,0.0243
3580743,Left,2,0.0071,-0.0002,-0.9793,0.2023,0.0089,0.0019,0.0025,-0.0925,-0.1010,-0.1117,-0.0083,0.0897,9.7016,0.0001,0.0000,0.0000,1.0000,-0.0002,0.0022,0.2425
3580743,Right,2,0.0071,0.0058,-1.0000,0.0026,0.0017,0.0057,-0.0016,-0.1309,-0.1055,-0.0221,-0.0086,-0.0075,9.7920,0.0000,0.0001,-0.0000,1.0000,-0.0002,-0.0002,0.2448
3580743,Pelvis,2,-0.6709,-0.0189,-0.7410,0.0215,0.0031,0.0005,0.0001,-0.0073,-0.0664,-0.0061,9.7596,0.0580,0.9600,0.0000,0.0000,0.0000,1.0000,0.2440,0.0014,0.0240
3580744,Left,2,0.0070,-0.0002,-0.9793,0.2023,0.0090,0.0022,0.0017,-0.0883,-0.0959,-0.0912,-0.0144,0.0866,9.7220,0.0001,0.0000,0.0000,1.0000,-0.0004,0.0021,0.2430
3580744,Right,2,0.0071,0.0058,-1.0000,0.0027,0.0025,0.0045,-0.0019,-0.1324,-0.0813,-0.0372,-0.0069,-0.0317,9.7766,0.0000,0.0001,-0.0000,1.0000,-0.0002,-0.0008,0.2444
3580744,Pelvis,2,-0.6709,-0.0189,-0.7410,0.0215,0.0006,0.0007,0.0018,0.0124,-0.0679,-0.0057,9.7580,0.0607,0.9794,0.0000,0.0000,0.0000,1.0000,0.2440,0.0015,0.0245
3580745,Left,2,0.0070,-0.0002,-0.9793,0.2023,0.0095,0.0016,0.0020,-0.0869,-0.0979,-0.0912,-0.0148,0.0888,9.7220,0.0001,0.0000,0.0000,1.0000,-0.0004,0.0022,0.2430
3580745,Right,2,0.0071,0.0058,-1.0000,0.0027,0.0038,0.0052,-0.0023,-0.1382,-0.0938,-0.0363,-0.0009,-0.0192,9.7777,0.0000,0.0001,-0.0000,1.0000,-0.0000,-0.0005,0.2444
3580745,Pelvis,2,-0.6709,-0.0189,-0.7410,0.0214,0.0012,0.0006,0.0006,0.0038,-0.0562,0.0030,9.7675,0.0485,0.9722,0.0000,0.0000,0.0000,1.0000,0.2442,0.0012,0.0243
3580746,Left,2,0.0070,-0.0002,-0.9793,0.2023,0.0108,0.0014,0.0035,-0.1042,-0.0972,-0.0803,0.0008,0.0815,9.7331,0.0001,0.0000,0.0000,1.0000,0.0000,0.0020,0.2433
3580746,Right,2,0.0071,0.0058,-1.0000,0.0027,0.0024,0.0051,-0.0020,-0.1367,-0.0880,-0.0572,-0.0020,-0.0247,9.7568,0.0000,0.0001,-0.0000,1.0000,-0.0000,-0.0006,0.2439
3580746,Pelvis,2,-0.6709,-0.0189,-0.7410,0.0214,0.0012,0.0019,0.0018,-0.0064,-0.0664,-0.0158,9.7498,0.0581,0.9597,0.0000,0.0000,0.0000,1.0000,0.2437,0.0015,0.0240
3580747,Left,2,0.0070,-0.0002,-0.9793,0.2023,0.0090,0.0024,0.0022,-0.0777,-0.0794,-0.0858,-0.0304,0.0757,9.7272,0.0001,0.0000,0.0000,1.0000,-0.0008,0.0019,0.2432
3580747,Right,2,0.0071,0.0058,-1.0000,0.0027,0.0018,0.0050,-0.0021,-0.1354,-0.0887,-0.0572,-0.0032,-0.0242,9.7568,0.0000,0.0001,-0.0000,1.0000,-0.0001,-0.0006,0.2439
3580747,Pelvis,2,-0.6709,-0.0189,-0.7410,0.0215,0.0024,0.0006,0.0013,-0.0063,-0.0644,0.0037,9.7692,0.0561,0.9618,0.0000,0.0000,0.0000,1.0000,0.2442,0.0014,0.0240
3580748,Left,2,0.0071,-0.0002,-0.9793,0.2023,0.0091,0.0032,0.0026,-0.0885,-0.0837,-0.0973,-0.0189,0.0751,9.7158,0.0001,0.0000,0.0000,1.0000,-0.0005,0.0018,0.2429
3580748,Right,2,0.0071,0.0058,-1.0000,0.0027,0.0017,0.0051,-0.0015,-0.1486,-0.0873,-0.0383,0.0098,-0.0262,9.7759,0.0000,0.0001,-0.0000,1.0000,0.0003,-0.0007,0.2444
3580748,Pelvis,2,-0.6709,-0.0189,-0.7410,0.0215,0.0006,0.0007,0.0012,-0.0051,-0.0545,0.0029,9.7682,0.0462,0.9634,0.0000,0.0000,0.0000,1.0000,0.2442,0.0012,0.0241
3580749,Left,2,0.0071,-0.0002,-0.9793,0.2023,0.0097,0.0027,0.0015,-0.0878,-0.1009,-0.0688,-0.0133,0.0911,9.7444,0.0001,0.0000,0.0000,1.0000,-0.0003,0.0022,0.2436
3580749,Right,2,0.0071,0.0058,-1.0000,0.0027,0.0046,0.0064,-0.0036,-0.1356,-0.1038,-0.0477,-0.0030,-0.0094,9.7664,0.0001,0.0001,-0.0000,1.0000,-0.0001,-0.0002,0.2442
3580749,Pelvis,2,-0.6709,-0.0189,-0.7410,0.0215,0.0024,0.0006,0.0019,-0.0066,-0.0744,-0.0052,9.7604,0.0659,0.9599,0.0000,0.0000,0.0000,1.0000,0.2440,0.0017,0.0240
3580750,Left,2,0.0071,-0.0002,-0.9793,0.2023,0.0115,0.0016,0.0028,-0.0921,-0.0896,-0.0818,-0.0136,0.0792,9.7314,0.0001,0.0000,0.0000,1.0000,-0.0003,0.0019,0.2433
3580750,Right,2,0.0071,0.0058,-1.0000,0.0027,0.0026,0.0062,-0.0034,-0.1372,-0.0861,-0.0420,-0.0017,-0.0270,9.7720,0.0000,0.0001,-0.0000,1.0000,-0.0000,-0.0007,0.2443
3580750,Pelvis,2,-0.6709,-0.0189,-0.7410,0.0215,0.0019,0.0018,0.0012,0.0053,-0.0557,-0.0067,9.7577,0.0478,0.9726,0.0000,0.0000,0.0000,1.0000,0.2439,0.0012,0.0243
3580751,Left,2,0.0071,-0.0002,-0.9793,0.2023,0.0083,0.0027,0.0027,-0.0841,-0.0896,-0.0974,-0.0206,0.0824,9.7157,0.0001,0.0000,0.0000,1.0000,-0.0005,0.0020,0.2429
3580751,Right,2,0.0071,0.0058,-1.0000,0.0027,0.0019,0.0068,-0.0030,-0.1186,-0.0881,-0.0286,-0.0207,-0.0252,9.7852,0.0000,0.0001,-0.0000,1.0000,-0.0005,-0.0006,0.2446
3580751,Pelvis,2,-0.6709,-0.0189,-0.7410,0.0215,0.0018,0.0019,0.0024,0.0152,-0.0563,-0.0065,9.7569,0.0489,0.9826,0.0000,0.0000,0.0000,1.0000,0.2439,0.0012,0.0246
3580752,Left,2,0.0071,-0.0002,-0.9793,0.2023,0.0097,0.0024,0.0010,-0.0920,-0.0869,-0.0884,-0.0147,0.0765,9.7248,0.0001,0.0000,0.0000,1.0000,-0.0004,0.0019,0.2431
3580752,Right,2,0.0071,0.0058,-1.0000,0.0027,0.0036,0.0052,-0.0017,-0.1473,-0.0881,-0.0468,0.0082,-0.0252,9.7674,0.0000,0.0001,-0.0000,1.0000,0.0002,-0.0006,0.2442
3580752,Pelvis,2,-0.6709,-0.0189,-0.7410,0.0215,0.0013,0.0025,0.0011,0.0037,-0.0737,0.0047,9.7692,0.0655,0.9717,0.0000,0.0000,0.0000,1.0000,0.2442,0.0016,0.0243
3580753,Left,2,0.0071,-0.0002,-0.9793,0.2023,0.0096,0.0029,0.0034,-0.0811,-0.1004,-0.1043,-0.0191,0.0932,9.7087,0.0001,0.0000,0.0000,1.0000,-0.0005,0.0023,0.2427
3580753,Right,2,0.0071,0.0058,-1.0000,0.0027,0.0031,0.0057,-0.0026,-0.1487,-0.0960,-0.0582,0.0098,-0.0170,9.7561,0.0000,0.0001,-0.0000,1.0000,0.0003,-0.0004,0.2439
3580753,Pelvis,2,-0.6709,-0.0189,-0.7410,0.0215,0.0019,0.0019,0.0018,0.0147,-0.0654,-0.0057,9.7577,0.0578,0.9823,0.0000,0.0000,0.0000,1.0000,0.2439,0.0015,0.0246
3580754,Left,2,0.0071,-0.0002,-0.9793,0.2024,0.0088,0.0023,0.0050,-0.0769,-0.0886,-0.0769,-0.0282,0.0839,9.7361,0.0001,0.0000,0.0001,1.0000,-0.0007,0.0021,0.2434
3580754,Right,2,0.0071,0.0058,-1.0000,0.0027,0.0024,0.0063,-0.0022,-0.1360,-0.0934,-0.0297,-0.0033,-0.0199,9.7844,0.0000,0.0001,-0.0000,1.0000,-0.0001,-0.0005,0.2446
3580754,Pelvis,2,-0.6709,-0.0189,-0.7410,0.0215,0.0012,0.0006,0.0012,0.0139,-0.0740,0.0049,9.7684,0.0663,0.9821,0.0000,0.0000,0.0000,1.0000,0.2442,0.0017,0.0246
3580755,Left,2,0.0071,-0.0002,-0.9793,0.2024,0.0082,0.0039,0.0069,-0.0906,-0.0861,-0.0949,-0.0166,0.0759,9.7182,0.0001,0.0000,0.0001,1.0000,-0.0004,0.0019,0.2430
3580755,Right,2,0.0071,0.0058,-1.0000,0.0027,0.0018,0.0056,-0.0022,-0.1332,-0.1033,-0.0325,-0.0062,-0.0101,9.7816,0.0000,0.0001,-0.0000,1.0000,-0.0001,-0.0003,0.2445
3580755,Pelvis,2,-0.6709,-0.0189,-0.7410,0.0215,0.0018,0.0013,0.0018,-0.0042,-0.0630,-0.0060,9.7592,0.0542,0.9636,0.0000,0.0000,0.0000,1.0000,0.2440,0.0014,0.0241
3580756,Left,2,0.0071,-0.0001,-0.9793,0.2025,0.0071,0.0036,0.0117,-0.0584,-0.0817,-0.0874,-0.0484,0.0841,9.7253,0.0001,0.0000,0.0001,1.0000,-0.0012,0.0021,0.2431
3580756,Right,2,0.0071,0.0058,-1.0000,0.0027,0.0025,0.0056,-0.0027,-0.1377,-0.0928,-0.0382,-0.0018,-0.0207,9.7759,0.0000,0.0001,-0.0000,1.0000,-0.0000,-0.0005,0.2444
3580756,Pelvis,2,-0.6709,-0.0189,-0.7410,0.0215,0.0018,0.0012,0.0012,-0.0040,-0.0619,0.0037,9.7689,0.0531,0.9648,0.0000,0.0000,0.0000,1.0000,0.2442,0.0013,0.0241
3580757,Left,2,0.0071,-0.0002,-0.9796,0.2010,0.0124,0.0063,-0.1256,0.1062,-0.1330,-0.0931,-0.1800,0.1962,9.7175,0.0002,0.0001,-0.0016,1.0000,-0.0045,0.0049,0.2429
3580757,Right,2,0.0071,0.0058,-1.0000,0.0027,0.0022,0.0061,-0.0041,-0.1277,-0.0909,-0.0419,-0.0118,-0.0227,9.7720,0.0000,0.0001,-0.0001,1.0000,-0.0003,-0.0006,0.2443
3580757,Pelvis,2,-0.6709,-0.0189,-0.7410,0.0215,0.0012,0.0019,0.0018,0.0147,-0.0740,-0.0049,9.7586,0.0662,0.9821,0.0000,0.0000,0.0000,1.0000,0.2440,0.0017,0.0245
3580758,Left,2,0.0073,-0.0001,-0.9797,0.2001,0.0078,0.0114,-0.0687,-0.2443,-0.1054,-0.0826,0.1291,0.0328,9.7328,0.0001,0.0001,-0.0009,1.0000,0.0033,0.0008,0.2433
3580758,Right,2,0.0071,0.0058,-1.0000,0.0027,0.0027,0.0050,-0.0032,-0.1247,-0.1008,-0.0448,-0.0146,-0.0128,9.7692,0.0000,0.0001,-0.0000,1.0000,-0.0003,-0.0003,0.2442
3580758,Pelvis,2,-0.6709,-0.0189,-0.7410,0.0215,0.0019,0.0005,0.0000,-0.0036,-0.0622,-0.0060,9.7592,0.0534,0.9646,0.0000,0.0000,0.0000,1.0000,0.2440,0.0013,0.0241
3580759,Left,2,0.0074,0.0000,-0.9798,0.2000,0.0013,0.0169,-0.0041,0.3251,0.1001,-0.0781,-0.4782,0.0658,9.7285,0.0000,0.0002,-0.0001,1.0000,-0.0119,0.0016,0.2432
3580759,Right,2,0.0071,0.0058,-1.0000,0.0027,0.0030,0.0067,0.0004,-0.1291,-0.0903,-0.0504,-0.0102,-0.0233,9.7635,0.0000,0.0001,0.0000,1.0000,-0.0002,-0.0006,0.2441
3580759,Pelvis,2,-0.6709,-0.0189,-0.7410,0.0215,0.0006,0.0020,0.0023,0.0161,-0.0637,-0.0057,9.7576,0.0561,0.9841,0.0000,0.0000,0.0000,1.0000,0.2439,0.0014,0.0246
3580760,Left,2,0.0079,0.0010,-0.9794,0.2018,-0.0562,0.0586,0.1468,-0.1586,-0.4361,-0.1316,0.1697,0.3600,9.6840,-0.0007,0.0007,0.0018,1.0000,0.0044,0.0092,0.2421
3580760,Right,2,0.0071,0.0058,-1.0000,0.0027,0.0023,0.0051,-0.0014,-0.1423,-0.0889,-0.0315,0.0026,-0.0250,9.7826,0.0000,0.0001,-0.0000,1.0000,0.0001,-0.0006,0.2446
3580760,Pelvis,2,-0.6709,-0.0189,-0.7410,0.0215,0.0024,0.0005,0.0007,0.0057,-0.0723,-0.0050,9.7593,0.0639,0.9734,0.0000,0.0000,0.0000,1.0000,0.2440,0.0016,0.0243
3580761,Left,2,0.0090,0.0015,-0.9783,0.2068,-0.0200,0.0942,0.4106,0.0521,-0.4152,0.1060,-0.0515,0.4127,9.9188,-0.0003,0.0012,0.0051,1.0000,-0.0010,0.0104,0.2480
3580761,Right,2,0.0071,0.0058,-1.0000,0.0027,0.0026,0.0050,-0.0026,-0.1351,-0.0942,-0.0467,-0.0043,-0.0195,9.7674,0.0000,0.0001,-0.0000,1.0000,-0.0001,-0.0005,0.2442
3580761,Pelvis,2,-0.6709,-0.0189,-0.7410,0.0215,0.0025,0.0012,0.0012,0.0060,-0.0720,-0.0050,9.7593,0.0637,0.9736,0.0000,0.0000,0.0000,1.0000,0.2440,0.0016,0.0243
3580762,Left,2,0.0116,0.0015,-0.9772,0.2119,0.0511,0.2016,0.4200,-0.1634,0.0835,-0.1925,-0.0850,-0.1288,9.6207,0.0006,0.0025,0.0053,1.0000,-0.0015,-0.0034,0.2405
3580762,Right,2,0.0071,0.0058,-1.0000,0.0027,0.0023,0.0058,-0.0015,-0.1352,-0.0857,-0.0438,-0.0042,-0.0282,9.7702,0.0000,0.0001,-0.0000,1.0000,-0.0001,-0.0007,0.2443
3580762,Pelvis,2,-0.6709,-0.0189,-0.7410,0.0215,0.0012,0.0013,0.0012,-0.0025,-0.0620,-0.0158,9.7494,0.0532,0.9648,0.0000,0.0000,0.0000,1.0000,0.2437,0.0013,0.0241
3580763,Left,2,0.0150,-0.0006,-0.9760,0.2170,0.2234,0.2337,0.4285,0.1673,-0.3448,0.0882,-0.2662,0.4319,9.8954,0.0028,0.0029,0.0054,1.0000,-0.0060,0.0101,0.2474
3580763,Right,2,0.0071,0.0059,-1.0000,0.0027,0.0017,0.0059,-0.0048,-0.1339,-0.0864,-0.0438,-0.0056,-0.0277,9.7702,0.0000,0.0001,-0.0001,1.0000,-0.0001,-0.0007,0.2443
3580763,Pelvis,2,-0.6709,-0.0189,-0.7410,0.0215,0.0006,0.0013,0.0012,0.0162,-0.0723,-0.0048,9.7584,0.0647,0.9839,0.0000,0.0000,0.0000,1.0000,0.2440,0.0016,0.0246
3580764,Left,2,0.0191,-0.0115,-0.9743,0.2242,0.9304,0.1375,0.6089,-0.1626,-0.6655,-0.1205,0.1367,0.7193,9.6890,0.0116,0.0017,0.0076,0.9999,0.0037,0.0152,0.2424
3580764,Right,2,0.0071,0.0058,-1.0000,0.0027,0.0030,0.0058,-0.0020,-0.1396,-0.0989,-0.0429,0.0001,-0.0154,9.7713,0.0000,0.0001,-0.0000,1.0000,0.0000,-0.0004,0.2443
3580764,Pelvis,2,-0.6709,-0.0188,-0.7410,0.0215,0.0017,0.0001,0.0025,0.0068,-0.0712,-0.0050,9.7592,0.0628,0.9744,0.0000,0.0000,0.0000,1.0000,0.2440,0.0016,0.0244
3580765,Left,2,0.0243,-0.0201,-0.9714,0.2354,0.7561,0.2690,0.9299,-0.3285,-0.1679,0.5239,0.0068,0.4262,10.3346,0.0095,0.0034,0.0116,0.9999,0.0009,0.0082,0.2584
3580765,Right,2,0.0071,0.0059,-1.0000,0.0027,0.0024,0.0057,-0.0021,-0.1382,-0.0996,-0.0429,-0.0013,-0.0147,9.7713,0.0000,0.0001,-0.0000,1.0000,-0.0000,-0.0004,0.2443
3580765,Pelvis,2,-0.6709,-0.0189,-0.7410,0.0215,0.0026,0.0030,0.0005,-0.0115,-0.0584,0.0035,9.7694,0.0491,0.9578,0.0000,0.0000,0.0000,1.0000,0.2442,0.0012,0.0239
3580766,Left,2,0.0359,-0.0161,-0.9690,0.2437,-0.0948,0.9937,0.6703,-0.1125,0.4910,3.1121,-0.7723,0.1556,12.9109,-0.0012,0.0124,0.0084,0.9999,-0.0153,0.0041,0.3230
3580766,Right,2,0.0071,0.0058,-1.0000,0.0027,0.0032,0.0045,-0.0024,-0.1326,-0.1022,-0.0343,-0.0069,-0.0121,9.7798,0.0000,0.0001,-0.0000,1.0000,-0.0002,-0.0003,0.2445
3580766,Pelvis,2,-0.6709,-0.0189,-0.7410,0.0215,0.0007,0.0019,0.0011,-0.0014,-0.0599,-0.0060,9.7589,0.0512,0.9672,0.0000,0.0000,0.0000,1.0000,0.2440,0.0013,0.0242
3580767,Left,2,0.0500,0.0019,-0.9676,0.2476,-1.1216,1.4558,0.2623,-0.4918,0.0863,6.9111,-0.9427,0.2755,16.7039,-0.0140,0.0182,0.0033,0.9997,-0.0160,0.0127,0.4178
3580767,Right,2,0.0071,0.0059,-1.0000,0.0027,0.0016,0.0069,-0.0018,-0.1386,-0.0825,-0.0371,-0.0010,-0.0319,9.7768,0.0000,0.0001,-0.0000,1.0000,-0.0000,-0.0008,0.2444
3580767,Pelvis,2,-0.6709,-0.0189,-0.7410,0.0214,0.0013,0.0011,-0.0006,-0.0110,-0.0578,0.0035,9.7693,0.0489,0.9588,0.0000,0.0000,-0.0000,1.0000,0.2442,0.0012,0.0240
3580768,Left,2,0.0593,0.0283,-0.9670,0.2460,-1.8408,1.2477,-0.2161,-0.6427,-1.6945,6.8697,-0.5210,1.1446,16.7356,-0.0230,0.0156,-0.0027,0.9996,-0.0064,0.0383,0.4177
3580768,Right,2,0.0071,0.0058,-1.0000,0.0027,0.0044,0.0053,-0.0022,-0.1341,-0.1016,-0.0429,-0.0054,-0.0127,9.7713,0.0001,0.0001,-0.0000,1.0000,-0.0001,-0.0003,0.2443
3580768,Pelvis,2,-0.6709,-0.0189,-0.7410,0.0214,0.0013,0.0024,0.0005,0.0078,-0.0690,0.0047,9.7687,0.0615,0.9771,0.0000,0.0000,0.0000,1.0000,0.2442,0.0015,0.0244
3580769,Left,2,0.0555,0.0470,-0.9675,0.2421,-1.4938,0.0836,-0.4082,-0.6304,-3.6560,10.2474,-0.3346,2.0139,20.2990,-0.0187,0.0010,-0.0051,0.9998,-0.0075,0.0598,0.5064
3580769,Right,2,0.0071,0.0058,-1.0000,0.0027,0.0023,0.0051,-0.0014,-0.1398,-0.1075,-0.0628,0.0007,-0.0064,9.7515,0.0000,0.0001,-0.0000,1.0000,0.0000,-0.0002,0.2438
3580769,Pelvis,2,-0.6709,-0.0189,-0.7410,0.0214,0.0013,0.0024,-0.0001,-0.0111,-0.0694,-0.0248,9.7411,0.0610,0.9557,0.0000,0.0000,-0.0000,1.0000,0.2435,0.0015,0.0239
3580770,Left,2,0.0191,0.0492,-0.9693,0.2402,-0.8516,-2.7688,-0.3252,-1.8510,-6.4648,22.5383,1.5374,2.3819,32.9277,-0.0106,-0.0346,-0.0041,0.9993,0.0102,0.0682,0.8232
3580770,Right,2,0.0071,0.0059,-1.0000,0.0028,0.0024,0.0057,-0.0021,-0.1458,-0.1009,-0.0239,0.0062,-0.0137,9.7904,0.0000,0.0001,-0.0000,1.0000,0.0002,-0.0003,0.2448
3580770,Pelvis,2,-0.6709,-0.0189,-0.7410,0.0214,0.0012,0.0006,0.0012,-0.0200,-0.0559,0.0034,9.7700,0.0473,0.9506,0.0000,0.0000,0.0000,1.0000,0.2442,0.0012,0.0238
3580771,Left,2,-0.0471,0.0564,-0.9669,0.2443,-1.8350,-5.0171,0.0947,2.1616,-7.0135,29.8425,1.4577,2.8406,40.2320,-0.0229,-0.0627,0.0012,0.9978,-0.0267,0.0941,1.0035
3580771,Right,2,0.0071,0.0059,-1.0000,0.0028,0.0024,0.0057,-0.0021,-0.1416,-0.0812,-0.0542,0.0023,-0.0330,9.7598,0.0000,0.0001,-0.0000,1.0000,0.0001,-0.0008,0.2440
3580771,Pelvis,2,-0.6709,-0.0189,-0.7410,0.0214,0.0025,0.0018,0.0012,0.0201,-0.0497,0.0033,9.7659,0.0434,0.9908,0.0000,0.0000,0.0000,1.0000,0.2441,0.0011,0.0248
3580772,Left,2,-0.1224,0.0867,-0.9555,0.2540,-3.8288,-5.3175,0.7551,10.7536,-4.7779,23.4240,-2.6737,3.1893,35.0517,-0.0478,-0.0664,0.0094,0.9966,-0.1256,0.1203,0.8641
3580772,Right,2,0.0071,0.0059,-1.0000,0.0028,0.0025,0.0063,-0.0028,-0.1258,-0.0970,-0.0314,-0.0138,-0.0175,9.7826,0.0000,0.0001,-0.0000,1.0000,-0.0003,-0.0004,0.2446
3580772,Pelvis,2,-0.6709,-0.0189,-0.7410,0.0214,0.0018,0.0013,0.0018,-0.0018,-0.0766,0.0054,9.7703,0.0689,0.9677,0.0000,0.0000,0.0000,1.0000,0.2443,0.0017,0.0242
3580773,Left,2,-0.1823,0.1486,-0.9357,0.2632,-5.9899,-3.5796,1.2957,16.7794,-1.9727,6.4244,-9.0184,4.3866,21.2067,-0.0748,-0.0447,0.0162,0.9961,-0.2507,0.1444,0.5094
3580773,Right,2,0.0071,0.0059,-1.0000,0.0028,0.0017,0.0051,-0.0015,-0.1475,-0.0852,-0.0504,0.0080,-0.0294,9.7637,0.0000,0.0001,-0.0000,1.0000,0.0002,-0.0007,0.2441
3580773,Pelvis,2,-0.6709,-0.0189,-0.7410,0.0214,0.0019,0.0024,0.0011,-0.0102,-0.0664,-0.0054,9.7604,0.0584,0.9590,0.0000,0.0000,0.0000,1.0000,0.2440,0.0015,0.0240
3580774,Left,2,-0.2208,0.2294,-0.9122,0.2581,-7.2120,-1.4652,0.8418,15.6138,3.0624,-11.8611,-14.4928,4.8619,4.8870,-0.0900,-0.0183,0.0105,0.9957,-0.3657,0.1276,0.1042
3580774,Right,2,0.0071,0.0059,-1.0000,0.0028,0.0019,0.0056,-0.0028,-0.1317,-0.0945,-0.0485,-0.0077,-0.0203,9.7655,0.0000,0.0001,-0.0000,1.0000,-0.0002,-0.0005,0.2441
3580774,Pelvis,2,-0.6709,-0.0189,-0.7410,0.0214,0.0006,0.0006,-0.0000,-0.0092,-0.0547,0.0133,9.7787,0.0470,0.9626,0.0000,0.0000,-0.0000,1.0000,0.2445,0.0012,0.0241
3580775,Left,2,-0.2610,0.2980,-0.8874,0.2358,-6.6898,-1.5503,-0.6432,8.6835,7.0386,-24.0642,-14.9742,6.0467,-8.2215,-0.0835,-0.0194,-0.0080,0.9963,-0.3690,0.1359,-0.2245
3580775,Right,2,0.0071,0.0059,-1.0000,0.0028,0.0029,0.0058,-0.0014,-0.1304,-0.1017,-0.0276,-0.0093,-0.0134,9.7865,0.0000,0.0001,-0.0000,1.0000,-0.0002,-0.0003,0.2447
3580775,Pelvis,2,-0.6709,-0.0189,-0.7410,0.0214,0.0024,-0.0001,0.0007,0.0000,-0.0667,-0.0052,9.7596,0.0597,0.9691,0.0000,-0.0000,0.0000,1.0000,0.2440,0.0015,0.0242
3580776,Left,2,-0.3440,0.3234,-0.8536,0.2203,-4.4936,-5.7555,-1.9054,-5.3116,5.3947,-30.9803,-7.5544,9.5154,-18.9542,-0.0561,-0.0718,-0.0238,0.9956,-0.1483,0.2142,-0.4980
3580776,Right,2,0.0071,0.0059,-1.0000,0.0028,0.0033,0.0057,-0.0032,-0.1302,-0.1122,-0.0627,-0.0089,-0.0024,9.7515,0.0000,0.0001,-0.0000,1.0000,-0.0002,-0.0001,0.2438
3580776,Pelvis,2,-0.6709,-0.0189,-0.7410,0.0214,0.0018,0.0001,0.0019,-0.0104,-0.0743,0.0052,9.7710,0.0667,0.9589,0.0000,0.0000,0.0000,1.0000,0.2443,0.0017,0.0240
3580777,Left,2,-0.4441,0.3143,-0.8047,0.2376,-1.9222,-8.8092,-0.7959,-30.7293,10.0095,-41.4044,-4.5041,11.6078,-43.5436,-0.0240,-0.1099,-0.0099,0.9936,0.0109,0.2641,-1.0985
3580777,Right,2,0.0071,0.0059,-1.0000,0.0028,0.0037,0.0058,-0.0024,-0.1350,-0.0826,-0.0304,-0.0048,-0.0322,9.7835,0.0000,0.0001,-0.0000,1.0000,-0.0001,-0.0008,0.2446
3580777,Pelvis,2,-0.6709,-0.0189,-0.7410,0.0214,0.0013,0.0025,0.0011,0.0015,-0.0564,-0.0060,9.7586,0.0495,0.9708,0.0000,0.0000,0.0000,1.0000,0.2440,0.0012,0.0243
3580778,Left,2,-0.4800,0.2684,-0.7912,0.2676,3.0069,-4.4145,-0.3439,-50.0533,24.4690,-52.8754,-19.6557,6.2033,-67.3857,0.0376,-0.0551,-0.0043,0.9978,-0.3969,0.2207,-1.7008
3580778,Right,2,0.0071,0.0059,-1.0000,0.0028,0.0025,0.0056,-0.0027,-0.1292,-0.0787,-0.0426,-0.0104,-0.0359,9.7711,0.0000,0.0001,-0.0000,1.0000,-0.0002,-0.0009,0.2443
3580778,Pelvis,2,-0.6709,-0.0189,-0.7410,0.0214,0.0031,0.0012,0.0013,0.0122,-0.0457,0.0128,9.7761,0.0394,0.9841,0.0000,0.0000,0.0000,1.0000,0.2444,0.0010,0.0246
3580779,Left,2,-0.4019,0.1981,-0.8565,0.2564,7.1202,6.2055,-3.1345,-26.0578,12.6306,-56.0642,-23.9118,13.1712,-47.4099,0.0888,0.0774,-0.0391,0.9923,-0.6692,0.4551,-1.0983
3580779,Right,2,0.0071,0.0059,-1.0000,0.0028,0.0030,0.0064,-0.0021,-0.1335,-0.1004,-0.0447,-0.0061,-0.0142,9.7695,0.0000,0.0001,-0.0000,1.0000,-0.0001,-0.0004,0.2442
3580779,Pelvis,2,-0.6709,-0.0189,-0.7410,0.0214,0.0018,0.0012,0.0012,0.0002,-0.0752,-0.0044,9.7604,0.0682,0.9687,0.0000,0.0000,0.0000,1.0000,0.2440,0.0017,0.0242
3580780,Left,2,-0.2505,0.1420,-0.9312,0.2234,7.1279,12.2181,-3.2112,8.2949,-12.1534,-30.6591,-9.5722,22.4214,-7.8184,0.0886,0.1519,-0.0399,0.9836,-0.2371,0.5824,-0.1076
3580780,Right,2,0.0071,0.0059,-1.0000,0.0028,0.0031,0.0057,-0.0026,-0.1364,-0.0991,-0.0532,-0.0032,-0.0153,9.7609,0.0000,0.0001,-0.0000,1.0000,-0.0001,-0.0004,0.2440
3580780,Pelvis,2,-0.6709,-0.0189,-0.7410,0.0214,0.0024,0.0013,0.0019,0.0092,-0.0855,-0.0034,9.7606,0.0790,0.9772,0.0000,0.0000,0.0000,1.0000,0.2440,0.0020,0.0244
3580781,Left,2,-0.0744,0.1105,-0.9649,0.2262,5.9715,13.2754,0.9807,14.6615,-20.9503,-1.5064,-0.4574,21.2377,16.5865,0.0742,0.1650,0.0122,0.9834,0.0550,0.4986,0.4473
3580781,Right,2,0.0071,0.0059,-1.0000,0.0028,0.0024,0.0057,-0.0021,-0.1280,-0.0946,-0.0332,-0.0120,-0.0201,9.7808,0.0000,0.0001,-0.0000,1.0000,-0.0003,-0.0005,0.2445
3580781,Pelvis,2,-0.6709,-0.0189,-0.7410,0.0214,0.0007,0.0012,-0.0001,0.0132,-0.0456,0.0031,9.7664,0.0395,0.9840,0.0000,0.0000,-0.0000,1.0000,0.2442,0.0010,0.0246
3580782,Left,2,-0.0380,0.0173,-0.9662,0.2543,8.0624,0.8830,1.9121,20.3610,-8.3156,49.7132,-9.3282,7.6530,62.4174,0.1006,0.0110,0.0239,0.9946,-0.2179,0.0278,1.5712
3580782,Right,2,0.0072,0.0059,-1.0000,0.0028,0.0016,0.0069,-0.0018,-0.1396,-0.0959,-0.0380,-0.0005,-0.0190,9.7762,0.0000,0.0001,-0.0000,1.0000,0.0000,-0.0005,0.2444
3580782,Pelvis,2,-0.6709,-0.0189,-0.7410,0.0214,0.0029,-0.0006,0.0026,-0.0167,-0.0531,-0.0063,9.7600,0.0453,0.9529,0.0000,-0.0000,0.0000,1.0000,0.2440,0.0011,0.0238
3580783,Left,2,-0.0739,-0.0201,-0.9595,0.2712,2.2088,-3.5733,1.2867,8.1283,0.4468,52.3361,-0.4380,2.0863,62.6728,0.0276,-0.0446,0.0161,0.9985,-0.0813,0.0080,1.5649
3580783,Right,2,0.0072,0.0059,-1.0000,0.0028,0.0035,0.0065,-0.0019,-0.1352,-0.1150,-0.0437,-0.0050,0.0001,9.7706,0.0000,0.0001,-0.0000,1.0000,-0.0001,-0.0000,0.2443
3580783,Pelvis,2,-0.6709,-0.0189,-0.7410,0.0214,0.0012,-0.0000,0.0007,-0.0095,-0.0836,-0.0134,9.7524,0.0761,0.9573,0.0000,-0.0000,0.0000,1.0000,0.2438,0.0019,0.0239
3580784,Left,2,-0.0959,-0.0129,-0.9542,0.2832,-0.9381,-1.5443,1.1180,4.9376,3.1312,32.4975,1.5016,-0.6647,42.6844,-0.0117,-0.0193,0.0140,0.9996,0.0170,-0.0038,1.0677
3580784,Right,2,0.0072,0.0059,-1.0000,0.0028,0.0023,0.0058,-0.0015,-0.1381,-0.1071,-0.0731,-0.0019,-0.0074,9.7411,0.0000,0.0001,-0.0000,1.0000,-0.0000,-0.0002,0.2435
3580784,Pelvis,2,-0.6709,-0.0189,-0.7410,0.0214,0.0006,0.0020,0.0023,-0.0074,-0.0631,-0.0053,9.7602,0.0557,0.9613,0.0000,0.0000,0.0000,1.0000,0.2440,0.0014,0.0240
3580785,Left,2,-0.0817,0.0327,-0.9544,0.2853,-3.1350,2.1249,0.4938,4.8351,2.8090,14.8672,-1.4610,-1.4496,25.2310,-0.0392,0.0266,0.0062,0.9989,-0.0196,-0.0116,0.6322
3580785,Right,2,0.0072,0.0059,-1.0000,0.0028,0.0027,0.0056,-0.0033,-0.1386,-0.0795,-0.0322,-0.0022,-0.0356,9.7818,0.0000,0.0001,-0.0000,1.0000,-0.0000,-0.0009,0.2445
3580785,Pelvis,2,-0.6709,-0.0189,-0.7410,0.0214,0.0006,0.0007,0.0012,-0.0150,-0.0417,0.0026,9.7687,0.0337,0.9557,0.0000,0.0000,0.0000,1.0000,0.2442,0.0008,0.0239
3580786,Left,2,-0.0537,0.0882,-0.9549,0.2784,-3.6362,3.4322,-0.1050,1.8282,0.4760,5.2475,-0.3479,-1.7415,15.0839,-0.0454,0.0429,-0.0013,0.9980,0.0075,-0.0264,0.3785
3580786,Right,2,0.0072,0.0059,-1.0000,0.0028,0.0024,0.0057,-0.0021,-0.1098,-0.0881,-0.0255,-0.0310,-0.0269,9.7881,0.0000,0.0001,-0.0000,1.0000,-0.0008,-0.0007,0.2447
3580786,Pelvis,2,-0.6709,-0.0189,-0.7410,0.0214,0.0018,0.0000,0.0013,0.0116,-0.0732,0.0056,9.7692,0.0667,0.9805,0.0000,0.0000,0.0000,1.0000,0.2442,0.0017,0.0245
3580787,Left,2,-0.0441,0.1221,-0.9525,0.2755,-2.3889,1.5012,0.0448,-1.4543,-0.1861,-8.3233,1.3766,-0.9390,1.2617,-0.0299,0.0188,0.0006,0.9994,0.0350,-0.0225,0.0316
3580787,Right,2,0.0072,0.0059,-1.0000,0.0028,0.0039,0.0055,-0.0004,-0.1313,-0.1085,-0.0408,-0.0092,-0.0064,9.7734,0.0000,0.0001,-0.0000,1.0000,-0.0002,-0.0002,0.2443
3580787,Pelvis,2,-0.6709,-0.0189,-0.7410,0.0214,0.0019,0.0031,0.0017,0.0120,-0.0738,-0.0042,9.7595,0.0672,0.9799,0.0000,0.0000,0.0000,1.0000,0.2440,0.0017,0.0245
3580788,Left,2,-0.0493,0.1189,-0.9525,0.2759,0.1377,-0.4750,-0.0258,-0.2272,3.4493,-12.1178,-1.7107,-2.3537,-2.9659,0.0017,-0.0059,-0.0003,1.0000,-0.0423,-0.0587,-0.0745
3580788,Right,2,0.0072,0.0059,-1.0000,0.0028,0.0027,0.0056,-0.0033,-0.1530,-0.0967,-0.0598,0.0127,-0.0180,9.7546,0.0000,0.0001,-0.0000,1.0000,0.0003,-0.0005,0.2439
3580788,Pelvis,2,-0.6709,-0.0189,-0.7410,0.0214,-0.0006,0.0007,0.0005,-0.0353,-0.0600,-0.0156,9.7527,0.0508,0.9328,-0.0000,0.0000,0.0000,1.0000,0.2438,0.0013,0.0233
3580789,Left,2,-0.0530,0.0965,-0.9561,0.2717,1.6478,-0.7145,-0.5189,-0.0701,1.6463,-7.7092,-0.7381,-1.8884,1.7407,0.0206,-0.0089,-0.0065,0.9997,-0.0191,-0.0480,0.0424
3580789,Right,2,0.0072,0.0059,-1.0000,0.0028,0.0007,0.0060,-0.0032,-0.1331,-0.0823,-0.0321,-0.0077,-0.0329,9.7818,0.0000,0.0001,-0.0000,1.0000,-0.0002,-0.0008,0.2445
3580789,Pelvis,2,-0.6709,-0.0189,-0.7410,0.0214,0.0030,-0.0000,0.0014,-0.0052,-0.0503,0.0133,9.7784,0.0429,0.9659,0.0000,-0.0000,0.0000,1.0000,0.2445,0.0011,0.0241
3580790,Left,2,-0.0483,0.0768,-0.9609,0.2615,1.6161,0.0271,-0.9309,-1.1617,-1.4454,-2.1878,2.1305,-0.8376,7.5065,0.0202,0.0003,-0.0116,0.9997,0.0530,-0.0253,0.1872
3580790,Right,2,0.0072,0.0059,-1.0000,0.0028,0.0029,0.0046,-0.0012,-0.1142,-0.1034,-0.0568,-0.0260,-0.0117,9.7570,0.0000,0.0001,-0.0000,1.0000,-0.0006,-0.0003,0.2439
3580790,Pelvis,2,-0.6709,-0.0189,-0.7410,0.0214,0.0013,0.0024,0.0005,0.0032,-0.0736,-0.0238,9.7408,0.0668,0.9693,0.0000,0.0000,0.0000,1.0000,0.2435,0.0017,0.0242
3580791,Left,2,-0.0343,0.0679,-0.9647,0.2519,0.9735,0.9739,-0.7618,-2.3026,-3.3604,-0.5640,4.0649,0.2737,9.2491,0.0122,0.0122,-0.0095,0.9998,0.1045,0.0031,0.2300
3580791,Right,2,0.0072,0.0059,-1.0000,0.0028,0.0012,0.0062,-0.0024,-0.1532,-0.1099,-0.0266,0.0126,-0.0060,9.7879,0.0000,0.0001,-0.0000,1.0000,0.0003,-0.0002,0.2447
3580791,Pelvis,2,-0.6709,-0.0189,-0.7410,0.0214,0.0012,0.0013,0.0018,0.0022,-0.0797,0.0160,9.7805,0.0728,0.9720,0.0000,0.0000,0.0000,1.0000,0.2445,0.0018,0.0243
3580792,Left,2,-0.0224,0.0586,-0.9672,0.2463,0.9649,0.7635,-0.4408,-1.7063,-2.7470,-0.4004,3.0426,0.2866,9.4719,0.0121,0.0095,-0.0055,0.9999,0.0783,0.0039,0.2361
3580792,Right,2,0.0072,0.0059,-1.0000,0.0028,0.0041,0.0051,-0.0035,-0.1405,-0.0876,-0.0606,0.0002,-0.0278,9.7535,0.0001,0.0001,-0.0000,1.0000,0.0000,-0.0007,0.2438
3580792,Pelvis,2,-0.6709,-0.0189,-0.7410,0.0213,0.0013,0.0024,0.0005,-0.0035,-0.0414,-0.0070,9.7580,0.0343,0.9666,0.0000,0.0000,0.0000,1.0000,0.2440,0.0009,0.0242
3580793,Left,2,-0.0190,0.0443,-0.9690,0.2424,1.1876,0.0103,-0.3433,-0.0129,-1.2123,0.7557,0.7454,-0.1033,10.6115,0.0148,0.0001,-0.0043,0.9999,0.0186,-0.0066,0.2652
3580793,Right,2,0.0072,0.0059,-1.0000,0.0028,0.0017,0.0057,-0.0016,-0.1434,-0.0929,-0.0483,0.0030,-0.0227,9.7659,0.0000,0.0001,-0.0000,1.0000,0.0001,-0.0006,0.2441
3580793,Pelvis,2,-0.6709,-0.0189,-0.7410,0.0213,0.0024,0.0005,0.0007,0.0045,-0.0606,0.0046,9.7688,0.0541,0.9747,0.0000,0.0000,0.0000,1.0000,0.2442,0.0014,0.0244
3580794,Left,2,-0.0166,0.0309,-0.9705,0.2385,1.0914,-0.0567,-0.3434,1.8903,0.3855,2.6504,-1.6464,-0.4746,12.4950,0.0136,-0.0007,-0.0043,0.9999,-0.0414,-0.0159,0.3121
3580794,Right,2,0.0072,0.0059,-1.0000,0.0029,0.0030,0.0052,-0.0019,-0.1405,-0.1093,-0.0303,-0.0000,-0.0066,9.7840,0.0000,0.0001,-0.0000,1.0000,0.0000,-0.0002,0.2446
3580794,Pelvis,2,-0.6709,-0.0189,-0.7410,0.0213,0.0013,0.0019,0.0011,-0.0272,-0.0866,0.0065,9.7740,0.0783,0.9419,0.0000,0.0000,0.0000,1.0000,0.2444,0.0020,0.0235
3580795,Left,2,-0.0100,0.0214,-0.9716,0.2356,0.8745,0.3404,-0.2400,1.7646,0.6192,2.2598,-1.6890,-0.4253,12.0920,0.0109,0.0043,-0.0030,0.9999,-0.0410,-0.0138,0.3023
3580795,Right,2,0.0071,0.0059,-1.0000,0.0029,0.0014,0.0042,-0.0028,-0.1336,-0.0824,-0.0491,-0.0066,-0.0333,9.7648,0.0000,0.0001,-0.0000,1.0000,-0.0002,-0.0008,0.2441
3580795,Pelvis,2,-0.6709,-0.0189,-0.7410,0.0214,0.0023,0.0001,0.0026,-0.0035,-0.0519,-0.0256,9.7395,0.0449,0.9643,0.0000,0.0000,0.0000,1.0000,0.2435,0.0011,0.0241
3580796,Left,2,-0.0019,0.0149,-0.9728,0.2313,0.6680,0.5170,-0.3477,0.9012,0.6149,1.4380,-1.0469,-0.5649,11.2408,0.0084,0.0065,-0.0043,0.9999,-0.0244,-0.0164,0.2811
3580796,Right,2,0.0072,0.0059,-1.0000,0.0029,0.0037,0.0058,-0.0024,-0.1121,-0.0772,-0.0244,-0.0283,-0.0388,9.7892,0.0000,0.0001,-0.0000,1.0000,-0.0007,-0.0010,0.2447
3580796,Pelvis,2,-0.6709,-0.0188,-0.7410,0.0214,0.0006,0.0014,0.0024,0.0158,-0.0501,0.0137,9.7767,0.0439,0.9874,0.0000,0.0000,0.0000,1.0000,0.2444,0.0011,0.0247
3580797,Left,2,-0.0002,0.0072,-0.9742,0.2255,0.6342,-0.0010,-0.4739,-0.7374,-0.4190,1.3562,0.8138,-0.1972,11.1699,0.0079,-0.0000,-0.0059,1.0000,0.0203,-0.0073,0.2792
3580797,Right,2,0.0071,0.0059,-1.0000,0.0029,0.0025,0.0045,-0.0019,-0.1565,-0.1173,-0.0550,0.0168,0.0015,9.7596,0.0000,0.0001,-0.0000,1.0000,0.0004,0.0000,0.2440
3580797,Pelvis,2,-0.6709,-0.0188,-0.7410,0.0214,0.0030,0.0001,0.0026,-0.0059,-0.0796,-0.0134,9.7521,0.0718,0.9613,0.0000,0.0000,0.0000,1.0000,0.2438,0.0018,0.0240
3580798,Left,2,-0.0028,0.0036,-0.9748,0.2229,0.2434,-0.2639,-0.2114,-2.1083,-1.6824,2.2138,2.6383,0.4572,12.0310,0.0030,-0.0033,-0.0026,1.0000,0.0650,0.0103,0.3010
3580798,Right,2,0.0071,0.0059,-1.0000,0.0029,0.0019,0.0056,-0.0028,-0.1452,-0.1055,-0.0236,0.0051,-0.0108,9.7907,0.0000,0.0001,-0.0000,1.0000,0.0001,-0.0003,0.2448
3580798,Pelvis,2,-0.6709,-0.0188,-0.7410,0.0214,0.0019,0.0018,0.0012,-0.0058,-0.0784,-0.0037,9.7618,0.0705,0.9625,0.0000,0.0000,0.0000,1.0000,0.2440,0.0018,0.0241
3580799,Left,2,-0.0043,0.0039,-0.9739,0.2268,-0.0368,-0.1032,0.3222,-2.0950,-2.1975,0.8634,2.9017,0.9625,10.6701,-0.0005,-0.0013,0.0040,1.0000,0.0721,0.0245,0.2668
3580799,Right,2,0.0071,0.0059,-1.0000,0.0029,0.0025,0.0039,-0.0018,-0.1225,-0.0707,-0.0262,-0.0175,-0.0455,9.7874,0.0000,0.0000,-0.0000,1.0000,-0.0004,-0.0011,0.2447
3580799,Pelvis,2,-0.6709,-0.0189,-0.7410,0.0214,0.0018,0.0006,0.0013,0.0069,-0.0500,-0.0060,9.7580,0.0429,0.9766,0.0000,0.0000,0.0000,1.0000,0.2440,0.0011,0.0244
3580800,Left,2,-0.0032,0.0036,-0.9727,0.2322,0.0578,0.0728,0.4425,-0.1880,-0.1744,0.1757,0.3017,-0.0168,9.9871,0.0007,0.0009,0.0055,1.0000,0.0078,-0.0006,0.2497
3580800,Right,2,0.0071,0.0059,-1.0000,0.0029,0.0034,0.0044,-0.0030,-0.1267,-0.0924,-0.0282,-0.0128,-0.0238,9.7857,0.0000,0.0001,-0.0000,1.0000,-0.0003,-0.0006,0.2446
3580800,Pelvis,2,-0.6709,-0.0189,-0.7410,0.0214,0.0019,0.0019,0.0018,-0.0133,-0.0566,0.0042,9.7702,0.0484,0.9572,0.0000,0.0000,0.0000,1.0000,0.2443,0.0012,0.0239
3580801,Left,2,-0.0023,0.0032,-0.9729,0.2313,0.0562,0.0695,-0.0727,0.8149,1.2328,-0.3606,-1.2472,-0.8060,9.4510,0.0007,0.0009,-0.0009,1.0000,-0.0310,-0.0203,0.2363
3580801,Right,2,0.0071,0.0059,-1.0000,0.0029,0.0026,0.0050,-0.0026,-0.1380,-0.1194,-0.0502,-0.0008,0.0034,9.7642,0.0000,0.0001,-0.0000,1.0000,-0.0000,0.0001,0.2441
3580801,Pelvis,2,-0.6709,-0.0189,-0.7410,0.0214,0.0018,0.0007,0.0019,0.0044,-0.0767,0.0160,9.7803,0.0694,0.9748,0.0000,0.0000,0.0000,1.0000,0.2445,0.0017,0.0244
3580802,Left,2,-0.0009,0.0021,-0.9737,0.2280,0.1197,0.0888,-0.2674,0.5147,0.7275,-0.3347,-0.7673,-0.4754,9.4769,0.0015,0.0011,-0.0033,1.0000,-0.0190,-0.0122,0.2369
3580802,Right,2,0.0071,0.0059,-1.0000,0.0029,0.0037,0.0058,-0.0024,-0.1341,-0.0807,-0.0423,-0.0049,-0.0353,9.7715,0.0000,0.0001,-0.0000,1.0000,-0.0001,-0.0009,0.2443
3580802,Pelvis,2,-0.6709,-0.0188,-0.7410,0.0214,0.0012,0.0007,0.0018,0.0068,-0.0596,-0.0149,9.7492,0.0523,0.9751,0.0000,0.0000,0.0000,1.0000,0.2437,0.0013,0.0244
3580803,Left,2,-0.0004,0.0007,-0.9742,0.2258,0.1310,0.0197,-0.1805,-0.0979,0.0012,0.3261,0.0941,-0.0735,10.1385,0.0016,0.0002,-0.0023,1.0000,0.0024,-0.0023,0.2535
3580803,Right,2,0.0071,0.0059,-1.0000,0.0029,0.0026,0.0050,-0.0026,-0.1371,-0.0859,-0.0300,-0.0021,-0.0301,9.7840,0.0000,0.0001,-0.0000,1.0000,-0.0000,-0.0008,0.2446
3580803,Pelvis,2,-0.6709,-0.0188,-0.7410,0.0214,0.0025,0.0012,0.0012,-0.0213,-0.0450,0.0033,9.7699,0.0361,0.9497,0.0000,0.0000,0.0000,1.0000,0.2442,0.0009,0.0237
3580804,Left,2,-0.0007,0.0004,-0.9744,0.2246,0.0281,-0.0244,-0.0913,-0.1186,-0.0542,0.3100,0.1385,-0.0147,10.1225,0.0004,-0.0003,-0.0011,1.0000,0.0034,-0.0005,0.2531
3580804,Right,2,0.0071,0.0059,-1.0000,0.0029,0.0035,0.0065,-0.0019,-0.1240,-0.1024,-0.0396,-0.0150,-0.0134,9.7744,0.0000,0.0001,-0.0000,1.0000,-0.0004,-0.0003,0.2444
3580804,Pelvis,2,-0.6709,-0.0189,-0.7410,0.0214,0.0025,0.0012,0.0012,-0.0027,-0.0562,0.0044,9.7693,0.0485,0.9678,0.0000,0.0000,0.0000,1.0000,0.2442,0.0012,0.0242
3580805,Left,2,-0.0041,-0.0007,-0.9752,0.2212,0.0307,-0.2796,-0.2831,0.2536,0.3594,-0.2820,-0.3401,-0.2194,9.5323,0.0004,-0.0035,-0.0035,1.0000,-0.0094,-0.0055,0.2383
3580805,Right,2,0.0071,0.0059,-1.0000,0.0029,0.0025,0.0045,-0.0019,-0.1227,-0.1031,-0.0396,-0.0163,-0.0127,9.7744,0.0000,0.0001,-0.0000,1.0000,-0.0004,-0.0003,0.2444
3580805,Pelvis,2,-0.6709,-0.0189,-0.7410,0.0214,0.0023,-0.0019,0.0009,-0.0042,-0.0762,-0.0036,9.7616,0.0684,0.9640,0.0000,-0.0000,0.0000,1.0000,0.2440,0.0017,0.0241
3580806,Left,2,-0.0076,-0.0019,-0.9762,0.2166,0.0432,-0.2973,-0.3730,0.0165,-0.0482,-0.2423,0.1201,0.0519,9.5697,0.0005,-0.0037,-0.0047,1.0000,0.0021,0.0012,0.2393
3580806,Right,2,0.0071,0.0059,-1.0000,0.0029,0.0019,0.0068,-0.0030,-0.1488,-0.0959,-0.0462,0.0098,-0.0201,9.7681,0.0000,0.0001,-0.0000,1.0000,0.0003,-0.0005,0.2442
3580806,Pelvis,2,-0.6709,-0.0189,-0.7410,0.0214,0.0007,0.0019,0.0011,-0.0108,-0.0457,-0.0063,9.7595,0.0378,0.9586,0.0000,0.0000,0.0000,1.0000,0.2440,0.0009,0.0240
3580807,Left,2,-0.0088,-0.0024,-0.9766,0.2147,0.0250,-0.0964,-0.1541,-0.2229,-0.3951,0.1724,0.5377,0.2728,9.9772,0.0003,-0.0012,-0.0019,1.0000,0.0132,0.0067,0.2494
3580807,Right,2,0.0071,0.0059,-1.0000,0.0029,0.0032,0.0045,-0.0024,-0.1489,-0.0874,-0.0432,0.0099,-0.0288,9.7709,0.0000,0.0001,-0.0000,1.0000,0.0003,-0.0007,0.2443
3580807,Pelvis,2,-0.6709,-0.0189,-0.7410,0.0214,0.0029,-0.0006,0.0026,-0.0124,-0.0649,-0.0046,9.7614,0.0566,0.9559,0.0000,-0.0000,0.0000,1.0000,0.2440,0.0014,0.0239
3580808,Left,2,-0.0056,-0.0005,-0.9764,0.2157,-0.0822,0.2832,0.0898,-0.2038,-0.3398,0.4017,0.4777,0.2216,10.2085,-0.0010,0.0035,0.0011,1.0000,0.0128,0.0058,0.2552
3580808,Right,2,0.0071,0.0059,-1.0000,0.0029,0.0028,0.0047,-0.0006,-0.1331,-0.0966,-0.0414,-0.0057,-0.0194,9.7727,0.0000,0.0001,-0.0000,1.0000,-0.0001,-0.0005,0.2443
3580808,Pelvis,2,-0.6709,-0.0189,-0.7410,0.0214,0.0019,0.0012,0.0006,0.0083,-0.0576,-0.0149,9.7492,0.0505,0.9757,0.0000,0.0000,0.0000,1.0000,0.2437,0.0013,0.0244
3580809,Left,2,-0.0029,0.0015,-0.9763,0.2164,-0.1030,0.2519,0.0556,0.1438,0.0198,-0.3544,-0.0625,0.0175,9.4592,-0.0013,0.0031,0.0007,1.0000,-0.0008,0.0007,0.2365
3580809,Right,2,0.0071,0.0059,-1.0000,0.0029,0.0033,0.0057,-0.0032,-0.1216,-0.1039,-0.0481,-0.0170,-0.0120,9.7659,0.0000,0.0001,-0.0000,1.0000,-0.0004,-0.0003,0.2441
3580809,Pelvis,2,-0.6709,-0.0189,-0.7410,0.0214,0.0018,0.0007,0.0019,-0.0023,-0.0643,0.0053,9.7703,0.0567,0.9668,0.0000,0.0000,0.0000,1.0000,0.2443,0.0014,0.0242
3580810,Left,2,-0.0067,-0.0015,-0.9769,0.2137,0.1808,-0.3447,-0.2206,0.1670,-0.0981,-0.9742,-0.0282,0.1421,8.8394,0.0023,-0.0043,-0.0028,1.0000,-0.0016,0.0031,0.2210
3580810,Right,2,0.0071,0.0059,-1.0000,0.0029,0.0032,0.0051,-0.0025,-0.1319,-0.0888,-0.0385,-0.0069,-0.0271,9.7755,0.0000,0.0001,-0.0000,1.0000,-0.0002,-0.0007,0.2444
3580810,Pelvis,2,-0.6709,-0.0189,-0.7410,0.0214,0.0030,0.0019,0.0024,-0.0204,-0.0524,0.0041,9.7708,0.0436,0.9493,0.0000,0.0000,0.0000,1.0000,0.2443,0.0011,0.0237
3580811,Left,2,-0.0072,-0.0039,-0.9773,0.2116,0.1844,-0.0780,-0.1667,-0.3609,-0.2554,0.7767,0.5895,0.1084,10.5817,0.0023,-0.0010,-0.0021,1.0000,0.0145,0.0021,0.2646
3580811,Right,2,0.0071,0.0059,-1.0000,0.0029,0.0030,0.0064,-0.0021,-0.1420,-0.0993,-0.0461,0.0033,-0.0165,9.7681,0.0000,0.0001,-0.0000,1.0000,0.0001,-0.0004,0.2442
3580811,Pelvis,2,-0.6709,-0.0189,-0.7410,0.0214,0.0031,0.0012,0.0013,0.0082,-0.0663,-0.0140,9.7501,0.0590,0.9752,0.0000,0.0000,0.0000,1.0000,0.2438,0.0015,0.0244
3580812,Left,2,-0.0065,-0.0036,-0.9775,0.2110,-0.0032,0.0608,-0.0504,-0.1885,-0.4650,0.2302,0.5137,0.3911,10.0346,-0.0000,0.0008,-0.0006,1.0000,0.0130,0.0098,0.2509
3580812,Right,2,0.0071,0.0059,-1.0000,0.0029,0.0025,0.0056,-0.0027,-0.1104,-0.0941,-0.0489,-0.0283,-0.0215,9.7648,0.0000,0.0001,-0.0000,1.0000,-0.0007,-0.0005,0.2441
3580812,Pelvis,2,-0.6709,-0.0189,-0.7410,0.0214,0.0012,0.0007,0.0018,0.0083,-0.0642,0.0054,9.7694,0.0570,0.9773,0.0000,0.0000,0.0000,1.0000,0.2442,0.0014,0.0244
3580813,Left,2,-0.0059,-0.0025,-0.9773,0.2116,-0.0643,0.0648,0.0496,-0.0946,-0.1801,0.1031,0.2936,0.1591,9.9123,-0.0008,0.0008,0.0006,1.0000,0.0075,0.0042,0.2478
3580813,Right,2,0.0071,0.0059,-1.0000,0.0030,0.0018,0.0060,0.0003,-0.1349,-0.1027,-0.0375,-0.0040,-0.0134,9.7766,0.0000,0.0001,0.0000,1.0000,-0.0001,-0.0003,0.2444
3580813,Pelvis,2,-0.6709,-0.0188,-0.7410,0.0214,0.0005,0.0002,0.0025,-0.0205,-0.0619,-0.0048,9.7621,0.0529,0.9476,0.0000,0.0000,0.0000,1.0000,0.2441,0.0013,0.0237
3580814,Left,2,-0.0050,-0.0002,-0.9774,0.2112,-0.1548,0.1159,-0.0255,0.0146,0.0934,-0.0131,0.0583,-0.0745,9.7996,-0.0019,0.0014,-0.0003,1.0000,0.0018,-0.0014,0.2450
3580814,Right,2,0.0071,0.0060,-1.0000,0.0030,0.0020,0.0056,-0.0028,-0.1437,-0.0902,-0.0517,0.0049,-0.0260,9.7625,0.0000,0.0001,-0.0000,1.0000,0.0001,-0.0007,0.2441
3580814,Pelvis,2,-0.6709,-0.0189,-0.7410,0.0214,0.0031,0.0017,0.0000,-0.0096,-0.0528,-0.0055,9.7603,0.0445,0.9589,0.0000,0.0000,0.0000,1.0000,0.2440,0.0011,0.0240
3580815,Left,2,-0.0049,0.0022,-0.9780,0.2084,-0.1758,0.0515,-0.2250,-0.0695,0.0222,-0.2840,0.1422,-0.0857,9.5276,-0.0022,0.0006,-0.0028,1.0000,0.0037,-0.0016,0.2382
3580815,Right,2,0.0071,0.0060,-1.0000,0.0030,0.0016,0.0036,-0.0033,-0.1424,-0.0909,-0.0516,0.0038,-0.0255,9.7625,0.0000,0.0000,-0.0000,1.0000,0.0001,-0.0006,0.2441
3580815,Pelvis,2,-0.6709,-0.0189,-0.7410,0.0214,0.0018,0.0019,0.0024,-0.0006,-0.0623,0.0053,9.7701,0.0545,0.9684,0.0000,0.0000,0.0000,1.0000,0.2443,0.0014,0.0242
3580816,Left,2,-0.0043,0.0030,-0.9784,0.2065,-0.0477,0.0656,-0.1521,-0.1584,-0.2042,-0.2707,0.3027,0.0568,9.5405,-0.0006,0.0008,-0.0019,1.0000,0.0078,0.0015,0.2385
3580816,Right,2,0.0071,0.0060,-1.0000,0.0030,0.0027,0.0065,-0.0009,-0.1395,-0.1008,-0.0545,0.0011,-0.0158,9.7596,0.0000,0.0001,-0.0000,1.0000,0.0000,-0.0004,0.2440
3580816,Pelvis,2,-0.6709,-0.0189,-0.7410,0.0214,0.0018,0.0012,0.0012,0.0005,-0.0523,0.0044,9.7691,0.0445,0.9702,0.0000,0.0000,0.0000,1.0000,0.2442,0.0011,0.0243
3580817,Left,2,-0.0026,0.0029,-0.9786,0.2057,0.0482,0.1335,-0.0619,-0.1968,-0.3893,-0.3112,0.3891,0.2095,9.5012,0.0006,0.0017,-0.0008,1.0000,0.0101,0.0051,0.2375
3580817,Right,2,0.0071,0.0060,-1.0000,0.0030,0.0017,0.0051,-0.0015,-0.1467,-0.1041,-0.0507,0.0083,-0.0127,9.7636,0.0000,0.0001,-0.0000,1.0000,0.0002,-0.0003,0.2441
3580817,Pelvis,2,-0.6709,-0.0189,-0.7410,0.0214,0.0007,0.0025,0.0011,-0.0002,-0.0617,0.0053,9.7701,0.0539,0.9693,0.0000,0.0000,0.0000,1.0000,0.2443,0.0013,0.0242
3580818,Left,2,0.0006,0.0019,-0.9785,0.2062,0.1439,0.2378,0.0412,-0.1035,-0.1332,-0.4238,0.1570,0.0340,9.3891,0.0018,0.0030,0.0005,1.0000,0.0046,0.0004,0.2347
3580818,Right,2,0.0071,0.0060,-1.0000,0.0030,0.0025,0.0056,-0.0027,-0.1269,-0.0831,-0.0440,-0.0117,-0.0338,9.7698,0.0000,0.0001,-0.0000,1.0000,-0.0003,-0.0009,0.2442
3580818,Pelvis,2,-0.6709,-0.0189,-0.7410,0.0214,0.0012,0.0006,0.0006,-0.0107,-0.0702,0.0059,9.7718,0.0618,0.9586,0.0000,0.0000,0.0000,1.0000,0.2443,0.0015,0.0240
3580819,Left,2,0.0040,-0.0010,-0.9785,0.2060,0.2905,0.2162,-0.0159,0.1957,0.3760,0.2738,-0.3780,-0.2623,10.0849,0.0036,0.0027,-0.0002,1.0000,-0.0088,-0.0075,0.2521
3580819,Right,2,0.0071,0.0060,-1.0000,0.0030,0.0025,0.0056,-0.0027,-0.1326,-0.0956,-0.0431,-0.0060,-0.0214,9.7710,0.0000,0.0001,-0.0000,1.0000,-0.0001,-0.0005,0.2443
3580819,Pelvis,2,-0.6709,-0.0189,-0.7410,0.0214,0.0018,0.0012,0.0012,0.0004,-0.0620,-0.0044,9.7603,0.0544,0.9689,0.0000,0.0000,0.0000,1.0000,0.2440,0.0014,0.0242
3580820,Left,2,0.0056,-0.0008,-0.9787,0.2050,0.0202,0.1315,-0.0783,0.0301,-0.1402,0.3890,-0.0627,0.1803,10.2009,0.0003,0.0016,-0.0010,1.0000,-0.0011,0.0044,0.2550
3580820,Right,2,0.0071,0.0060,-1.0000,0.0030,0.0020,0.0061,-0.0035,-0.1469,-0.1107,-0.0384,0.0083,-0.0066,9.7760,0.0000,0.0001,-0.0000,1.0000,0.0002,-0.0002,0.2444
3580820,Pelvis,2,-0.6709,-0.0189,-0.7410,0.0214,0.0018,0.0012,0.0012,-0.0082,-0.0502,0.0043,9.7698,0.0421,0.9620,0.0000,0.0000,0.0000,1.0000,0.2442,0.0011,0.0240
3580821,Left,2,0.0056,-0.0009,-0.9787,0.2054,0.0126,0.0022,0.0372,0.1635,-0.0343,-0.1073,-0.2384,0.1366,9.7029,0.0002,0.0000,0.0005,1.0000,-0.0060,0.0034,0.2426
3580821,Right,2,0.0071,0.0060,-1.0000,0.0030,0.0033,0.0060,-0.0007,-0.1342,-0.0950,-0.0516,-0.0044,-0.0221,9.7625,0.0000,0.0001,-0.0000,1.0000,-0.0001,-0.0006,0.2441
3580821,Pelvis,2,-0.6709,-0.0189,-0.7410,0.0214,0.0018,0.0012,0.0012,-0.0196,-0.0682,0.0058,9.7725,0.0596,0.9498,0.0000,0.0000,0.0000,1.0000,0.2443,0.0015,0.0237
3580822,Left,2,0.0059,-0.0004,-0.9784,0.2065,-0.0192,0.0367,0.0905,0.1829,0.1139,-0.0618,-0.3202,0.0063,9.7481,-0.0002,0.0005,0.0011,1.0000,-0.0079,0.0002,0.2437
3580822,Right,2,0.0071,0.0060,-1.0000,0.0030,0.0029,0.0059,-0.0014,-0.1285,-0.0977,-0.0430,-0.0103,-0.0195,9.7710,0.0000,0.0001,-0.0000,1.0000,-0.0002,-0.0005,0.2443
3580822,Pelvis,2,-0.6709,-0.0189,-0.7410,0.0214,0.0018,0.0019,0.0024,0.0119,-0.0523,-0.0051,9.7584,0.0454,0.9810,0.0000,0.0000,0.0000,1.0000,0.2440,0.0011,0.0245
3580823,Left,2,0.0063,-0.0003,-0.9782,0.2078,0.0077,0.0341,0.1085,-0.1354,0.0033,-0.0895,0.0080,-0.0246,9.7241,0.0001,0.0004,0.0014,1.0000,0.0003,-0.0006,0.2431
3580823,Right,2,0.0071,0.0060,-1.0000,0.0030,0.0029,0.0059,-0.0014,-0.1370,-0.1174,-0.0536,-0.0016,0.0003,9.7608,0.0000,0.0001,-0.0000,1.0000,-0.0000,-0.0000,0.2440
3580823,Pelvis,2,-0.6709,-0.0188,-0.7410,0.0214,0.0012,-0.0000,0.0007,0.0015,-0.0607,-0.0044,9.7602,0.0531,0.9702,0.0000,-0.0000,0.0000,1.0000,0.2440,0.0013,0.0243
3580824,Left,2,0.0063,-0.0001,-0.9779,0.2088,-0.0068,0.0081,0.0854,-0.4117,-0.3590,-0.1337,0.4040,0.1913,9.6840,-0.0001,0.0001,0.0011,1.0000,0.0101,0.0048,0.2421
3580824,Right,2,0.0071,0.0060,-1.0000,0.0030,0.0020,0.0067,-0.0036,-0.1503,-0.0905,-0.0173,0.0108,-0.0271,9.7969,0.0000,0.0001,-0.0000,1.0000,0.0003,-0.0007,0.2449
3580824,Pelvis,2,-0.6709,-0.0189,-0.7410,0.0214,0.0031,0.0012,0.0013,-0.0178,-0.0577,0.0050,9.7714,0.0491,0.9520,0.0000,0.0000,0.0000,1.0000,0.2443,0.0012,0.0238
3580825,Left,2,0.0064,-0.0002,-0.9779,0.2091,0.0145,0.0129,0.0243,-0.1095,-0.1218,-0.1087,0.0294,0.0965,9.7048,0.0002,0.0002,0.0003,1.0000,0.0008,0.0024,0.2426
3580825,Right,2,0.0071,0.0060,-1.0000,0.0030,0.0037,0.0046,-0.0017,-0.1374,-0.1004,-0.0477,-0.0017,-0.0169,9.7664,0.0000,0.0001,-0.0000,1.0000,-0.0000,-0.0004,0.2442
3580825,Pelvis,2,-0.6709,-0.0189,-0.7410,0.0214,0.0013,0.0012,0.0006,0.0127,-0.0506,0.0046,9.7681,0.0438,0.9826,0.0000,0.0000,0.0000,1.0000,0.2442,0.0011,0.0246
3580826,Left,2,0.0063,-0.0002,-0.9781,0.2081,0.0113,-0.0064,-0.0784,-0.1457,-0.1542,-0.0791,0.0751,0.1123,9.7350,0.0001,-0.0001,-0.0010,1.0000,0.0019,0.0028,0.2434
3580826,Right,2,0.0071,0.0060,-1.0000,0.0031,0.0023,0.0058,-0.0015,-0.1374,-0.0985,-0.0240,-0.0019,-0.0190,9.7902,0.0000,0.0001,-0.0000,1.0000,-0.0000,-0.0005,0.2448
3580826,Pelvis,2,-0.6709,-0.0189,-0.7410,0.0214,0.0024,0.0005,0.0007,0.0023,-0.0598,-0.0044,9.7601,0.0527,0.9708,0.0000,0.0000,0.0000,1.0000,0.2440,0.0013,0.0243
3580827,Left,2,0.0063,-0.0003,-0.9785,0.2062,0.0153,0.0010,-0.1575,-0.0488,-0.0211,-0.1144,-0.0659,0.0309,9.6981,0.0002,0.0000,-0.0020,1.0000,-0.0016,0.0007,0.2425
3580827,Right,2,0.0071,0.0060,-1.0000,0.0031,0.0023,0.0052,-0.0014,-0.1302,-0.1037,-0.0392,-0.0087,-0.0137,9.7749,0.0000,0.0001,-0.0000,1.0000,-0.0002,-0.0003,0.2444
3580827,Pelvis,2,-0.6709,-0.0189,-0.7410,0.0214,0.0012,0.0013,0.0012,0.0026,-0.0586,0.0053,9.7698,0.0516,0.9719,0.0000,0.0000,0.0000,1.0000,0.2442,0.0013,0.0243
3580828,Left,2,0.0066,-0.0003,-0.9785,0.2060,0.0117,0.0243,-0.0083,-0.3171,-0.2578,-0.0896,0.2724,0.1401,9.7268,0.0001,0.0003,-0.0001,1.0000,0.0069,0.0035,0.2432
3580828,Right,2,0.0071,0.0060,-1.0000,0.0031,0.0024,0.0045,-0.0013,-0.1434,-0.0959,-0.0410,0.0045,-0.0217,9.7732,0.0000,0.0001,-0.0000,1.0000,0.0001,-0.0005,0.2443
3580828,Pelvis,2,-0.6709,-0.0189,-0.7410,0.0214,0.0018,0.0001,0.0019,-0.0058,-0.0486,-0.0054,9.7599,0.0410,0.9630,0.0000,0.0000,0.0000,1.0000,0.2440,0.0010,0.0241
3580829,Left,2,0.0067,-0.0002,-0.9785,0.2060,0.0086,0.0148,-0.0034,0.0587,-0.0602,-0.0954,-0.1551,0.1110,9.7158,0.0001,0.0002,-0.0000,1.0000,-0.0038,0.0027,0.2429
3580829,Right,2,0.0071,0.0060,-1.0000,0.0031,0.0031,0.0063,-0.0027,-0.1319,-0.1031,-0.0477,-0.0068,-0.0143,9.7664,0.0000,0.0001,-0.0000,1.0000,-0.0001,-0.0004,0.2442
3580829,Pelvis,2,-0.6709,-0.0189,-0.7410,0.0214,0.0026,0.0017,-0.0006,-0.0067,-0.0571,0.0051,9.7706,0.0497,0.9627,0.0000,0.0000,-0.0000,1.0000,0.2443,0.0012,0.0241
3580830,Left,2,0.0067,-0.0002,-0.9785,0.2060,0.0097,0.0021,0.0018,-0.0731,-0.0976,-0.0868,-0.0208,0.0921,9.7262,0.0001,0.0000,0.0000,1.0000,-0.0005,0.0023,0.2432
3580830,Right,2,0.0071,0.0060,-1.0000,0.0031,0.0027,0.0050,-0.0032,-0.1322,-0.0880,-0.0655,-0.0063,-0.0292,9.7484,0.0000,0.0001,-0.0000,1.0000,-0.0001,-0.0007,0.2437
3580830,Pelvis,2,-0.6709,-0.0189,-0.7410,0.0214,0.0024,0.0013,0.0019,-0.0064,-0.0567,0.0051,9.7705,0.0496,0.9630,0.0000,0.0000,0.0000,1.0000,0.2443,0.0012,0.0241
3580831,Left,2,0.0067,-0.0002,-0.9785,0.2060,0.0091,0.0035,0.0031,-0.0774,-0.0859,-0.0996,-0.0213,0.0796,9.7135,0.0001,0.0000,0.0000,1.0000,-0.0005,0.0020,0.2428
3580831,Right,2,0.0071,0.0060,-1.0000,0.0031,0.0035,0.0065,-0.0019,-0.1333,-0.1091,-0.0353,-0.0055,-0.0084,9.7789,0.0000,0.0001,-0.0000,1.0000,-0.0001,-0.0002,0.2445
3580831,Pelvis,2,-0.6709,-0.0189,-0.7410,0.0214,0.0012,-0.0000,0.0007,0.0134,-0.0591,-0.0043,9.7592,0.0532,0.9815,0.0000,-0.0000,0.0000,1.0000,0.2440,0.0013,0.0245
3580832,Left,2,0.0067,-0.0002,-0.9785,0.2060,0.0102,0.0020,0.0032,-0.0944,-0.0918,-0.0954,-0.0033,0.0782,9.7179,0.0001,0.0000,0.0000,1.0000,-0.0001,0.0019,0.2429
3580832,Right,2,0.0071,0.0060,-1.0000,0.0031,0.0029,0.0052,-0.0013,-0.1163,-0.0953,-0.0400,-0.0226,-0.0219,9.7738,0.0000,0.0001,-0.0000,1.0000,-0.0005,-0.0006,0.2443
3580832,Pelvis,2,-0.6709,-0.0189,-0.7410,0.0213,0.0018,0.0000,0.0013,-0.0145,-0.0462,-0.0056,9.7606,0.0388,0.9541,0.0000,0.0000,0.0000,1.0000,0.2440,0.0010,0.0239
3580833,Right,2,0.0071,0.0060,-1.0000,0.0031,0.0026,0.0044,-0.0025,-0.1365,-0.0993,-0.0409,-0.0022,-0.0181,9.7732,0.0000,0.0001,-0.0000,1.0000,-0.0000,-0.0005,0.2443
3580833,Pelvis,2,-0.6709,-0.0189,-0.7410,0.0213,0.0018,0.0012,0.0012,-0.0055,-0.0557,0.0051,9.7705,0.0488,0.9633,0.0000,0.0000,0.0000,1.0000,0.2443,0.0012,0.0241
3580834,Left,2,0.0067,-0.0002,-0.9785,0.2060,0.0093,0.0022,0.0027,-0.0820,-0.0949,-0.0943,-0.0134,0.0873,9.7188,0.0002,0.0001,0.0001,1.0000,-0.0006,0.0043,0.4859
3580834,Right,2,0.0071,0.0060,-1.0000,0.0031,0.0025,0.0063,-0.0028,-0.1454,-0.0868,-0.0550,0.0069,-0.0305,9.7592,0.0000,0.0001,-0.0000,1.0000,0.0002,-0.0008,0.2440
3580834,Pelvis,2,-0.6709,-0.0189,-0.7410,0.0214,0.0018,0.0013,0.0018,0.0056,-0.0476,-0.0053,9.7590,0.0413,0.9738,0.0000,0.0000,0.0000,1.0000,0.2440,0.0010,0.0243
3580835,Left,2,0.0067,-0.0002,-0.9785,0.2060,0.0104,0.0023,0.0024,-0.0800,-0.0817,-0.0833,-0.0200,0.0749,9.7297,0.0001,0.0000,0.0000,1.0000,-0.0005,0.0018,0.2432
3580835,Right,2,0.0071,0.0060,-1.0000,0.0031,0.0024,0.0057,-0.0021,-0.1353,-0.0915,-0.0379,-0.0035,-0.0261,9.7761,0.0000,0.0001,-0.0000,1.0000,-0.0001,-0.0007,0.2444
3580835,Pelvis,2,-0.6709,-0.0189,-0.7410,0.0214,0.0019,0.0018,0.0012,0.0049,-0.0561,0.0053,9.7696,0.0497,0.9736,0.0000,0.0000,0.0000,1.0000,0.2442,0.0012,0.0243
3580836,Left,2,0.0067,-0.0003,-0.9785,0.2060,0.0103,0.0020,0.0032,-0.0909,-0.0989,-0.1089,-0.0025,0.0865,9.7044,0.0001,0.0000,0.0000,1.0000,-0.0001,0.0021,0.2426
3580836,Right,2,0.0071,0.0060,-1.0000,0.0031,0.0036,0.0053,-0.0017,-0.1324,-0.1013,-0.0409,-0.0063,-0.0161,9.7732,0.0000,0.0001,-0.0000,1.0000,-0.0001,-0.0004,0.2443
3580836,Pelvis,2,-0.6709,-0.0189,-0.7410,0.0214,0.0025,0.0012,0.0012,0.0043,-0.0664,-0.0036,9.7609,0.0599,0.9717,0.0000,0.0000,0.0000,1.0000,0.2440,0.0015,0.0243
3580837,Left,2,0.0066,-0.0003,-0.9785,0.2060,0.0098,0.0026,0.0015,-0.0798,-0.0919,-0.1039,-0.0152,0.0847,9.7092,0.0001,0.0000,0.0000,1.0000,-0.0004,0.0021,0.2427
3580837,Right,2,0.0071,0.0060,-1.0000,0.0031,0.0024,0.0057,-0.0021,-0.1412,-0.0955,-0.0341,0.0024,-0.0221,9.7800,0.0000,0.0001,-0.0000,1.0000,0.0001,-0.0006,0.2445
3580837,Pelvis,2,-0.6709,-0.0189,-0.7410,0.0214,0.0020,0.0024,-0.0001,0.0153,-0.0574,-0.0042,9.7591,0.0517,0.9831,0.0000,0.0000,-0.0000,1.0000,0.2440,0.0013,0.0246
3580838,Left,2,0.0066,-0.0003,-0.9785,0.2060,0.0103,0.0017,0.0027,-0.0752,-0.0937,-0.0904,-0.0187,0.0884,9.7226,0.0001,0.0000,0.0000,1.0000,-0.0005,0.0022,0.2431
3580838,Right,2,0.0071,0.0060,-1.0000,0.0031,0.0024,0.0051,-0.0020,-0.1371,-0.0823,-0.0435,-0.0016,-0.0352,9.7705,0.0000,0.0001,-0.0000,1.0000,-0.0000,-0.0009,0.2443
3580838,Pelvis,2,-0.6709,-0.0189,-0.7410,0.0213,0.0013,0.0012,0.0006,0.0058,-0.0553,0.0053,9.7695,0.0493,0.9749,0.0000,0.0000,0.0000,1.0000,0.2442,0.0012,0.0244
3580839,Left,2,0.0066,-0.0003,-0.9785,0.2060,0.0091,0.0029,0.0020,-0.0735,-0.0955,-0.0904,-0.0193,0.0908,9.7226,0.0001,0.0000,0.0000,1.0000,-0.0005,0.0022,0.2431
3580839,Right,2,0.0071,0.0060,-1.0000,0.0032,0.0044,0.0047,-0.0021,-0.1283,-0.1034,-0.0408,-0.0101,-0.0139,9.7732,0.0001,0.0001,-0.0000,1.0000,-0.0002,-0.0004,0.2443
3580839,Pelvis,2,-0.6709,-0.0189,-0.7410,0.0213,0.0025,0.0012,0.0006,-0.0045,-0.0637,0.0060,9.7713,0.0573,0.9641,0.0000,0.0000,0.0000,1.0000,0.2443,0.0014,0.0241
3580840,Left,2,0.0066,-0.0003,-0.9785,0.2060,0.0097,0.0028,0.0035,-0.0872,-0.0925,-0.1082,-0.0077,0.0825,9.7050,0.0001,0.0000,0.0000,1.0000,-0.0002,0.0020,0.2426
3580840,Right,2,0.0071,0.0060,-1.0000,0.0031,0.0026,0.0062,-0.0034,-0.1199,-0.0922,-0.0417,-0.0186,-0.0249,9.7721,0.0000,0.0001,-0.0000,1.0000,-0.0004,-0.0006,0.2443
3580840,Pelvis,2,-0.6709,-0.0189,-0.7410,0.0213,0.0012,0.0013,0.0012,-0.0041,-0.0643,-0.0037,9.7616,0.0580,0.9635,0.0000,0.0000,0.0000,1.0000,0.2440,0.0015,0.0241
3580841,Left,2,0.0066,-0.0003,-0.9785,0.2060,0.0097,0.0026,0.0029,-0.0825,-0.0943,-0.0947,-0.0113,0.0861,9.7184,0.0001,0.0000,0.0000,1.0000,-0.0003,0.0021,0.2430
3580841,Right,2,0.0071,0.0060,-1.0000,0.0032,0.0030,0.0052,-0.0019,-0.1313,-0.1002,-0.0256,-0.0073,-0.0171,9.7885,0.0000,0.0001,-0.0000,1.0000,-0.0002,-0.0004,0.2447
3580841,Pelvis,2,-0.6709,-0.0189,-0.7410,0.0213,0.0024,0.0006,0.0013,-0.0037,-0.0640,-0.0037,9.7615,0.0578,0.9637,0.0000,0.0000,0.0000,1.0000,0.2440,0.0014,0.0241
3580842,Right,2,0.0071,0.0060,-1.0000,0.0032,0.0017,0.0057,-0.0016,-0.1344,-0.0989,-0.0340,-0.0042,-0.0185,9.7801,0.0000,0.0001,-0.0000,1.0000,-0.0001,-0.0005,0.2445
3580842,Pelvis,2,-0.6709,-0.0189,-0.7410,0.0213,0.0013,0.0019,0.0011,0.0064,-0.0638,0.0062,9.7704,0.0582,0.9746,0.0000,0.0000,0.0000,1.0000,0.2443,0.0015,0.0244
3580843,Left,2,0.0066,-0.0003,-0.9785,0.2060,0.0093,0.0018,0.0026,-0.0776,-0.0917,-0.0990,-0.0166,0.0868,9.7141,0.0002,0.0000,0.0001,1.0000,-0.0008,0.0042,0.4857
3580843,Right,2,0.0071,0.0060,-1.0000,0.0032,0.0024,0.0057,-0.0021,-0.1174,-0.0851,-0.0387,-0.0212,-0.0323,9.7750,0.0000,0.0001,-0.0000,1.0000,-0.0005,-0.0008,0.2444
3580843,Pelvis,2,-0.6709,-0.0189,-0.7410,0.0213,0.0025,0.0018,0.0012,-0.0030,-0.0627,0.0060,9.7712,0.0564,0.9654,0.0000,0.0000,0.0000,1.0000,0.2443,0.0014,0.0241
3580844,Right,2,0.0071,0.0060,-1.0000,0.0032,0.0022,0.0070,-0.0017,-0.1257,-0.1114,-0.0285,-0.0131,-0.0063,9.7857,0.0000,0.0001,-0.0000,1.0000,-0.0003,-0.0002,0.2446
3580844,Pelvis,2,-0.6709,-0.0189,-0.7410,0.0213,0.0018,0.0006,0.0013,0.0072,-0.0642,-0.0036,9.7607,0.0585,0.9744,0.0000,0.0000,0.0000,1.0000,0.2440,0.0015,0.0244
3580845,Left,2,0.0066,-0.0003,-0.9785,0.2060,0.0095,0.0028,0.0018,-0.0836,-0.0939,-0.0933,-0.0099,0.0864,9.7198,0.0002,0.0001,0.0000,1.0000,-0.0005,0.0042,0.4860
3580845,Right,2,0.0071,0.0060,-1.0000,0.0032,0.0009,0.0057,-0.0012,-0.1305,-0.0943,-0.0548,-0.0082,-0.0234,9.7592,0.0000,0.0001,-0.0000,1.0000,-0.0002,-0.0006,0.2440
3580845,Pelvis,2,-0.6709,-0.0189,-0.7410,0.0213,0.0025,0.0018,0.0006,0.0066,-0.0735,-0.0027,9.7616,0.0680,0.9732,0.0000,0.0000,0.0000,1.0000,0.2440,0.0017,0.0243
3580846,Left,2,0.0065,-0.0003,-0.9785,0.2060,0.0116,0.0016,0.0028,-0.0739,-0.0897,-0.0806,-0.0198,0.0857,9.7324,0.0001,0.0000,0.0000,1.0000,-0.0005,0.0021,0.2433
3580846,Right,2,0.0071,0.0060,-1.0000,0.0032,0.0027,0.0050,-0.0032,-0.1505,-0.1049,-0.0348,0.0116,-0.0134,9.7795,0.0000,0.0001,-0.0000,1.0000,0.0003,-0.0003,0.2445
3580846,Pelvis,2,-0.6709,-0.0189,-0.7410,0.0214,0.0024,0.0013,0.0031,-0.0212,-0.0607,-0.0040,9.7630,0.0534,0.9462,0.0000,0.0000,0.0000,1.0000,0.2441,0.0013,0.0237
3580847,Left,2,0.0065,-0.0003,-0.9785,0.2060,0.0097,0.0026,0.0029,-0.0813,-0.0845,-0.1139,-0.0143,0.0782,9.6992,0.0001,0.0000,0.0000,1.0000,-0.0004,0.0019,0.2425
3580847,Right,2,0.0071,0.0061,-1.0000,0.0032,0.0012,0.0062,-0.0024,-0.1250,-0.0885,-0.0434,-0.0139,-0.0298,9.7705,0.0000,0.0001,-0.0000,1.0000,-0.0003,-0.0007,0.2443
3580847,Pelvis,2,-0.6710,-0.0189,-0.7409,0.0213,0.0018,-0.0007,0.0001,0.0190,-0.0537,0.0055,9.7685,0.0487,0.9871,0.0000,-0.0000,0.0000,1.0000,0.2442,0.0012,0.0247
3580848,Left,2,0.0065,-0.0003,-0.9785,0.2060,0.0098,0.0031,0.0027,-0.0734,-0.0797,-0.0799,-0.0238,0.0772,9.7331,0.0001,0.0000,0.0000,1.0000,-0.0006,0.0019,0.2433
3580848,Right,2,0.0071,0.0061,-1.0000,0.0032,0.0031,0.0057,-0.0026,-0.1377,-0.1128,-0.0416,-0.0012,-0.0057,9.7727,0.0000,0.0001,-0.0000,1.0000,-0.0000,-0.0002,0.2443
3580848,Pelvis,2,-0.6710,-0.0189,-0.7409,0.0213,0.0012,0.0007,0.0018,0.0086,-0.0613,0.0159,9.7800,0.0557,0.9770,0.0000,0.0000,0.0000,1.0000,0.2445,0.0014,0.0244
3580849,Left,2,0.0065,-0.0003,-0.9785,0.2060,0.0103,0.0015,0.0021,-0.0720,-0.0949,-0.0941,-0.0186,0.0917,9.7189,0.0001,0.0000,0.0000,1.0000,-0.0005,0.0023,0.2430
3580849,Right,2,0.0071,0.0061,-1.0000,0.0032,0.0020,0.0049,-0.0027,-0.1306,-0.0991,-0.0187,-0.0086,-0.0197,9.7953,0.0000,0.0001,-0.0000,1.0000,-0.0002,-0.0005,0.2449
3580849,Pelvis,2,-0.6710,-0.0189,-0.7409,0.0213,0.0018,0.0013,0.0018,0.0004,-0.0521,-0.0046,9.7604,0.0459,0.9672,0.0000,0.0000,0.0000,1.0000,0.2440,0.0012,0.0242
3580850,Left,2,0.0065,-0.0004,-0.9785,0.2060,0.0096,0.0018,0.0026,-0.0981,-0.0961,-0.0806,0.0061,0.0825,9.7327,0.0001,0.0000,0.0000,1.0000,0.0002,0.0020,0.2433
3580850,Right,2,0.0071,0.0061,-1.0000,0.0032,0.0029,0.0059,-0.0014,-0.1279,-0.1024,-0.0424,-0.0109,-0.0163,9.7716,0.0000,0.0001,-0.0000,1.0000,-0.0003,-0.0004,0.2443
3580850,Pelvis,2,-0.6710,-0.0189,-0.7409,0.0213,0.0019,0.0018,0.0006,0.0085,-0.0712,0.0070,9.7712,0.0655,0.9752,0.0000,0.0000,0.0000,1.0000,0.2443,0.0016,0.0244
3580851,Left,2,0.0065,-0.0004,-0.9785,0.2061,0.0103,0.0022,0.0038,-0.0778,-0.0937,-0.0849,-0.0130,0.0886,9.7282,0.0001,0.0000,0.0000,1.0000,-0.0003,0.0022,0.2432
3580851,Right,2,0.0071,0.0061,-1.0000,0.0032,0.0025,0.0063,-0.0028,-0.1411,-0.0945,-0.0441,0.0021,-0.0242,9.7700,0.0000,0.0001,-0.0000,1.0000,0.0001,-0.0006,0.2442
3580851,Pelvis,2,-0.6710,-0.0189,-0.7409,0.0213,0.0031,0.0012,0.0013,0.0100,-0.0612,0.0062,9.7702,0.0558,0.9770,0.0000,0.0000,0.0000,1.0000,0.2443,0.0014,0.0244
3580852,Left,2,0.0065,-0.0004,-0.9785,0.2061,0.0104,0.0023,0.0024,-0.0822,-0.0886,-0.1047,-0.0106,0.0824,9.7084,0.0001,0.0000,0.0000,1.0000,-0.0003,0.0020,0.2427
