PacketId,Role,StatusWord,Qx,Qy,Qz,Qw,Gx,Gy,Gz,FreeAx,FreeAy,FreeAz,Ax,Ay,Az,DQx,DQy,DQz,DQw,DVx,DVy,DVz
12347,Left,0,0.2080,0.0179,-0.9606,-0.1835,0.0037,0.0055,-0.0031,-0.0000,-0.0000,-0.0237,-3.8489,-1.0830,8.9351,0.0000,0.0001,-0.0000,1.0000,-0.0962,-0.0271,0.2234
12347,Right,0,0.1540,-0.1598,-0.9073,-0.3570,0.0140,0.0006,0.0061,-0.0000,-0.0000,-0.0857,-3.8278,1.7535,8.7686,0.0002,0.0000,0.0001,1.0000,-0.0957,0.0438,0.2192
12347,Pelvis,0,-0.5382,0.4289,-0.5696,-0.4493,-0.0098,0.0153,-0.0037,-0.0000,0.0000,0.0350,9.8338,-0.0481,0.5214,-0.0001,0.0002,-0.0000,1.0000,0.2458,-0.0012,0.0130
12348,Left,0,0.2081,0.0178,-0.9606,-0.1835,0.0037,0.0055,-0.0018,-0.0244,0.0191,-0.0253,-3.8207,-1.0922,8.9445,0.0000,0.0001,-0.0000,1.0000,-0.0955,-0.0273,0.2236
12348,Right,0,0.1539,-0.1600,-0.9073,-0.3570,0.0140,0.0006,0.0061,-0.0009,0.0186,-0.1057,-3.8081,1.7377,8.7582,0.0002,0.0000,0.0001,1.0000,-0.0952,0.0434,0.2190
12348,Pelvis,0,-0.5381,0.4289,-0.5696,-0.4495,-0.0128,0.0128,-0.0031,0.0174,-0.0335,-0.0317,9.7652,-0.0572,0.5541,-0.0002,0.0002,-0.0000,1.0000,0.2441,-0.0014,0.0138
12349,Left,0,0.2082,0.0178,-0.9606,-0.1835,0.0043,0.0055,-0.0024,-0.0319,0.0104,-0.0174,-3.8219,-1.0817,8.9538,0.0001,0.0001,-0.0000,1.0000,-0.0955,-0.0271,0.2239
12349,Right,0,0.1539,-0.1602,-0.9073,-0.3569,0.0134,0.0031,0.0055,-0.0195,0.0042,-0.0702,-3.8180,1.7705,8.7866,0.0002,0.0000,0.0001,1.0000,-0.0954,0.0442,0.2197
12349,Pelvis,0,-0.5379,0.4288,-0.5697,-0.4497,-0.0079,0.0098,-0.0049,0.0818,-0.0066,-0.0318,9.7651,-0.1247,0.5470,-0.0001,0.0001,-0.0001,1.0000,0.2441,-0.0031,0.0136
12350,Left,0,0.2082,0.0177,-0.9605,-0.1836,0.0049,0.0043,-0.0024,-0.0172,0.0278,-0.0331,-3.8229,-1.1005,8.9340,0.0001,0.0001,-0.0000,1.0000,-0.0956,-0.0275,0.2234
12350,Right,0,0.1538,-0.1603,-0.9073,-0.3569,0.0134,0.0012,0.0055,0.0026,-0.0047,-0.0730,-3.8378,1.7643,8.7761,0.0002,0.0000,0.0001,1.0000,-0.0959,0.0441,0.2194
12350,Pelvis,0,-0.5379,0.4287,-0.5697,-0.4498,0.0012,0.0073,-0.0049,0.0861,-0.0240,-0.0210,9.7747,-0.1236,0.5686,0.0000,0.0001,-0.0001,1.0000,0.2444,-0.0031,0.0142
12351,Left,0,0.2082,0.0177,-0.9605,-0.1836,0.0043,0.0024,-0.0037,-0.0074,0.0025,-0.0276,-3.8431,-1.0802,8.9337,0.0001,0.0000,-0.0000,1.0000,-0.0961,-0.0270,0.2233
12351,Right,0,0.1537,-0.1605,-0.9073,-0.3569,0.0134,-0.0006,0.0067,0.0178,0.0050,-0.0853,-3.8376,1.7482,8.7657,0.0002,-0.0000,0.0001,1.0000,-0.0959,0.0437,0.2192
12351,Pelvis,0,-0.5378,0.4286,-0.5698,-0.4499,0.0006,0.0061,0.0000,0.0454,-0.0203,-0.0022,9.7942,-0.0839,0.5605,0.0000,0.0001,0.0000,1.0000,0.2449,-0.0021,0.0140
12352,Left,0,0.2082,0.0176,-0.9605,-0.1837,0.0049,0.0012,-0.0018,-0.0116,0.0056,-0.0403,-3.8337,-1.0795,8.9239,0.0001,0.0000,-0.0000,1.0000,-0.0958,-0.0270,0.2231
12352,Right,0,0.1537,-0.1607,-0.9073,-0.3568,0.0134,0.0012,0.0055,0.0110,-0.0018,-0.0836,-3.8374,1.7615,8.7651,0.0002,0.0000,0.0001,1.0000,-0.0959,0.0440,0.2191
12352,Pelvis,0,-0.5378,0.4286,-0.5698,-0.4499,0.0037,0.0024,-0.0006,0.0521,-0.0073,0.0168,9.8137,-0.0935,0.5519,0.0000,0.0000,-0.0000,1.0000,0.2453,-0.0023,0.0138
12353,Left,0,0.2082,0.0175,-0.9605,-0.1837,0.0049,0.0024,-0.0018,-0.0160,0.0154,-0.0214,-3.8341,-1.0883,8.9434,0.0001,0.0000,-0.0000,1.0000,-0.0958,-0.0272,0.2236
12353,Right,0,0.1536,-0.1608,-0.9073,-0.3568,0.0128,0.0031,0.0061,0.0093,0.0147,-0.0804,-3.8279,1.7552,8.7741,0.0002,0.0000,0.0001,1.0000,-0.0957,0.0438,0.2194
12353,Pelvis,0,-0.5378,0.4286,-0.5699,-0.4498,0.0049,-0.0024,0.0018,0.0384,0.0072,-0.0233,9.7746,-0.0839,0.5323,0.0001,-0.0000,0.0000,1.0000,0.2444,-0.0021,0.0133
12354,Left,0,0.2082,0.0175,-0.9605,-0.1837,0.0049,0.0012,-0.0012,-0.0168,0.0275,-0.0331,-3.8247,-1.0971,8.9336,0.0001,0.0000,-0.0000,1.0000,-0.0956,-0.0274,0.2233
12354,Right,0,0.1536,-0.1610,-0.9073,-0.3567,0.0140,0.0006,0.0085,0.0024,0.0205,-0.0842,-3.8182,1.7588,8.7734,0.0002,0.0000,0.0001,1.0000,-0.0955,0.0439,0.2193
12354,Pelvis,0,-0.5379,0.4286,-0.5698,-0.4497,0.0067,-0.0098,0.0012,0.0335,-0.0155,-0.0613,9.7356,-0.0744,0.5503,0.0001,-0.0001,0.0000,1.0000,0.2434,-0.0019,0.0138
12355,Left,0,0.2082,0.0174,-0.9605,-0.1838,0.0073,-0.0006,-0.0012,-0.0127,0.0269,-0.0420,-3.8247,-1.0959,8.9240,0.0001,-0.0000,-0.0000,1.0000,-0.0956,-0.0274,0.2231
12355,Right,0,0.1535,-0.1612,-0.9073,-0.3566,0.0122,0.0006,0.0073,0.0091,0.0145,-0.0804,-3.8277,1.7625,8.7727,0.0002,0.0000,0.0001,1.0000,-0.0957,0.0440,0.2193
12355,Pelvis,0,-0.5379,0.4287,-0.5698,-0.4496,0.0012,-0.0134,0.0024,0.0204,-0.0474,-0.0501,9.7455,-0.0553,0.5768,0.0000,-0.0002,0.0000,1.0000,0.2436,-0.0014,0.0145
12356,Left,0,0.2081,0.0173,-0.9605,-0.1838,0.0073,-0.0012,-0.0024,-0.0164,0.0270,-0.0331,-3.8244,-1.0944,8.9341,0.0001,-0.0000,-0.0000,1.0000,-0.0956,-0.0274,0.2233
12356,Right,0,0.1534,-0.1613,-0.9074,-0.3566,0.0122,-0.0018,0.0073,0.0106,0.0105,-0.0892,-3.8273,1.7658,8.7625,0.0002,-0.0000,0.0001,1.0000,-0.0957,0.0441,0.2191
12356,Pelvis,0,-0.5380,0.4288,-0.5697,-0.4496,-0.0030,-0.0153,0.0006,0.0223,-0.0147,-0.0126,9.7848,-0.0654,0.5440,-0.0000,-0.0002,0.0000,1.0000,0.2446,-0.0016,0.0136
12357,Left,0,0.2081,0.0173,-0.9605,-0.1839,0.0079,-0.0012,-0.0012,-0.0151,0.0144,-0.0214,-3.8339,-1.0831,8.9441,0.0001,-0.0000,-0.0000,1.0000,-0.0959,-0.0271,0.2236
12357,Right,0,0.1533,-0.1614,-0.9074,-0.3565,0.0122,-0.0018,0.0067,0.0189,0.0005,-0.0941,-3.8363,1.7692,8.7523,0.0002,-0.0000,0.0001,1.0000,-0.0959,0.0442,0.2188
12357,Pelvis,0,-0.5381,0.4289,-0.5696,-0.4495,-0.0079,-0.0134,-0.0012,-0.0238,-0.0352,-0.0123,9.7850,-0.0166,0.5503,-0.0001,-0.0002,-0.0000,1.0000,0.2446,-0.0004,0.0138
12358,Left,0,0.2081,0.0172,-0.9605,-0.1839,0.0055,0.0012,-0.0031,-0.0239,0.0296,-0.0369,-3.8143,-1.0916,8.9346,0.0001,0.0000,-0.0000,1.0000,-0.0954,-0.0273,0.2234
12358,Right,0,0.1533,-0.1616,-0.9074,-0.3565,0.0122,-0.0012,0.0055,0.0119,0.0188,-0.1036,-3.8162,1.7626,8.7520,0.0002,-0.0000,0.0001,1.0000,-0.0954,0.0440,0.2188
12358,Pelvis,0,-0.5381,0.4291,-0.5694,-0.4496,-0.0153,-0.0146,-0.0049,-0.0148,-0.0313,-0.0025,9.7949,-0.0258,0.5468,-0.0002,-0.0002,-0.0001,1.0000,0.2449,-0.0007,0.0137
12359,Left,0,0.2080,0.0172,-0.9605,-0.1840,0.0061,0.0018,-0.0031,-0.0069,0.0220,-0.0292,-3.8341,-1.0906,8.9346,0.0001,0.0000,-0.0000,1.0000,-0.0958,-0.0273,0.2234
12359,Right,0,0.1532,-0.1617,-0.9074,-0.3565,0.0122,-0.0006,0.0067,0.0187,0.0350,-0.0663,-3.8255,1.7563,8.7906,0.0002,-0.0000,0.0001,1.0000,-0.0956,0.0439,0.2198
12359,Pelvis,0,-0.5381,0.4292,-0.5692,-0.4497,-0.0140,-0.0171,-0.0061,0.0400,-0.0485,-0.0105,9.7854,-0.0735,0.5722,-0.0002,-0.0002,-0.0001,1.0000,0.2446,-0.0019,0.0144
12360,Left,0,0.2080,0.0172,-0.9605,-0.1840,0.0055,0.0006,-0.0024,-0.0270,0.0288,-0.0280,-3.8148,-1.0895,8.9444,0.0001,0.0000,-0.0000,1.0000,-0.0954,-0.0273,0.2236
12360,Right,0,0.1531,-0.1618,-0.9074,-0.3564,0.0122,-0.0024,0.0055,0.0130,0.0365,-0.0789,-3.8152,1.7595,8.7805,0.0002,-0.0000,0.0001,1.0000,-0.0954,0.0439,0.2195
12360,Pelvis,0,-0.5382,0.4293,-0.5690,-0.4498,-0.0140,-0.0177,-0.0086,0.0280,-0.0409,-0.0110,9.7857,-0.0621,0.5582,-0.0002,-0.0002,-0.0001,1.0000,0.2446,-0.0016,0.0140
12361,Left,0,0.2080,0.0172,-0.9605,-0.1841,0.0043,0.0018,-0.0037,-0.0061,0.0204,-0.0292,-3.8345,-1.0888,8.9346,0.0001,0.0000,-0.0000,1.0000,-0.0959,-0.0272,0.2234
12361,Right,0,0.1531,-0.1619,-0.9074,-0.3564,0.0110,-0.0024,0.0067,0.0361,0.0231,-0.0906,-3.8339,1.7528,8.7607,0.0001,-0.0000,0.0001,1.0000,-0.0959,0.0438,0.2190
12361,Pelvis,0,-0.5382,0.4295,-0.5688,-0.4498,-0.0159,-0.0146,-0.0092,0.0343,-0.0289,-0.0115,9.7859,-0.0699,0.5444,-0.0002,-0.0002,-0.0001,1.0000,0.2446,-0.0018,0.0137
12362,Left,0,0.2079,0.0171,-0.9605,-0.1842,0.0061,-0.0006,-0.0037,-0.0254,0.0148,-0.0163,-3.8248,-1.0782,8.9542,0.0001,-0.0000,-0.0000,1.0000,-0.0956,-0.0270,0.2239
12362,Right,0,0.1530,-0.1620,-0.9074,-0.3563,0.0110,0.0000,0.0067,0.0288,0.0284,-0.0944,-3.8236,1.7558,8.7604,0.0001,0.0000,0.0001,1.0000,-0.0956,0.0439,0.2190
12362,Pelvis,0,-0.5383,0.4296,-0.5686,-0.4499,-0.0122,-0.0165,-0.0086,0.0596,-0.0103,0.0076,9.8057,-0.0972,0.5307,-0.0002,-0.0002,-0.0001,1.0000,0.2451,-0.0025,0.0133
12363,Left,0,0.2079,0.0171,-0.9605,-0.1842,0.0067,-0.0006,-0.0030,-0.0099,0.0311,-0.0320,-3.8245,-1.0966,8.9350,0.0001,-0.0000,-0.0000,1.0000,-0.0956,-0.0274,0.2234
12363,Right,0,0.1529,-0.1621,-0.9074,-0.3563,0.0116,-0.0024,0.0092,0.0233,0.0169,-0.1015,-3.8229,1.7688,8.7502,0.0001,-0.0000,0.0001,1.0000,-0.0956,0.0442,0.2188
12363,Pelvis,0,-0.5383,0.4297,-0.5684,-0.4500,-0.0116,-0.0177,-0.0073,0.0652,-0.0379,-0.0005,9.7962,-0.0955,0.5558,-0.0001,-0.0002,-0.0001,1.0000,0.2449,-0.0024,0.0139
12364,Left,0,0.2078,0.0171,-0.9605,-0.1843,0.0067,0.0006,-0.0049,-0.0046,0.0269,-0.0192,-3.8342,-1.0955,8.9449,0.0001,0.0000,-0.0001,1.0000,-0.0959,-0.0274,0.2236
12364,Right,0,0.1528,-0.1622,-0.9075,-0.3562,0.0116,-0.0030,0.0067,0.0353,0.0336,-0.0962,-3.8220,1.7526,8.7598,0.0001,-0.0000,0.0001,1.0000,-0.0956,0.0438,0.2190
12364,Pelvis,0,-0.5383,0.4298,-0.5683,-0.4500,-0.0073,-0.0171,-0.0080,0.0786,-0.0126,-0.0112,9.7867,-0.1132,0.5320,-0.0001,-0.0002,-0.0001,1.0000,0.2447,-0.0029,0.0134
12365,Left,0,0.2077,0.0171,-0.9605,-0.1844,0.0049,-0.0024,-0.0043,-0.0202,0.0206,-0.0152,-3.8241,-1.0848,8.9549,0.0001,-0.0000,-0.0001,1.0000,-0.0956,-0.0271,0.2239
12365,Right,0,0.1527,-0.1622,-0.9075,-0.3561,0.0110,-0.0030,0.0098,0.0324,0.0366,-0.0873,-3.8210,1.7559,8.7693,0.0001,-0.0000,0.0001,1.0000,-0.0955,0.0439,0.2192
12365,Pelvis,0,-0.5384,0.4299,-0.5682,-0.4500,-0.0049,-0.0165,-0.0061,0.0704,-0.0241,-0.0107,9.7870,-0.1019,0.5376,-0.0001,-0.0002,-0.0001,1.0000,0.2447,-0.0026,0.0135
12366,Left,0,0.2077,0.0171,-0.9605,-0.1844,0.0061,-0.0024,-0.0043,-0.0161,0.0287,-0.0141,-3.8234,-1.0938,8.9553,0.0001,-0.0000,-0.0001,1.0000,-0.0956,-0.0274,0.2239
12366,Right,0,0.1526,-0.1623,-0.9075,-0.3561,0.0116,-0.0037,0.0079,0.0367,0.0463,-0.0803,-3.8199,1.7495,8.7790,0.0001,-0.0000,0.0001,1.0000,-0.0955,0.0437,0.2195
12366,Pelvis,0,-0.5386,0.4300,-0.5680,-0.4499,-0.0043,-0.0195,-0.0061,0.0452,-0.0499,-0.0098,9.7872,-0.0712,0.5528,-0.0001,-0.0002,-0.0001,1.0000,0.2447,-0.0018,0.0139
12367,Left,0,0.2076,0.0171,-0.9605,-0.1846,0.0061,-0.0031,-0.0067,0.0004,0.0265,-0.0498,-3.8226,-1.0930,8.9167,0.0001,-0.0000,-0.0001,1.0000,-0.0956,-0.0273,0.2229
12367,Right,0,0.1526,-0.1624,-0.9075,-0.3560,0.0122,-0.0018,0.0092,0.0200,0.0258,-0.1070,-3.8091,1.7723,8.7493,0.0002,-0.0000,0.0001,1.0000,-0.0952,0.0443,0.2187
12367,Pelvis,0,-0.5387,0.4300,-0.5679,-0.4499,-0.0012,-0.0201,-0.0067,0.0523,-0.0375,-0.0298,9.7680,-0.0794,0.5383,-0.0000,-0.0003,-0.0001,1.0000,0.2442,-0.0020,0.0135
12368,Left,0,0.2075,0.0170,-0.9605,-0.1846,0.0061,-0.0049,-0.0030,-0.0228,0.0214,-0.0280,-3.8119,-1.0823,8.9465,0.0001,-0.0001,-0.0000,1.0000,-0.0953,-0.0271,0.2237
12368,Right,0,0.1525,-0.1624,-0.9075,-0.3560,0.0128,-0.0055,0.0110,0.0340,0.0443,-0.0802,-3.8177,1.7567,8.7785,0.0002,-0.0001,0.0001,1.0000,-0.0955,0.0439,0.2195
12368,Pelvis,0,-0.5388,0.4301,-0.5677,-0.4498,0.0012,-0.0232,-0.0043,0.0565,-0.0153,-0.0210,9.7780,-0.0878,0.5134,0.0000,-0.0003,-0.0001,1.0000,0.2444,-0.0022,0.0129
12369,Left,0,0.2073,0.0170,-0.9605,-0.1847,0.0067,-0.0067,-0.0049,-0.0134,0.0166,-0.0241,-3.8202,-1.0812,8.9472,0.0001,-0.0001,-0.0001,1.0000,-0.0955,-0.0270,0.2237
12369,Right,0,0.1524,-0.1625,-0.9076,-0.3559,0.0128,-0.0043,0.0110,0.0342,0.0264,-0.0835,-3.8259,1.7703,8.7686,0.0002,-0.0001,0.0001,1.0000,-0.0957,0.0442,0.2192
12369,Pelvis,0,-0.5390,0.4302,-0.5676,-0.4497,0.0019,-0.0226,-0.0025,0.0514,0.0055,-0.0123,9.7879,-0.0868,0.4882,0.0000,-0.0003,-0.0000,1.0000,0.2447,-0.0022,0.0123
12370,Left,0,0.2072,0.0170,-0.9605,-0.1848,0.0043,-0.0049,-0.0043,-0.0139,0.0280,-0.0358,-3.8090,-1.0902,8.9382,0.0001,-0.0001,-0.0001,1.0000,-0.0952,-0.0273,0.2234
12370,Right,0,0.1523,-0.1626,-0.9076,-0.3558,0.0140,-0.0049,0.0116,0.0401,0.0449,-0.0908,-3.8147,1.7547,8.7686,0.0002,-0.0001,0.0001,1.0000,-0.0954,0.0438,0.2192
12370,Pelvis,0,-0.5391,0.4303,-0.5675,-0.4496,0.0073,-0.0232,-0.0025,0.0600,0.0082,-0.0123,9.7882,-0.0959,0.4826,0.0001,-0.0003,-0.0000,1.0000,0.2447,-0.0024,0.0121
12371,Left,0,0.2071,0.0171,-0.9605,-0.1848,0.0061,-0.0061,-0.0043,-0.0138,0.0265,-0.0358,-3.8077,-1.0895,8.9389,0.0001,-0.0001,-0.0001,1.0000,-0.0952,-0.0272,0.2235
12371,Right,0,0.1522,-0.1627,-0.9076,-0.3557,0.0122,-0.0049,0.0104,0.0240,0.0466,-0.0841,-3.8033,1.7684,8.7782,0.0002,-0.0001,0.0001,1.0000,-0.0951,0.0442,0.2195
12371,Pelvis,0,-0.5393,0.4303,-0.5675,-0.4494,0.0110,-0.0207,-0.0013,0.0410,-0.0041,0.0076,9.8080,-0.0758,0.4869,0.0001,-0.0003,-0.0000,1.0000,0.2452,-0.0019,0.0122
12372,Left,0,0.2070,0.0171,-0.9605,-0.1849,0.0061,-0.0037,-0.0043,-0.0065,0.0342,-0.0436,-3.8065,-1.0983,8.9298,0.0001,-0.0000,-0.0001,1.0000,-0.0952,-0.0275,0.2232
12372,Right,0,0.1522,-0.1627,-0.9077,-0.3557,0.0146,-0.0061,0.0110,0.0226,0.0286,-0.0873,-3.8114,1.7821,8.7683,0.0002,-0.0001,0.0001,1.0000,-0.0953,0.0445,0.2192
12372,Pelvis,0,-0.5394,0.4303,-0.5675,-0.4492,0.0104,-0.0213,-0.0007,0.0378,0.0066,-0.0026,9.7985,-0.0754,0.4721,0.0001,-0.0003,-0.0000,1.0000,0.2450,-0.0019,0.0119
12373,Left,0,0.2069,0.0171,-0.9606,-0.1850,0.0061,-0.0024,-0.0024,-0.0124,0.0242,-0.0358,-3.8057,-1.0875,8.9400,0.0001,-0.0000,-0.0000,1.0000,-0.0952,-0.0272,0.2235
12373,Right,0,0.1520,-0.1628,-0.9077,-0.3556,0.0140,-0.0012,0.0098,0.0232,0.0527,-0.0984,-3.7907,1.7666,8.7681,0.0002,-0.0000,0.0001,1.0000,-0.0948,0.0441,0.2192
12373,Pelvis,0,-0.5396,0.4304,-0.5675,-0.4490,0.0147,-0.0165,-0.0019,0.0548,0.0103,-0.0025,9.7987,-0.0945,0.4674,0.0002,-0.0002,-0.0000,1.0000,0.2450,-0.0024,0.0117
12374,Left,0,0.2068,0.0171,-0.9606,-0.1850,0.0049,-0.0037,-0.0030,-0.0082,0.0222,-0.0447,-3.8049,-1.0865,8.9306,0.0001,-0.0000,-0.0000,1.0000,-0.0951,-0.0272,0.2233
12374,Right,0,0.1520,-0.1629,-0.9077,-0.3555,0.0165,-0.0012,0.0085,0.0286,0.0327,-0.0890,-3.8095,1.7807,8.7675,0.0002,-0.0000,0.0001,1.0000,-0.0952,0.0445,0.2192
12374,Pelvis,0,-0.5398,0.4303,-0.5675,-0.4487,0.0195,-0.0183,-0.0025,0.0365,-0.0034,-0.0021,9.7990,-0.0742,0.4730,0.0002,-0.0002,-0.0000,1.0000,0.2450,-0.0019,0.0119
12375,Left,0,0.2068,0.0172,-0.9606,-0.1850,0.0055,-0.0024,-0.0037,-0.0172,0.0307,-0.0168,-3.8041,-1.0953,8.9604,0.0001,-0.0000,-0.0000,1.0000,-0.0951,-0.0274,0.2240
12375,Right,0,0.1519,-0.1630,-0.9078,-0.3554,0.0146,-0.0030,0.0116,0.0234,0.0517,-0.0769,-3.7988,1.7754,8.7866,0.0002,-0.0000,0.0001,1.0000,-0.0950,0.0443,0.2197
12375,Pelvis,0,-0.5400,0.4303,-0.5675,-0.4485,0.0220,-0.0165,-0.0019,0.0337,0.0065,-0.0124,9.7893,-0.0735,0.4591,0.0003,-0.0002,-0.0000,1.0000,0.2447,-0.0018,0.0115
12376,Left,0,0.2068,0.0172,-0.9606,-0.1851,0.0031,0.0006,-0.0024,-0.0127,0.0293,-0.0257,-3.8039,-1.0947,8.9508,0.0000,0.0000,-0.0000,1.0000,-0.0951,-0.0274,0.2238
12376,Right,0,0.1518,-0.1631,-0.9078,-0.3554,0.0134,-0.0012,0.0092,0.0433,0.0585,-0.0765,-3.8078,1.7600,8.7864,0.0002,-0.0000,0.0001,1.0000,-0.0952,0.0440,0.2197
12376,Pelvis,0,-0.5402,0.4301,-0.5676,-0.4483,0.0238,-0.0079,-0.0025,0.0129,-0.0362,0.0188,9.8190,-0.0433,0.4950,0.0003,-0.0001,-0.0000,1.0000,0.2455,-0.0011,0.0124
12377,Left,0,0.2067,0.0172,-0.9606,-0.1851,0.0055,0.0006,-0.0024,-0.0117,0.0272,-0.0257,-3.8039,-1.0940,8.9509,0.0001,0.0000,-0.0000,1.0000,-0.0951,-0.0274,0.2238
12377,Right,0,0.1518,-0.1631,-0.9078,-0.3552,0.0159,-0.0012,0.0092,0.0299,0.0515,-0.0875,-3.7973,1.7737,8.7760,0.0002,-0.0000,0.0001,1.0000,-0.0949,0.0443,0.2194
12377,Pelvis,0,-0.5404,0.4299,-0.5678,-0.4481,0.0256,0.0025,-0.0007,0.0103,0.0141,0.0455,9.8480,-0.0523,0.4453,0.0003,0.0000,-0.0000,1.0000,0.2462,-0.0013,0.0111
12378,Left,0,0.2066,0.0173,-0.9606,-0.1851,0.0024,0.0018,-0.0031,-0.0175,0.0076,-0.0279,-3.8042,-1.0738,8.9508,0.0000,0.0000,-0.0000,1.0000,-0.0951,-0.0268,0.2238
12378,Right,0,0.1517,-0.1632,-0.9079,-0.3551,0.0147,0.0012,0.0079,0.0334,0.0603,-0.0804,-3.7970,1.7682,8.7852,0.0002,0.0000,0.0001,1.0000,-0.0949,0.0442,0.2196
12378,Pelvis,0,-0.5404,0.4297,-0.5680,-0.4481,0.0256,0.0116,-0.0007,-0.0178,0.0075,0.0258,9.8283,-0.0226,0.4472,0.0003,0.0001,-0.0000,1.0000,0.2457,-0.0006,0.0111
12379,Left,0,0.2066,0.0174,-0.9606,-0.1851,0.0018,0.0030,-0.0049,0.0023,0.0078,-0.0192,-3.8241,-1.0835,8.9507,0.0000,0.0000,-0.0001,1.0000,-0.0956,-0.0271,0.2238
12379,Right,0,0.1518,-0.1632,-0.9080,-0.3549,0.0171,0.0012,0.0097,0.0459,0.0551,-0.0870,-3.8067,1.7628,8.7747,0.0002,0.0000,0.0001,1.0000,-0.0952,0.0440,0.2194
12379,Pelvis,0,-0.5404,0.4294,-0.5682,-0.4480,0.0201,0.0104,-0.0013,-0.0261,0.0039,-0.0133,9.7891,-0.0124,0.4502,0.0003,0.0001,-0.0000,1.0000,0.2447,-0.0003,0.0112
12380,Left,0,0.2067,0.0174,-0.9606,-0.1851,0.0024,0.0043,-0.0037,-0.0148,0.0226,-0.0168,-3.8053,-1.0931,8.9602,0.0000,0.0001,-0.0000,1.0000,-0.0951,-0.0273,0.2240
12380,Right,0,0.1517,-0.1633,-0.9080,-0.3547,0.0159,-0.0018,0.0098,0.0442,0.0405,-0.0814,-3.8159,1.7771,8.7739,0.0002,-0.0000,0.0001,1.0000,-0.0954,0.0444,0.2194
12380,Pelvis,0,-0.5405,0.4292,-0.5683,-0.4480,0.0164,0.0092,-0.0056,0.0258,-0.0048,-0.0217,9.7795,-0.0602,0.4723,0.0002,0.0001,-0.0001,1.0000,0.2445,-0.0015,0.0118
12381,Left,0,0.2067,0.0174,-0.9606,-0.1852,0.0037,0.0043,-0.0043,-0.0027,0.0306,-0.0335,-3.8061,-1.1027,8.9404,0.0000,0.0001,-0.0001,1.0000,-0.0951,-0.0276,0.2235
12381,Right,0,0.1516,-0.1634,-0.9080,-0.3548,0.0146,-0.0024,0.0092,0.0391,0.0545,-0.0997,-3.7956,1.7714,8.7638,0.0002,-0.0000,0.0001,1.0000,-0.0949,0.0442,0.2191
12381,Pelvis,0,-0.5405,0.4291,-0.5684,-0.4480,0.0158,0.0055,-0.0062,0.0183,0.0242,-0.0330,9.7694,-0.0586,0.4449,0.0002,0.0001,-0.0001,1.0000,0.2442,-0.0015,0.0111
12382,Left,0,0.2067,0.0175,-0.9605,-0.1852,0.0055,0.0030,-0.0055,-0.0026,0.0160,-0.0219,-3.8166,-1.0924,8.9499,0.0001,0.0000,-0.0001,1.0000,-0.0954,-0.0273,0.2237
12382,Right,0,0.1516,-0.1635,-0.9080,-0.3546,0.0159,-0.0024,0.0104,0.0300,0.0680,-0.0644,-3.7945,1.7761,8.8024,0.0002,-0.0000,0.0001,1.0000,-0.0949,0.0443,0.2201
12382,Pelvis,0,-0.5406,0.4289,-0.5685,-0.4480,0.0146,0.0018,-0.0092,-0.0129,0.0272,-0.0435,9.7595,-0.0274,0.4361,0.0002,0.0000,-0.0001,1.0000,0.2440,-0.0007,0.0109
12383,Left,0,0.2067,0.0175,-0.9605,-0.1853,0.0037,0.0018,-0.0043,-0.0069,0.0179,-0.0346,-3.8072,-1.0918,8.9400,0.0000,0.0000,-0.0001,1.0000,-0.0952,-0.0273,0.2235
12383,Right,0,0.1516,-0.1635,-0.9081,-0.3545,0.0159,-0.0043,0.0116,0.0226,0.0642,-0.0858,-3.7836,1.7803,8.7824,0.0002,-0.0001,0.0001,1.0000,-0.0946,0.0445,0.2196
12383,Pelvis,0,-0.5408,0.4287,-0.5685,-0.4478,0.0152,-0.0024,-0.0086,-0.0024,0.0199,-0.0234,9.7791,-0.0347,0.4457,0.0002,-0.0000,-0.0001,1.0000,0.2445,-0.0009,0.0111
12384,Left,0,0.2068,0.0176,-0.9605,-0.1852,0.0043,0.0018,-0.0024,-0.0007,0.0246,-0.0424,-3.8075,-1.1011,8.9302,0.0001,0.0000,-0.0000,1.0000,-0.0952,-0.0275,0.2233
12384,Right,0,0.1517,-0.1634,-0.9081,-0.3543,0.0134,-0.0012,0.0092,0.0248,0.0432,-0.0764,-3.8020,1.7944,8.7820,0.0002,-0.0000,0.0001,1.0000,-0.0951,0.0448,0.2196
12384,Pelvis,0,-0.5409,0.4287,-0.5685,-0.4477,0.0152,-0.0091,-0.0086,-0.0152,0.0278,-0.0045,9.7986,-0.0226,0.4343,0.0002,-0.0001,-0.0001,1.0000,0.2450,-0.0006,0.0109
12385,Left,0,0.2067,0.0176,-0.9605,-0.1853,0.0073,-0.0024,-0.0030,0.0016,0.0445,-0.0530,-3.7975,-1.1196,8.9208,0.0001,-0.0000,-0.0000,1.0000,-0.0949,-0.0280,0.2230
12385,Right,0,0.1516,-0.1635,-0.9081,-0.3544,0.0116,-0.0018,0.0073,0.0308,0.0615,-0.0836,-3.7917,1.7784,8.7818,0.0001,-0.0000,0.0001,1.0000,-0.0948,0.0444,0.2195
12385,Pelvis,0,-0.5412,0.4286,-0.5685,-0.4475,0.0134,-0.0159,-0.0043,-0.0227,-0.0259,-0.0312,9.7698,-0.0013,0.4802,0.0002,-0.0002,-0.0001,1.0000,0.2442,-0.0000,0.0121
12386,Left,0,0.2066,0.0176,-0.9606,-0.1853,0.0079,-0.0055,-0.0036,-0.0077,0.0225,-0.0246,-3.8064,-1.0985,8.9505,0.0001,-0.0001,-0.0000,1.0000,-0.0952,-0.0275,0.2238
12386,Right,0,0.1516,-0.1635,-0.9082,-0.3542,0.0122,-0.0024,0.0073,0.0277,0.0508,-0.0693,-3.8005,1.7916,8.7911,0.0002,-0.0000,0.0001,1.0000,-0.0950,0.0447,0.2198
12386,Pelvis,0,-0.5414,0.4287,-0.5683,-0.4474,0.0025,-0.0183,-0.0042,-0.0400,-0.0402,-0.0210,9.7797,0.0194,0.4857,0.0000,-0.0002,-0.0001,1.0000,0.2445,0.0005,0.0122
12387,Left,0,0.2064,0.0176,-0.9606,-0.1852,0.0104,-0.0043,-0.0024,-0.0055,0.0109,-0.0346,-3.8052,-1.0871,8.9414,0.0001,-0.0001,-0.0000,1.0000,-0.0951,-0.0272,0.2235
12387,Right,0,0.1515,-0.1634,-0.9083,-0.3540,0.0073,-0.0049,0.0074,0.0472,0.0564,-0.0688,-3.8093,1.7750,8.7913,0.0001,-0.0001,0.0001,1.0000,-0.0953,0.0443,0.2198
12387,Pelvis,0,-0.5415,0.4288,-0.5681,-0.4474,-0.0079,-0.0153,-0.0030,-0.0138,-0.0229,0.0176,9.8190,-0.0089,0.4716,-0.0001,-0.0002,-0.0000,1.0000,0.2455,-0.0002,0.0118
12388,Left,0,0.2063,0.0176,-0.9606,-0.1852,0.0085,-0.0018,-0.0024,-0.0011,0.0179,-0.0335,-3.8044,-1.0949,8.9420,0.0001,-0.0000,-0.0000,1.0000,-0.0951,-0.0274,0.2235
12388,Right,0,0.1515,-0.1634,-0.9084,-0.3538,0.0104,-0.0055,0.0086,0.0336,0.0623,-0.0853,-3.7883,1.7774,8.7816,0.0001,-0.0001,0.0001,1.0000,-0.0947,0.0444,0.2195
12388,Pelvis,0,-0.5415,0.4289,-0.5680,-0.4474,-0.0073,-0.0159,-0.0042,0.0060,-0.0261,0.0378,9.8389,-0.0275,0.4774,-0.0001,-0.0002,-0.0001,1.0000,0.2460,-0.0007,0.0120
12389,Left,0,0.2061,0.0177,-0.9607,-0.1851,0.0073,-0.0006,-0.0024,-0.0031,0.0058,-0.0346,-3.8041,-1.0836,8.9423,0.0001,-0.0000,-0.0000,1.0000,-0.0951,-0.0271,0.2236
12389,Right,0,0.1514,-0.1633,-0.9085,-0.3535,0.0097,-0.0055,0.0080,0.0632,0.0414,-0.0931,-3.8162,1.7706,8.7623,0.0001,-0.0001,0.0001,1.0000,-0.0954,0.0442,0.2191
12389,Pelvis,0,-0.5415,0.4290,-0.5679,-0.4474,-0.0098,-0.0098,-0.0067,0.0010,-0.0096,-0.0120,9.7901,-0.0265,0.4552,-0.0001,-0.0001,-0.0001,1.0000,0.2447,-0.0007,0.0114
12390,Left,0,0.2061,0.0177,-0.9607,-0.1851,0.0049,-0.0006,-0.0031,0.0007,0.0146,-0.0335,-3.8039,-1.0923,8.9426,0.0001,-0.0000,-0.0000,1.0000,-0.0951,-0.0273,0.2236
12390,Right,0,0.1513,-0.1633,-0.9086,-0.3535,0.0110,-0.0097,0.0092,0.0567,0.0604,-0.0809,-3.8044,1.7642,8.7823,0.0001,-0.0001,0.0001,1.0000,-0.0951,0.0441,0.2196
12390,Pelvis,0,-0.5416,0.4290,-0.5677,-0.4475,-0.0092,-0.0025,-0.0079,0.0313,-0.0023,-0.0021,9.8000,-0.0541,0.4537,-0.0001,-0.0000,-0.0001,1.0000,0.2450,-0.0014,0.0113
12391,Left,0,0.2061,0.0176,-0.9607,-0.1853,0.0043,-0.0012,-0.0049,0.0078,0.0205,-0.0197,-3.8133,-1.1014,8.9526,0.0001,-0.0000,-0.0001,1.0000,-0.0953,-0.0275,0.2238
12391,Right,0,0.1512,-0.1633,-0.9086,-0.3535,0.0128,-0.0097,0.0123,0.0202,0.0761,-0.0946,-3.7626,1.7772,8.7824,0.0002,-0.0001,0.0002,1.0000,-0.0941,0.0444,0.2196
12391,Pelvis,0,-0.5417,0.4290,-0.5676,-0.4476,-0.0080,0.0024,-0.0110,0.0623,0.0338,0.0063,9.8097,-0.0910,0.4244,-0.0001,0.0000,-0.0001,1.0000,0.2452,-0.0023,0.0106
12392,Left,0,0.2062,0.0177,-0.9607,-0.1853,0.0037,0.0024,-0.0043,-0.0216,0.0197,-0.0322,-3.7841,-1.0911,8.9526,0.0000,0.0000,-0.0001,1.0000,-0.0946,-0.0273,0.2238
12392,Right,0,0.1512,-0.1633,-0.9086,-0.3535,0.0122,-0.0098,0.0080,0.0270,0.0734,-0.1139,-3.7602,1.7708,8.7634,0.0002,-0.0001,0.0001,1.0000,-0.0940,0.0442,0.2191
12392,Pelvis,0,-0.5416,0.4288,-0.5676,-0.4479,-0.0081,0.0201,-0.0232,0.0723,0.0776,0.0336,9.8386,-0.1064,0.3878,-0.0001,0.0003,-0.0003,1.0000,0.2460,-0.0027,0.0096
12393,Left,0,0.2062,0.0177,-0.9606,-0.1854,0.0006,0.0067,-0.0049,-0.0054,0.0218,-0.0145,-3.8045,-1.1008,8.9621,0.0000,0.0001,-0.0001,1.0000,-0.0951,-0.0275,0.2241
12393,Right,0,0.1511,-0.1633,-0.9086,-0.3534,0.0152,-0.0079,0.0086,0.0477,0.0816,-0.0919,-3.7776,1.7556,8.7835,0.0002,-0.0001,0.0001,1.0000,-0.0945,0.0438,0.2196
12393,Pelvis,0,-0.5415,0.4281,-0.5678,-0.4484,0.0131,0.0549,-0.0374,0.0523,0.0771,0.0920,9.8968,-0.0791,0.3965,0.0002,0.0007,-0.0005,1.0000,0.2474,-0.0021,0.0097
12394,Left,0,0.2064,0.0180,-0.9606,-0.1852,-0.0025,0.0140,-0.0061,-0.0058,0.0083,-0.0246,-3.8067,-1.0918,8.9512,-0.0000,0.0002,-0.0001,1.0000,-0.0951,-0.0273,0.2238
12394,Right,0,0.1511,-0.1633,-0.9087,-0.3531,0.0183,-0.0043,0.0104,0.0449,0.0660,-0.0864,-3.7855,1.7700,8.7832,0.0002,-0.0001,0.0001,1.0000,-0.0947,0.0442,0.2196
12394,Pelvis,0,-0.5414,0.4271,-0.5682,-0.4490,0.0264,0.0781,-0.0503,0.0034,0.0334,0.0639,9.8667,-0.0095,0.4423,0.0003,0.0010,-0.0006,1.0000,0.2467,-0.0004,0.0108
12395,Left,0,0.2066,0.0181,-0.9605,-0.1854,-0.0067,0.0152,-0.0080,0.0046,0.0236,-0.0096,-3.8194,-1.1131,8.9596,-0.0001,0.0002,-0.0001,1.0000,-0.0954,-0.0278,0.2240
12395,Right,0,0.1511,-0.1634,-0.9087,-0.3532,0.0195,-0.0024,0.0128,0.0263,0.0553,-0.0742,-3.7840,1.7949,8.7921,0.0002,-0.0000,0.0002,1.0000,-0.0946,0.0448,0.2198
12395,Pelvis,0,-0.5413,0.4262,-0.5685,-0.4496,0.0308,0.0641,-0.0484,-0.0144,-0.0156,-0.0317,9.7682,0.0316,0.4993,0.0004,0.0008,-0.0006,1.0000,0.2442,0.0006,0.0123
12396,Left,0,0.2068,0.0181,-0.9605,-0.1854,0.0012,0.0165,-0.0031,0.0030,0.0275,-0.0529,-3.8032,-1.1144,8.9190,0.0000,0.0002,-0.0000,1.0000,-0.0950,-0.0279,0.2230
12396,Right,0,0.1511,-0.1635,-0.9087,-0.3532,0.0177,-0.0006,0.0097,0.0469,0.0666,-0.0968,-3.7835,1.7705,8.7724,0.0002,-0.0000,0.0001,1.0000,-0.0946,0.0442,0.2193
12396,Pelvis,0,-0.5412,0.4255,-0.5689,-0.4499,0.0278,0.0513,-0.0343,-0.0297,0.0007,-0.0523,9.7478,0.0516,0.4939,0.0003,0.0006,-0.0004,1.0000,0.2437,0.0012,0.0122
12397,Left,0,0.2071,0.0179,-0.9604,-0.1857,0.0006,0.0128,-0.0055,-0.0060,0.0280,-0.0134,-3.8162,-1.1144,8.9566,0.0000,0.0002,-0.0001,1.0000,-0.0954,-0.0279,0.2239
12397,Right,0,0.1513,-0.1636,-0.9086,-0.3533,0.0147,-0.0018,0.0098,0.0314,0.0379,-0.0752,-3.8020,1.8046,8.7811,0.0002,-0.0000,0.0001,1.0000,-0.0951,0.0451,0.2195
12397,Pelvis,0,-0.5413,0.4250,-0.5691,-0.4501,0.0254,0.0403,-0.0294,0.0128,-0.0105,-0.0510,9.7476,0.0207,0.5247,0.0003,0.0005,-0.0004,1.0000,0.2437,0.0004,0.0130
12398,Left,0,0.2073,0.0180,-0.9603,-0.1858,0.0024,0.0079,-0.0025,0.0007,0.0192,-0.0629,-3.8086,-1.1049,8.9068,0.0000,0.0001,-0.0000,1.0000,-0.0952,-0.0276,0.2227
12398,Right,0,0.1511,-0.1638,-0.9085,-0.3534,0.0146,-0.0043,0.0098,0.0189,0.0800,-0.0637,-3.7717,1.7894,8.8103,0.0002,-0.0001,0.0001,1.0000,-0.0943,0.0447,0.2203
12398,Pelvis,0,-0.5413,0.4245,-0.5693,-0.4502,0.0236,0.0318,-0.0257,0.0220,0.0304,-0.0530,9.7473,0.0080,0.4945,0.0003,0.0004,-0.0003,1.0000,0.2437,0.0001,0.0123
12399,Left,0,0.2073,0.0180,-0.9603,-0.1858,0.0043,0.0049,-0.0037,-0.0114,0.0196,-0.0362,-3.8100,-1.1043,8.9356,0.0001,0.0001,-0.0000,1.0000,-0.0952,-0.0276,0.2234
12399,Right,0,0.1512,-0.1638,-0.9086,-0.3533,0.0159,-0.0043,0.0104,0.0318,0.0720,-0.0791,-3.7803,1.7837,8.7907,0.0002,-0.0001,0.0001,1.0000,-0.0945,0.0445,0.2198
12399,Pelvis,0,-0.5413,0.4241,-0.5695,-0.4503,0.0200,0.0232,-0.0208,0.0008,0.0261,-0.0433,9.7565,0.0336,0.5011,0.0003,0.0003,-0.0003,1.0000,0.2439,0.0008,0.0125
12400,Left,0,0.2073,0.0179,-0.9603,-0.1859,0.0049,0.0037,-0.0031,-0.0030,0.0160,-0.0324,-3.8206,-1.1036,8.9353,0.0001,0.0000,-0.0000,1.0000,-0.0955,-0.0276,0.2234
12400,Right,0,0.1512,-0.1639,-0.9086,-0.3532,0.0165,-0.0006,0.0122,0.0255,0.0691,-0.1006,-3.7695,1.7879,8.7707,0.0002,-0.0000,0.0002,1.0000,-0.0942,0.0446,0.2193
12400,Pelvis,0,-0.5414,0.4238,-0.5696,-0.4503,0.0213,0.0104,-0.0147,-0.0042,0.0466,-0.0249,9.7758,0.0383,0.4857,0.0003,0.0001,-0.0002,1.0000,0.2444,0.0009,0.0121
12401,Left,0,0.2071,0.0179,-0.9603,-0.1858,0.0061,0.0012,-0.0030,-0.0079,0.0175,-0.0362,-3.8113,-1.1026,8.9352,0.0001,0.0000,-0.0000,1.0000,-0.0953,-0.0276,0.2234
12401,Right,0,0.1510,-0.1640,-0.9086,-0.3530,0.0159,0.0012,0.0103,0.0319,0.0782,-0.0934,-3.7692,1.7829,8.7799,0.0002,0.0000,0.0001,1.0000,-0.0942,0.0445,0.2195
12401,Pelvis,0,-0.5415,0.4237,-0.5697,-0.4502,0.0189,0.0007,-0.0073,-0.0218,0.0234,-0.0045,9.7950,0.0611,0.5064,0.0002,0.0000,-0.0001,1.0000,0.2449,0.0015,0.0127
12402,Left,0,0.2071,0.0179,-0.9603,-0.1859,0.0061,0.0031,-0.0024,-0.0036,0.0230,-0.0134,-3.8215,-1.1112,8.9548,0.0001,0.0000,-0.0000,1.0000,-0.0955,-0.0278,0.2239
12402,Right,0,0.1511,-0.1641,-0.9087,-0.3530,0.0141,0.0024,0.0079,0.0124,0.0838,-0.0780,-3.7592,1.7971,8.7983,0.0002,0.0000,0.0001,1.0000,-0.0940,0.0449,0.2200
12402,Pelvis,0,-0.5417,0.4237,-0.5698,-0.4500,0.0141,-0.0036,-0.0006,-0.0107,0.0157,0.0254,9.8244,0.0530,0.5158,0.0002,-0.0000,-0.0000,1.0000,0.2456,0.0013,0.0129
12403,Left,0,0.2073,0.0178,-0.9603,-0.1860,0.0061,0.0006,-0.0018,-0.0078,0.0256,-0.0350,-3.8120,-1.1101,8.9353,0.0001,0.0000,-0.0000,1.0000,-0.0953,-0.0278,0.2234
12403,Right,0,0.1513,-0.1641,-0.9086,-0.3530,0.0128,0.0024,0.0073,0.0213,0.0801,-0.0846,-3.7693,1.7909,8.7879,0.0002,0.0000,0.0001,1.0000,-0.0942,0.0447,0.2197
12403,Pelvis,0,-0.5418,0.4237,-0.5698,-0.4497,0.0141,-0.0060,0.0037,-0.0261,0.0291,-0.0148,9.7853,0.0619,0.4950,0.0002,-0.0001,0.0000,1.0000,0.2446,0.0016,0.0124
12404,Left,0,0.2073,0.0178,-0.9603,-0.1861,0.0055,0.0018,-0.0012,-0.0188,0.0295,-0.0299,-3.8025,-1.1089,8.9451,0.0001,0.0000,-0.0000,1.0000,-0.0951,-0.0277,0.2236
12404,Right,0,0.1513,-0.1643,-0.9086,-0.3530,0.0141,0.0024,0.0079,0.0265,0.0860,-0.0862,-3.7696,1.7848,8.7873,0.0002,0.0000,0.0001,1.0000,-0.0942,0.0446,0.2197
12404,Pelvis,0,-0.5419,0.4236,-0.5699,-0.4495,0.0165,-0.0072,0.0031,-0.0278,0.0376,-0.0348,9.7658,0.0610,0.4837,0.0002,-0.0001,0.0000,1.0000,0.2441,0.0015,0.0121
12405,Left,0,0.2073,0.0178,-0.9603,-0.1860,0.0055,0.0006,0.0000,-0.0108,0.0121,-0.0145,-3.8224,-1.0980,8.9548,0.0001,0.0000,0.0000,1.0000,-0.0956,-0.0275,0.2239
12405,Right,0,0.1515,-0.1643,-0.9086,-0.3529,0.0147,0.0037,0.0085,0.0189,0.0827,-0.1077,-3.7602,1.7882,8.7668,0.0002,0.0000,0.0001,1.0000,-0.0940,0.0447,0.2192
12405,Pelvis,0,-0.5421,0.4236,-0.5700,-0.4493,0.0239,-0.0090,0.0025,-0.0124,0.0107,-0.0429,9.7563,0.0509,0.5110,0.0003,-0.0001,0.0000,1.0000,0.2439,0.0013,0.0128
12406,Left,0,0.2073,0.0177,-0.9603,-0.1861,0.0079,-0.0012,-0.0006,-0.0045,0.0329,-0.0339,-3.8124,-1.1161,8.9356,0.0001,-0.0000,-0.0000,1.0000,-0.0953,-0.0279,0.2234
12406,Right,0,0.1515,-0.1644,-0.9086,-0.3529,0.0135,0.0025,0.0097,0.0257,0.0691,-0.0680,-3.7896,1.8029,8.7951,0.0002,0.0000,0.0001,1.0000,-0.0947,0.0450,0.2199
12406,Pelvis,0,-0.5422,0.4235,-0.5701,-0.4490,0.0300,-0.0114,0.0025,-0.0045,0.0152,-0.0136,9.7859,0.0412,0.5086,0.0004,-0.0001,0.0000,1.0000,0.2446,0.0010,0.0127
12407,Left,0,0.2073,0.0177,-0.9603,-0.1861,0.0061,-0.0006,-0.0030,-0.0121,0.0132,-0.0362,-3.8123,-1.0952,8.9358,0.0001,-0.0000,-0.0000,1.0000,-0.0953,-0.0274,0.2234
12407,Right,0,0.1516,-0.1645,-0.9086,-0.3527,0.0135,0.0043,0.0079,0.0131,0.0936,-0.0597,-3.7705,1.7971,8.8138,0.0002,0.0001,0.0001,1.0000,-0.0943,0.0449,0.2204
12407,Pelvis,0,-0.5425,0.4233,-0.5703,-0.4486,0.0415,-0.0052,0.0067,-0.0063,0.0149,0.0255,9.8250,0.0410,0.5065,0.0005,-0.0001,0.0001,1.0000,0.2456,0.0010,0.0127
12408,Left,0,0.2073,0.0179,-0.9603,-0.1859,0.0055,0.0006,-0.0012,-0.0336,0.0148,-0.0132,-3.8025,-1.0938,8.9652,0.0001,0.0000,-0.0000,1.0000,-0.0951,-0.0274,0.2241
12408,Pelvis,0,-0.5427,0.4231,-0.5707,-0.4481,0.0427,0.0027,0.0067,-0.0897,-0.0253,0.0355,9.8338,0.1281,0.5246,0.0005,0.0000,0.0001,1.0000,0.2458,0.0032,0.0131
12409,Left,0,0.2074,0.0180,-0.9603,-0.1859,0.0018,0.0043,-0.0049,-0.0154,0.0184,-0.0261,-3.8126,-1.1033,8.9456,0.0000,0.0001,-0.0001,1.0000,-0.0953,-0.0276,0.2236
12409,Right,0,0.1517,-0.1645,-0.9087,-0.3523,0.0119,0.0015,0.0076,0.0191,0.0858,-0.0985,-3.7661,1.7916,8.7738,0.0003,0.0000,0.0002,1.0000,-0.1883,0.0894,0.4387
12409,Pelvis,0,-0.5427,0.4229,-0.5709,-0.4479,0.0304,0.0161,0.0029,-0.0991,-0.0367,0.0847,9.8824,0.1379,0.5364,0.0004,0.0002,0.0000,1.0000,0.2471,0.0035,0.0134
12410,Left,0,0.2075,0.0180,-0.9602,-0.1860,0.0012,0.0073,-0.0037,-0.0236,0.0204,-0.0299,-3.8040,-1.1033,8.9451,0.0000,0.0001,-0.0000,1.0000,-0.0951,-0.0276,0.2236
12410,Right,0,0.1517,-0.1645,-0.9087,-0.3524,0.0092,0.0031,0.0067,0.0182,0.0844,-0.0877,-3.7712,1.7966,8.7825,0.0001,0.0000,0.0001,1.0000,-0.0943,0.0449,0.2196
12410,Pelvis,0,-0.5427,0.4226,-0.5712,-0.4478,0.0292,0.0203,-0.0069,-0.0756,-0.0131,0.0351,9.8337,0.1086,0.5217,0.0004,0.0003,-0.0001,1.0000,0.2458,0.0027,0.0130
12411,Left,0,0.2075,0.0182,-0.9602,-0.1858,0.0006,0.0073,-0.0049,-0.0197,0.0267,-0.0288,-3.8055,-1.1133,8.9445,0.0000,0.0001,-0.0001,1.0000,-0.0951,-0.0278,0.2236
12411,Right,0,0.1517,-0.1646,-0.9087,-0.3523,0.0104,0.0006,0.0091,0.0234,0.0768,-0.0838,-3.7810,1.7996,8.7819,0.0001,0.0000,0.0001,1.0000,-0.0945,0.0450,0.2196
12411,Pelvis,0,-0.5429,0.4220,-0.5716,-0.4477,0.0457,0.0203,-0.0130,0.0211,0.0464,-0.0343,9.7663,0.0028,0.4890,0.0006,0.0003,-0.0002,1.0000,0.2442,0.0000,0.0122
12412,Left,0,0.2076,0.0183,-0.9602,-0.1858,0.0037,0.0043,-0.0055,-0.0169,0.0239,-0.0377,-3.8066,-1.1134,8.9343,0.0000,0.0001,-0.0001,1.0000,-0.0952,-0.0278,0.2234
12412,Right,0,0.1518,-0.1645,-0.9088,-0.3520,0.0098,-0.0030,0.0098,0.0216,0.0838,-0.0981,-3.7707,1.7926,8.7720,0.0001,-0.0000,0.0001,1.0000,-0.0943,0.0448,0.2193
12412,Pelvis,0,-0.5432,0.4215,-0.5720,-0.4474,0.0603,0.0180,-0.0044,0.0156,0.0242,-0.0138,9.7855,0.0159,0.5131,0.0008,0.0002,-0.0001,1.0000,0.2446,0.0004,0.0128
12413,Left,0,0.2076,0.0182,-0.9602,-0.1859,0.0037,0.0018,-0.0031,-0.0194,0.0125,-0.0172,-3.8171,-1.1031,8.9535,0.0000,0.0000,-0.0000,1.0000,-0.0954,-0.0276,0.2238
12413,Right,0,0.1518,-0.1645,-0.9089,-0.3520,0.0067,-0.0049,0.0055,0.0088,0.0710,-0.0734,-3.7789,1.8152,8.7911,0.0001,-0.0001,0.0001,1.0000,-0.0945,0.0454,0.2198
12413,Pelvis,0,-0.5434,0.4210,-0.5725,-0.4469,0.0664,0.0200,0.0090,-0.0471,-0.0116,0.0061,9.8039,0.0850,0.5361,0.0008,0.0002,0.0001,1.0000,0.2451,0.0021,0.0133
12414,Left,0,0.2076,0.0183,-0.9602,-0.1859,0.0037,0.0024,-0.0024,-0.0015,0.0280,-0.0416,-3.8173,-1.1223,8.9243,0.0000,0.0000,-0.0000,1.0000,-0.0954,-0.0281,0.2231
12414,Right,0,0.1519,-0.1644,-0.9089,-0.3519,0.0049,-0.0006,0.0043,0.0262,0.1026,-0.0837,-3.7689,1.7778,8.7920,0.0001,-0.0000,0.0001,1.0000,-0.0942,0.0444,0.2198
12414,Pelvis,0,-0.5436,0.4207,-0.5730,-0.4464,0.0628,0.0176,0.0176,-0.0410,-0.0002,0.0252,9.8234,0.0729,0.5310,0.0008,0.0002,0.0002,1.0000,0.2456,0.0019,0.0132
12415,Left,0,0.2077,0.0183,-0.9602,-0.1859,0.0006,0.0012,-0.0037,-0.0231,0.0346,-0.0403,-3.7981,-1.1219,8.9340,0.0000,0.0000,-0.0000,1.0000,-0.0950,-0.0280,0.2234
12415,Right,0,0.1520,-0.1643,-0.9089,-0.3518,0.0043,0.0000,0.0037,0.0238,0.0974,-0.0925,-3.7687,1.7789,8.7821,0.0001,0.0000,0.0000,1.0000,-0.0942,0.0445,0.2196
12415,Pelvis,0,-0.5437,0.4204,-0.5735,-0.4458,0.0610,0.0048,0.0214,-0.0744,0.0104,-0.0151,9.7839,0.0974,0.5135,0.0008,0.0001,0.0003,1.0000,0.2446,0.0025,0.0128
12416,Left,0,0.2078,0.0183,-0.9601,-0.1861,0.0037,0.0012,-0.0018,-0.0169,0.0313,-0.0365,-3.8081,-1.1218,8.9339,0.0000,0.0000,-0.0000,1.0000,-0.0952,-0.0281,0.2233
12416,Right,0,0.1522,-0.1642,-0.9088,-0.3520,0.0037,0.0000,0.0030,0.0113,0.0938,-0.0821,-3.7683,1.7901,8.7914,0.0000,0.0000,0.0000,1.0000,-0.0942,0.0447,0.2198
12416,Pelvis,0,-0.5440,0.4202,-0.5738,-0.4453,0.0470,-0.0026,0.0172,-0.1272,-0.0597,-0.1009,9.6952,0.1619,0.5608,0.0006,-0.0000,0.0002,1.0000,0.2424,0.0041,0.0140
12417,Left,0,0.2076,0.0182,-0.9602,-0.1861,0.0073,-0.0024,-0.0018,-0.0114,0.0311,-0.0455,-3.8078,-1.1208,8.9244,0.0001,-0.0000,-0.0000,1.0000,-0.0952,-0.0280,0.2231
12417,Right,0,0.1522,-0.1642,-0.9088,-0.3519,0.0043,-0.0018,0.0025,0.0251,0.0901,-0.0886,-3.7780,1.7814,8.7818,0.0001,-0.0000,0.0000,1.0000,-0.0945,0.0445,0.2195
12417,Pelvis,0,-0.5442,0.4203,-0.5739,-0.4448,0.0245,-0.0205,0.0143,-0.1046,-0.0344,-0.0919,9.7056,0.1290,0.5390,0.0003,-0.0003,0.0002,1.0000,0.2426,0.0033,0.0135
12418,Left,0,0.2075,0.0181,-0.9602,-0.1863,0.0055,-0.0018,-0.0018,-0.0332,0.0261,-0.0237,-3.7977,-1.1094,8.9540,0.0001,-0.0000,-0.0000,1.0000,-0.0949,-0.0277,0.2238
12418,Right,0,0.1521,-0.1643,-0.9088,-0.3521,0.0049,-0.0037,0.0019,0.0208,0.1041,-0.1068,-3.7579,1.7723,8.7723,0.0001,-0.0000,0.0000,1.0000,-0.0940,0.0443,0.2193
12418,Pelvis,0,-0.5444,0.4205,-0.5739,-0.4443,0.0166,-0.0291,0.0144,-0.0422,-0.0187,-0.0328,9.7652,0.0580,0.5345,0.0002,-0.0004,0.0002,1.0000,0.2441,0.0015,0.0135
12419,Left,0,0.2074,0.0180,-0.9602,-0.1863,0.0061,0.0000,-0.0030,-0.0107,0.0182,-0.0250,-3.8169,-1.1086,8.9444,0.0001,0.0000,-0.0000,1.0000,-0.0954,-0.0277,0.2236
12419,Right,0,0.1520,-0.1642,-0.9088,-0.3521,0.0030,-0.0031,-0.0012,0.0345,0.0913,-0.0990,-3.7767,1.7735,8.7725,0.0000,-0.0000,-0.0000,1.0000,-0.0944,0.0443,0.2193
12419,Pelvis,0,-0.5447,0.4210,-0.5738,-0.4437,0.0130,-0.0443,0.0170,-0.0491,-0.0506,0.0076,9.8047,0.0652,0.5546,0.0002,-0.0006,0.0002,1.0000,0.2451,0.0017,0.0140
12420,Left,0,0.2073,0.0182,-0.9602,-0.1861,0.0043,0.0024,-0.0024,-0.0142,0.0270,-0.0276,-3.8073,-1.1174,8.9445,0.0001,0.0000,-0.0000,1.0000,-0.0952,-0.0279,0.2236
12420,Right,0,0.1520,-0.1641,-0.9089,-0.3520,0.0030,-0.0043,-0.0024,0.0295,0.0965,-0.0813,-3.7759,1.7745,8.7922,0.0000,-0.0001,-0.0000,1.0000,-0.0944,0.0444,0.2198
12420,Pelvis,0,-0.5449,0.4214,-0.5736,-0.4432,0.0039,-0.0505,0.0140,-0.0725,-0.0868,-0.0107,9.7856,0.0913,0.5716,0.0000,-0.0006,0.0002,1.0000,0.2446,0.0023,0.0144
12421,Left,0,0.2071,0.0183,-0.9603,-0.1859,0.0024,0.0061,-0.0019,0.0026,0.0305,-0.0226,-3.8179,-1.1267,8.9443,0.0000,0.0001,-0.0000,1.0000,-0.0954,-0.0282,0.2236
12421,Right,0,0.1519,-0.1639,-0.9091,-0.3516,0.0018,-0.0043,-0.0024,0.0318,0.0905,-0.0901,-3.7751,1.7745,8.7828,0.0000,-0.0001,-0.0000,1.0000,-0.0944,0.0444,0.2196
12421,Pelvis,0,-0.5452,0.4219,-0.5732,-0.4429,-0.0138,-0.0531,0.0049,-0.1037,-0.1364,-0.0383,9.7568,0.1286,0.5972,-0.0002,-0.0007,0.0001,1.0000,0.2439,0.0032,0.0151
12422,Left,0,0.2071,0.0184,-0.9604,-0.1858,0.0036,0.0073,-0.0025,0.0000,0.0314,-0.0354,-3.8095,-1.1262,8.9340,0.0000,0.0001,-0.0000,1.0000,-0.0952,-0.0282,0.2234
12422,Right,0,0.1519,-0.1638,-0.9091,-0.3515,0.0018,-0.0061,-0.0012,0.0398,0.1044,-0.1060,-3.7646,1.7549,8.7738,0.0000,-0.0001,-0.0000,1.0000,-0.0941,0.0439,0.2193
12422,Pelvis,0,-0.5454,0.4224,-0.5727,-0.4429,-0.0303,-0.0508,0.0000,-0.0881,-0.1140,-0.0586,9.7381,0.1075,0.5656,-0.0004,-0.0006,0.0000,1.0000,0.2434,0.0027,0.0143
12423,Left,0,0.2072,0.0184,-0.9603,-0.1859,0.0036,0.0067,-0.0043,0.0030,0.0174,-0.0327,-3.8208,-1.1160,8.9333,0.0000,0.0001,-0.0001,1.0000,-0.0955,-0.0279,0.2233
12423,Right,0,0.1519,-0.1637,-0.9091,-0.3516,0.0055,-0.0061,0.0013,0.0445,0.1156,-0.0773,-3.7730,1.7467,8.8038,0.0001,-0.0001,0.0000,1.0000,-0.0943,0.0437,0.2201
12423,Pelvis,0,-0.5454,0.4230,-0.5722,-0.4430,-0.0468,-0.0417,-0.0006,-0.0537,-0.0943,-0.0490,9.7488,0.0679,0.5454,-0.0006,-0.0005,-0.0000,1.0000,0.2437,0.0017,0.0138
12424,Left,0,0.2072,0.0185,-0.9603,-0.1858,0.0055,0.0043,-0.0025,-0.0041,0.0187,-0.0365,-3.8122,-1.1153,8.9329,0.0001,0.0001,-0.0000,1.0000,-0.0953,-0.0279,0.2233
12424,Right,0,0.1519,-0.1637,-0.9091,-0.3516,0.0085,-0.0037,0.0055,0.0449,0.1102,-0.0861,-3.7718,1.7484,8.7942,0.0001,-0.0000,0.0001,1.0000,-0.0943,0.0437,0.2199
12424,Pelvis,0,-0.5452,0.4235,-0.5717,-0.4433,-0.0505,-0.0351,-0.0044,-0.0035,-0.0152,0.0267,9.8277,-0.0010,0.4785,-0.0006,-0.0004,-0.0001,1.0000,0.2457,-0.0000,0.0121
12425,Left,0,0.2072,0.0186,-0.9603,-0.1857,0.0037,0.0049,-0.0043,-0.0082,0.0046,-0.0160,-3.8230,-1.1047,8.9520,0.0000,0.0001,-0.0001,1.0000,-0.0956,-0.0276,0.2238
12425,Right,0,0.1519,-0.1637,-0.9092,-0.3515,0.0116,-0.0055,0.0086,0.0328,0.1056,-0.0756,-3.7703,1.7612,8.8037,0.0001,-0.0001,0.0001,1.0000,-0.0943,0.0440,0.2201
12425,Pelvis,0,-0.5452,0.4241,-0.5712,-0.4435,-0.0542,-0.0339,-0.0080,0.0289,0.0050,0.0753,9.8772,-0.0389,0.4607,-0.0007,-0.0004,-0.0001,1.0000,0.2469,-0.0010,0.0116
12426,Left,0,0.2072,0.0185,-0.9603,-0.1858,0.0043,0.0049,-0.0043,0.0085,0.0215,-0.0315,-3.8238,-1.1239,8.9323,0.0001,0.0001,-0.0001,1.0000,-0.0956,-0.0281,0.2233
12426,Right,0,0.1518,-0.1637,-0.9092,-0.3514,0.0097,-0.0067,0.0080,0.0136,0.0928,-0.0851,-3.7586,1.7835,8.7936,0.0001,-0.0001,0.0001,1.0000,-0.0940,0.0446,0.2198
12426,Pelvis,0,-0.5450,0.4246,-0.5707,-0.4438,-0.0585,-0.0272,-0.0087,0.0403,-0.0024,0.0467,9.8485,-0.0474,0.4633,-0.0007,-0.0003,-0.0001,1.0000,0.2462,-0.0012,0.0117
12427,Left,0,0.2073,0.0186,-0.9603,-0.1858,0.0036,0.0067,-0.0037,-0.0084,0.0146,-0.0276,-3.8153,-1.1135,8.9416,0.0000,0.0001,-0.0000,1.0000,-0.0954,-0.0278,0.2235
12427,Right,0,0.1518,-0.1637,-0.9092,-0.3514,0.0098,-0.0024,0.0073,0.0351,0.1100,-0.0772,-3.7674,1.7575,8.8041,0.0001,-0.0000,0.0001,1.0000,-0.0942,0.0439,0.2201
12427,Pelvis,0,-0.5447,0.4251,-0.5703,-0.4443,-0.0690,-0.0077,-0.0100,0.0464,-0.0313,0.0288,9.8294,-0.0455,0.4884,-0.0009,-0.0001,-0.0001,1.0000,0.2457,-0.0012,0.0122
12428,Left,2,0.2076,0.0186,-0.9602,-0.1860,0.0043,0.0073,-0.0037,-0.0060,0.0197,-0.0137,-3.8265,-1.1227,8.9509,0.0001,0.0001,-0.0000,1.0000,-0.0956,-0.0281,0.2238
12428,Right,2,0.1520,-0.1637,-0.9091,-0.3516,0.0140,-0.0049,0.0080,-0.0004,0.1111,-0.0729,-3.7464,1.7803,8.8131,0.0002,-0.0001,0.0001,1.0000,-0.0937,0.0445,0.2203
12428,Pelvis,2,-0.5443,0.4256,-0.5697,-0.4450,-0.0855,-0.0041,-0.0094,0.0481,-0.0308,0.0190,9.8197,-0.0441,0.4869,-0.0011,-0.0001,-0.0001,1.0000,0.2455,-0.0011,0.0122
12429,Left,2,0.2078,0.0185,-0.9601,-0.1861,0.0061,0.0061,-0.0012,-0.0089,0.0255,-0.0570,-3.8083,-1.1220,8.9114,0.0001,0.0001,-0.0000,1.0000,-0.0952,-0.0281,0.2228
12429,Right,2,0.1520,-0.1638,-0.9090,-0.3518,0.0140,-0.0030,0.0092,0.0065,0.1006,-0.1313,-3.7358,1.7728,8.7545,0.0002,-0.0000,0.0001,1.0000,-0.0934,0.0443,0.2189
12429,Pelvis,2,-0.5438,0.4264,-0.5690,-0.4458,-0.1086,-0.0061,-0.0062,0.0621,-0.0010,-0.0408,9.7611,-0.0639,0.4570,-0.0014,-0.0001,-0.0001,1.0000,0.2440,-0.0016,0.0114
12430,Left,2,0.2079,0.0185,-0.9601,-0.1862,0.0085,0.0037,-0.0012,-0.0184,0.0123,-0.0276,-3.8193,-1.1105,8.9403,0.0001,0.0000,-0.0000,1.0000,-0.0955,-0.0278,0.2235
12430,Right,2,0.1521,-0.1640,-0.9089,-0.3520,0.0153,0.0024,0.0067,0.0095,0.1162,-0.0937,-3.7451,1.7681,8.7932,0.0002,0.0000,0.0001,1.0000,-0.0936,0.0442,0.2198
12430,Pelvis,2,-0.5432,0.4272,-0.5683,-0.4467,-0.1269,-0.0074,-0.0013,0.0673,0.0293,-0.0618,9.7415,-0.0745,0.4261,-0.0016,-0.0001,-0.0000,1.0000,0.2435,-0.0019,0.0107
12431,Left,2,0.2078,0.0184,-0.9601,-0.1862,0.0128,0.0025,0.0012,0.0060,0.0373,-0.0508,-3.8196,-1.1377,8.9113,0.0002,0.0000,0.0000,1.0000,-0.0955,-0.0285,0.2228
12431,Right,2,0.1519,-0.1641,-0.9089,-0.3520,0.0196,0.0017,0.0054,0.0096,0.1276,-0.0992,-3.7357,1.7626,8.7924,0.0002,0.0000,0.0001,1.0000,-0.0934,0.0440,0.2198
12431,Pelvis,2,-0.5423,0.4283,-0.5675,-0.4476,-0.1458,-0.0080,0.0043,0.0621,0.0514,-0.0336,9.7708,-0.0762,0.4042,-0.0018,-0.0001,0.0001,1.0000,0.2443,-0.0019,0.0101
12432,Left,2,0.2076,0.0182,-0.9601,-0.1863,0.0146,-0.0012,0.0019,-0.0091,0.0104,-0.0365,-3.8201,-1.1050,8.9308,0.0002,-0.0000,0.0000,1.0000,-0.0955,-0.0277,0.2233
12432,Right,2,0.1518,-0.1644,-0.9088,-0.3520,0.0233,0.0060,0.0078,0.0054,0.1288,-0.1119,-3.7266,1.7675,8.7813,0.0003,0.0001,0.0001,1.0000,-0.0932,0.0441,0.2196
12432,Pelvis,2,-0.5415,0.4295,-0.5666,-0.4487,-0.1580,-0.0063,0.0056,0.0315,0.0566,0.0143,9.8193,-0.0492,0.3919,-0.0020,-0.0001,0.0001,1.0000,0.2455,-0.0012,0.0098
12433,Left,2,0.2076,0.0182,-0.9602,-0.1861,0.0134,0.0013,0.0019,-0.0069,0.0174,-0.0353,-3.8201,-1.1115,8.9313,0.0002,0.0000,0.0000,1.0000,-0.0955,-0.0278,0.2233
12433,Right,2,0.1520,-0.1646,-0.9089,-0.3518,0.0239,0.0127,0.0071,0.0070,0.1122,-0.0937,-3.7476,1.7837,8.7890,0.0003,0.0002,0.0001,1.0000,-0.0937,0.0445,0.2198
12433,Pelvis,2,-0.5405,0.4307,-0.5657,-0.4497,-0.1696,0.0016,0.0099,0.0417,-0.0302,0.0482,9.8493,-0.0428,0.4788,-0.0021,0.0000,0.0001,1.0000,0.2462,-0.0010,0.0120
12434,Left,2,0.2076,0.0179,-0.9601,-0.1863,0.0140,0.0007,0.0025,-0.0041,0.0272,-0.0342,-3.8203,-1.1180,8.9317,0.0002,0.0000,0.0000,1.0000,-0.0955,-0.0280,0.2233
12434,Right,2,0.1522,-0.1649,-0.9088,-0.3518,0.0251,0.0121,0.0065,0.0133,0.1073,-0.0682,-3.7695,1.7906,8.8063,0.0003,0.0002,0.0001,1.0000,-0.0942,0.0447,0.2202
12434,Pelvis,2,-0.5395,0.4321,-0.5648,-0.4509,-0.1824,-0.0076,0.0154,0.0645,-0.1182,-0.0154,9.7817,-0.0492,0.5663,-0.0023,-0.0001,0.0002,1.0000,0.2445,-0.0012,0.0142
12435,Left,2,0.2077,0.0178,-0.9601,-0.1863,0.0159,-0.0018,0.0037,0.0069,0.0098,-0.0277,-3.8399,-1.1047,8.9320,0.0002,-0.0000,0.0000,1.0000,-0.0960,-0.0277,0.2233
12435,Right,2,0.1523,-0.1651,-0.9087,-0.3519,0.0209,0.0109,0.0053,0.0268,0.1125,-0.0890,-3.7721,1.7761,8.7852,0.0003,0.0001,0.0001,1.0000,-0.0943,0.0443,0.2197
12435,Pelvis,2,-0.5384,0.4337,-0.5637,-0.4520,-0.1908,-0.0217,0.0221,0.0495,-0.1744,-0.0911,9.7040,-0.0284,0.6124,-0.0024,-0.0003,0.0003,1.0000,0.2426,-0.0006,0.0154
12436,Left,2,0.2076,0.0177,-0.9602,-0.1862,0.0214,-0.0103,0.0044,-0.0009,0.0208,-0.0304,-3.8288,-1.1099,8.9332,0.0003,-0.0001,0.0001,1.0000,-0.0957,-0.0278,0.2233
12436,Right,2,0.1525,-0.1652,-0.9086,-0.3520,0.0202,0.0066,0.0072,0.0327,0.1202,-0.0690,-3.7837,1.7722,8.8033,0.0003,0.0001,0.0001,1.0000,-0.0946,0.0442,0.2201
12436,Pelvis,2,-0.5374,0.4354,-0.5625,-0.4531,-0.1969,-0.0365,0.0294,0.0495,-0.1551,-0.1311,9.6651,-0.0376,0.5860,-0.0025,-0.0005,0.0004,1.0000,0.2416,-0.0008,0.0148
12437,Left,2,0.2073,0.0176,-0.9603,-0.1860,0.0232,-0.0158,0.0038,-0.0159,0.0158,-0.0480,-3.8065,-1.0947,8.9253,0.0003,-0.0002,0.0000,1.0000,-0.0952,-0.0274,0.2231
12437,Right,2,0.1525,-0.1653,-0.9087,-0.3518,0.0196,0.0042,0.0085,0.0173,0.1299,-0.0768,-3.7650,1.7770,8.8019,0.0002,0.0001,0.0001,1.0000,-0.0941,0.0444,0.2201
12437,Pelvis,2,-0.5363,0.4370,-0.5614,-0.4541,-0.1926,-0.0261,0.0325,0.0452,-0.0476,-0.0094,9.7916,-0.0645,0.4789,-0.0024,-0.0003,0.0004,1.0000,0.2448,-0.0015,0.0121
12438,Left,2,0.2071,0.0174,-0.9603,-0.1860,0.0208,-0.0146,0.0038,-0.0021,-0.0038,-0.0200,-3.8327,-1.0796,8.9466,0.0003,-0.0002,0.0000,1.0000,-0.0959,-0.0271,0.2236
12438,Right,2,0.1526,-0.1655,-0.9087,-0.3516,0.0220,0.0042,0.0103,0.0296,0.1257,-0.0832,-3.7755,1.7726,8.7911,0.0003,0.0001,0.0001,1.0000,-0.0944,0.0442,0.2198
12438,Pelvis,2,-0.5354,0.4383,-0.5605,-0.4550,-0.1585,-0.0143,0.0300,0.1214,0.0678,0.1037,9.9086,-0.1688,0.3820,-0.0020,-0.0002,0.0004,1.0000,0.2477,-0.0041,0.0096
12439,Left,2,0.2069,0.0173,-0.9604,-0.1860,0.0147,-0.0067,0.0007,-0.0532,-0.0082,-0.0108,-3.7915,-1.0553,8.9773,0.0002,-0.0001,0.0000,1.0000,-0.0948,-0.0264,0.2244
12439,Right,2,0.1526,-0.1657,-0.9087,-0.3515,0.0220,0.0043,0.0127,0.0197,0.1176,-0.0816,-3.7757,1.7883,8.7894,0.0003,0.0001,0.0002,1.0000,-0.0944,0.0446,0.2198
12439,Pelvis,2,-0.5347,0.4390,-0.5600,-0.4558,-0.1037,0.0061,0.0220,0.1520,0.1295,0.1599,9.9668,-0.2138,0.3298,-0.0013,0.0001,0.0003,1.0000,0.2492,-0.0053,0.0082
12440,Left,2,0.2069,0.0173,-0.9604,-0.1860,0.0073,-0.0024,-0.0018,-0.0246,-0.0108,0.0018,-3.8197,-1.0628,8.9781,0.0001,-0.0000,-0.0000,1.0000,-0.0955,-0.0266,0.2244
12440,Right,2,0.1526,-0.1658,-0.9087,-0.3513,0.0226,0.0031,0.0158,0.0102,0.1091,-0.0801,-3.7757,1.8043,8.7878,0.0003,0.0000,0.0002,1.0000,-0.0944,0.0450,0.2197
12440,Pelvis,2,-0.5341,0.4390,-0.5601,-0.4564,-0.0403,0.0387,0.0173,0.0885,0.1266,0.1391,9.9465,-0.1508,0.3275,-0.0005,0.0005,0.0002,1.0000,0.2487,-0.0037,0.0081
12441,Left,2,0.2069,0.0173,-0.9604,-0.1860,0.0024,0.0024,-0.0031,-0.0224,0.0100,-0.0086,-3.8097,-1.0815,8.9687,0.0000,0.0000,-0.0000,1.0000,-0.0952,-0.0270,0.2242
12441,Right,2,0.1527,-0.1660,-0.9088,-0.3510,0.0227,0.0080,0.0182,0.0206,0.1214,-0.0831,-3.7765,1.7913,8.7868,0.0003,0.0001,0.0002,1.0000,-0.0944,0.0447,0.2197
12441,Pelvis,2,-0.5338,0.4385,-0.5604,-0.4568,0.0103,0.0566,0.0118,0.0506,0.1027,0.0612,9.8678,-0.1064,0.3513,0.0001,0.0007,0.0001,1.0000,0.2467,-0.0026,0.0086
12442,Left,2,0.2067,0.0173,-0.9604,-0.1860,0.0043,-0.0006,-0.0043,-0.0205,0.0122,-0.0302,-3.8000,-1.0813,8.9492,0.0001,-0.0000,-0.0001,1.0000,-0.0950,-0.0270,0.2237
12442,Right,2,0.1528,-0.1661,-0.9089,-0.3507,0.0172,0.0068,0.0151,0.0026,0.1172,-0.1070,-3.7577,1.8061,8.7654,0.0002,0.0001,0.0002,1.0000,-0.0939,0.0451,0.2192
12442,Pelvis,2,-0.5337,0.4379,-0.5611,-0.4568,0.0518,0.0542,0.0146,-0.0136,0.0937,-0.0373,9.7692,-0.0413,0.3581,0.0006,0.0007,0.0002,1.0000,0.2442,-0.0010,0.0088
12443,Left,2,0.2067,0.0172,-0.9604,-0.1862,0.0043,-0.0006,-0.0043,-0.0335,0.0290,-0.0366,-3.7802,-1.0904,8.9496,0.0001,-0.0000,-0.0001,1.0000,-0.0945,-0.0273,0.2237
12443,Right,2,0.1528,-0.1662,-0.9088,-0.3507,0.0098,0.0049,0.0078,-0.0232,0.1165,-0.0902,-3.7483,1.8300,8.7831,0.0001,0.0001,0.0001,1.0000,-0.0937,0.0457,0.2196
12443,Pelvis,2,-0.5338,0.4371,-0.5618,-0.4566,0.0744,0.0457,0.0157,-0.0278,0.0460,-0.1036,9.7005,-0.0165,0.4108,0.0009,0.0006,0.0002,1.0000,0.2425,-0.0004,0.0101
12444,Left,2,0.2068,0.0173,-0.9604,-0.1860,0.0067,0.0012,-0.0012,-0.0279,0.0255,-0.0544,-3.7801,-1.0897,8.9302,0.0001,0.0000,-0.0000,1.0000,-0.0945,-0.0273,0.2233
12444,Right,2,0.1530,-0.1662,-0.9089,-0.3507,0.0074,0.0049,0.0036,0.0175,0.1353,-0.1116,-3.7599,1.7832,8.7643,0.0001,0.0001,0.0000,1.0000,-0.0940,0.0446,0.2191
12444,Pelvis,2,-0.5339,0.4362,-0.5625,-0.4562,0.0891,0.0434,0.0089,-0.0235,0.0779,-0.0954,9.7096,-0.0276,0.3920,0.0011,0.0005,0.0001,1.0000,0.2427,-0.0007,0.0097
12445,Left,2,0.2068,0.0174,-0.9604,-0.1859,0.0043,0.0031,-0.0018,-0.0183,0.0048,-0.0175,-3.8100,-1.0787,8.9592,0.0001,0.0000,-0.0000,1.0000,-0.0952,-0.0270,0.2240
12445,Right,2,0.1531,-0.1661,-0.9089,-0.3505,0.0092,0.0049,0.0042,0.0245,0.1420,-0.0916,-3.7707,1.7765,8.7833,0.0001,0.0001,0.0001,1.0000,-0.0943,0.0444,0.2196
12445,Pelvis,2,-0.5342,0.4353,-0.5632,-0.4560,0.0927,0.0508,0.0016,-0.0877,0.0658,0.0017,9.8065,0.0408,0.4047,0.0012,0.0006,0.0000,1.0000,0.2452,0.0010,0.0100
12446,Left,2,0.2068,0.0175,-0.9604,-0.1859,0.0030,0.0043,-0.0019,-0.0154,0.0242,-0.0278,-3.8008,-1.0976,8.9495,0.0000,0.0001,-0.0000,1.0000,-0.0950,-0.0274,0.2237
12446,Right,2,0.1531,-0.1662,-0.9088,-0.3507,0.0092,0.0048,0.0011,-0.0161,0.1379,-0.0987,-3.7418,1.8075,8.7815,0.0001,0.0001,0.0000,1.0000,-0.0935,0.0452,0.2195
12446,Pelvis,2,-0.5344,0.4342,-0.5641,-0.4558,0.0939,0.0539,0.0029,-0.1057,-0.0148,0.0350,9.8354,0.0787,0.4963,0.0012,0.0007,0.0000,1.0000,0.2459,0.0020,0.0122
12447,Left,2,0.2067,0.0175,-0.9605,-0.1858,0.0018,0.0061,-0.0025,-0.0116,0.0232,-0.0278,-3.8019,-1.0973,8.9491,0.0000,0.0001,-0.0000,1.0000,-0.0950,-0.0274,0.2237
12447,Right,2,0.1532,-0.1662,-0.9089,-0.3504,0.0086,0.0091,0.0005,0.0174,0.1322,-0.0900,-3.7729,1.7905,8.7811,0.0001,0.0001,0.0000,1.0000,-0.0943,0.0447,0.2195
12447,Pelvis,2,-0.5345,0.4332,-0.5648,-0.4556,0.0878,0.0667,0.0024,-0.0614,-0.0173,0.0358,9.8348,0.0399,0.5200,0.0011,0.0008,0.0000,1.0000,0.2459,0.0010,0.0128
12448,Left,2,0.2066,0.0176,-0.9605,-0.1856,-0.0000,0.0085,-0.0031,-0.0095,0.0215,-0.0278,-3.8035,-1.0973,8.9484,-0.0000,0.0001,-0.0000,1.0000,-0.0951,-0.0274,0.2237
12448,Right,2,0.1533,-0.1662,-0.9090,-0.3501,0.0111,0.0097,0.0004,0.0207,0.1151,-0.0718,-3.7943,1.8032,8.7892,0.0001,0.0001,0.0000,1.0000,-0.0948,0.0450,0.2197
12448,Pelvis,2,-0.5346,0.4323,-0.5657,-0.4554,0.0847,0.0642,0.0018,0.0058,-0.0030,0.0361,9.8342,-0.0278,0.5348,0.0011,0.0008,0.0000,1.0000,0.2459,-0.0007,0.0132
12449,Left,2,0.2067,0.0176,-0.9605,-0.1857,-0.0013,0.0122,-0.0019,-0.0292,0.0286,-0.0265,-3.7862,-1.0975,8.9572,-0.0000,0.0002,-0.0000,1.0000,-0.0946,-0.0274,0.2239
12449,Right,2,0.1535,-0.1663,-0.9090,-0.3500,0.0080,0.0091,-0.0002,0.0193,0.1520,-0.0881,-3.7676,1.7755,8.7889,0.0001,0.0001,-0.0000,1.0000,-0.0942,0.0444,0.2197
12449,Pelvis,2,-0.5347,0.4313,-0.5664,-0.4552,0.0835,0.0606,0.0005,0.0332,0.0205,-0.0135,9.7847,-0.0562,0.5301,0.0010,0.0008,0.0000,1.0000,0.2446,-0.0014,0.0131
12450,Left,2,0.2067,0.0176,-0.9605,-0.1855,-0.0000,0.0116,-0.0019,-0.0041,0.0077,-0.0163,-3.8182,-1.0882,8.9558,-0.0000,0.0001,-0.0000,1.0000,-0.0954,-0.0272,0.2239
12450,Right,2,0.1536,-0.1662,-0.9091,-0.3497,0.0043,0.0067,-0.0013,0.0167,0.1286,-0.0684,-3.7885,1.7970,8.7970,0.0001,0.0001,-0.0000,1.0000,-0.0947,0.0449,0.2199
12450,Pelvis,2,-0.5349,0.4305,-0.5671,-0.4550,0.0811,0.0472,-0.0039,0.0596,0.0029,-0.0416,9.7547,-0.0746,0.5626,0.0010,0.0006,-0.0000,1.0000,0.2439,-0.0019,0.0139
12451,Left,2,0.2069,0.0177,-0.9604,-0.1856,-0.0019,0.0110,-0.0025,0.0098,0.0130,-0.0202,-3.8303,-1.0986,8.9451,-0.0000,0.0001,-0.0000,1.0000,-0.0957,-0.0275,0.2236
12451,Right,2,0.1538,-0.1661,-0.9091,-0.3498,0.0049,0.0042,-0.0013,0.0177,0.1289,-0.1002,-3.7802,1.7870,8.7673,0.0001,0.0001,-0.0000,1.0000,-0.0945,0.0447,0.2192
12451,Pelvis,2,-0.5351,0.4297,-0.5677,-0.4547,0.0726,0.0325,-0.0040,0.0008,-0.0421,-0.0794,9.7147,-0.0046,0.6024,0.0009,0.0004,-0.0000,1.0000,0.2429,-0.0001,0.0150
12452,Left,2,0.2070,0.0177,-0.9604,-0.1857,0.0018,0.0055,-0.0025,0.0037,0.0250,-0.0228,-3.8223,-1.1086,8.9445,0.0000,0.0001,-0.0000,1.0000,-0.0955,-0.0277,0.2236
12452,Right,2,0.1539,-0.1661,-0.9090,-0.3499,0.0055,0.0030,0.0006,0.0352,0.1449,-0.0602,-3.8009,1.7703,8.8064,0.0001,0.0000,0.0000,1.0000,-0.0950,0.0442,0.2202
12452,Pelvis,2,-0.5353,0.4292,-0.5681,-0.4545,0.0555,0.0191,-0.0041,-0.0350,-0.0604,-0.0791,9.7141,0.0363,0.6188,0.0007,0.0002,-0.0001,1.0000,0.2429,0.0009,0.0154
12453,Left,2,0.2069,0.0176,-0.9604,-0.1857,0.0049,0.0018,-0.0018,0.0066,0.0147,-0.0329,-3.8230,-1.0984,8.9343,0.0001,0.0000,-0.0000,1.0000,-0.0956,-0.0275,0.2234
12453,Right,2,0.1539,-0.1661,-0.9091,-0.3497,0.0092,0.0030,0.0030,0.0381,0.1359,-0.0778,-3.8015,1.7714,8.7863,0.0001,0.0000,0.0000,1.0000,-0.0950,0.0443,0.2197
12453,Pelvis,2,-0.5355,0.4289,-0.5682,-0.4544,0.0336,0.0092,-0.0017,0.0054,-0.0597,-0.0296,9.7628,-0.0013,0.6319,0.0004,0.0001,-0.0000,1.0000,0.2441,-0.0000,0.0158
12454,Left,2,0.2069,0.0176,-0.9604,-0.1857,0.0055,0.0031,-0.0025,-0.0069,0.0390,-0.0292,-3.8039,-1.1167,8.9443,0.0001,0.0000,-0.0000,1.0000,-0.0951,-0.0279,0.2236
12454,Right,2,0.1540,-0.1662,-0.9091,-0.3497,0.0110,0.0036,0.0036,0.0108,0.1286,-0.0914,-3.7822,1.7927,8.7751,0.0001,0.0000,0.0000,1.0000,-0.0945,0.0448,0.2194
12454,Pelvis,2,-0.5356,0.4288,-0.5683,-0.4543,0.0140,0.0000,-0.0024,0.0369,-0.0211,-0.0115,9.7826,-0.0391,0.6035,0.0002,0.0000,-0.0000,1.0000,0.2446,-0.0010,0.0151
12455,Left,2,0.2068,0.0177,-0.9605,-0.1855,0.0061,0.0043,-0.0006,-0.0166,0.0313,-0.0342,-3.7950,-1.1057,8.9441,0.0001,0.0001,-0.0000,1.0000,-0.0949,-0.0277,0.2236
12455,Right,2,0.1540,-0.1662,-0.9091,-0.3495,0.0111,0.0067,0.0029,0.0131,0.1538,-0.0806,-3.7738,1.7764,8.7943,0.0001,0.0001,0.0000,1.0000,-0.0943,0.0444,0.2199
12455,Pelvis,2,-0.5356,0.4288,-0.5682,-0.4543,-0.0018,-0.0073,-0.0000,0.0183,-0.0254,-0.0116,9.7826,-0.0192,0.6028,-0.0000,-0.0001,-0.0000,1.0000,0.2446,-0.0005,0.0151
12456,Left,2,0.2070,0.0176,-0.9604,-0.1856,0.0067,0.0055,-0.0000,-0.0061,0.0142,-0.0278,-3.8157,-1.0947,8.9435,0.0001,0.0001,-0.0000,1.0000,-0.0954,-0.0274,0.2236
12456,Right,2,0.1541,-0.1663,-0.9090,-0.3499,0.0117,0.0054,0.0023,0.0185,0.1431,-0.0855,-3.7847,1.7790,8.7835,0.0001,0.0001,0.0000,1.0000,-0.0946,0.0444,0.2196
12456,Pelvis,2,-0.5357,0.4289,-0.5681,-0.4542,-0.0049,-0.0110,0.0018,0.0518,0.0027,-0.0125,9.7830,-0.0584,0.5807,-0.0001,-0.0001,0.0000,1.0000,0.2446,-0.0015,0.0146
12457,Left,2,0.2070,0.0176,-0.9604,-0.1857,0.0079,0.0031,-0.0000,-0.0061,0.0128,-0.0278,-3.8166,-1.0930,8.9433,0.0001,0.0000,-0.0000,1.0000,-0.0954,-0.0273,0.2236
12457,Right,2,0.1541,-0.1664,-0.9088,-0.3501,0.0111,0.0072,0.0017,0.0117,0.1533,-0.0591,-3.7860,1.7827,8.8116,0.0001,0.0001,0.0000,1.0000,-0.0946,0.0445,0.2203
12457,Pelvis,2,-0.5358,0.4291,-0.5680,-0.4541,-0.0006,-0.0165,0.0024,0.0768,-0.0214,-0.0010,9.7929,-0.0787,0.6065,-0.0000,-0.0002,0.0000,1.0000,0.2448,-0.0020,0.0152
12458,Left,2,0.2070,0.0177,-0.9604,-0.1855,0.0061,0.0006,-0.0012,-0.0091,0.0014,-0.0290,-3.8171,-1.0818,8.9432,0.0001,0.0000,-0.0000,1.0000,-0.0954,-0.0271,0.2236
12458,Right,2,0.1543,-0.1663,-0.9089,-0.3499,0.0092,0.0054,0.0023,0.0094,0.1290,-0.0928,-3.7871,1.7935,8.7712,0.0001,0.0001,0.0000,1.0000,-0.0947,0.0448,0.2193
12458,Pelvis,2,-0.5359,0.4291,-0.5680,-0.4539,0.0080,-0.0159,0.0061,0.0566,0.0231,-0.0135,9.7835,-0.0695,0.5538,0.0001,-0.0002,0.0001,1.0000,0.2446,-0.0017,0.0139
12459,Left,2,0.2068,0.0177,-0.9605,-0.1854,0.0067,-0.0006,-0.0012,-0.0072,-0.0002,-0.0290,-3.8171,-1.0805,8.9434,0.0001,-0.0000,-0.0000,1.0000,-0.0954,-0.0270,0.2236
12459,Right,2,0.1544,-0.1663,-0.9090,-0.3495,0.0104,0.0049,0.0042,0.0239,0.1421,-0.0742,-3.7983,1.7774,8.7905,0.0001,0.0001,0.0001,1.0000,-0.0949,0.0444,0.2198
12459,Pelvis,2,-0.5360,0.4290,-0.5682,-0.4536,0.0244,-0.0122,0.0104,0.0678,0.0593,0.0143,9.8132,-0.0905,0.5210,0.0003,-0.0002,0.0001,1.0000,0.2453,-0.0022,0.0131
12460,Left,2,0.2068,0.0177,-0.9605,-0.1854,0.0043,-0.0006,-0.0018,0.0035,0.0048,-0.0240,-3.8266,-1.0892,8.9437,0.0001,-0.0000,-0.0000,1.0000,-0.0957,-0.0272,0.2236
12460,Right,2,0.1545,-0.1663,-0.9090,-0.3495,0.0092,0.0025,0.0067,0.0245,0.1334,-0.0918,-3.7988,1.7793,8.7702,0.0001,0.0000,0.0001,1.0000,-0.0950,0.0444,0.2193
12460,Pelvis,2,-0.5363,0.4289,-0.5684,-0.4532,0.0409,-0.0122,0.0092,0.0565,0.0656,-0.0058,9.7938,-0.0827,0.5083,0.0005,-0.0002,0.0001,1.0000,0.2448,-0.0020,0.0127
12461,Left,2,0.2068,0.0178,-0.9605,-0.1854,0.0031,0.0012,-0.0037,-0.0255,0.0132,-0.0264,-3.7973,-1.0883,8.9537,0.0000,0.0000,-0.0000,1.0000,-0.0949,-0.0272,0.2238
12461,Right,2,0.1546,-0.1663,-0.9090,-0.3494,0.0086,0.0012,0.0061,0.0282,0.1472,-0.0541,-3.8089,1.7737,8.8090,0.0001,0.0000,0.0001,1.0000,-0.0952,0.0443,0.2202
12461,Pelvis,2,-0.5366,0.4287,-0.5685,-0.4528,0.0470,-0.0140,0.0061,0.0468,0.0226,-0.0038,9.7937,-0.0647,0.5444,0.0006,-0.0002,0.0001,1.0000,0.2448,-0.0016,0.0137
12462,Left,2,0.2068,0.0179,-0.9605,-0.1853,0.0024,0.0030,-0.0031,-0.0054,0.0166,-0.0393,-3.8073,-1.0981,8.9341,0.0000,0.0000,-0.0000,1.0000,-0.0952,-0.0275,0.2234
12462,Right,2,0.1546,-0.1662,-0.9091,-0.3493,0.0086,0.0007,0.0073,0.0165,0.1623,-0.0849,-3.7798,1.7652,8.7894,0.0001,0.0000,0.0001,1.0000,-0.0945,0.0441,0.2197
12462,Pelvis,2,-0.5370,0.4285,-0.5687,-0.4524,0.0440,-0.0164,0.0000,0.0217,-0.0447,-0.0203,9.7741,-0.0261,0.5995,0.0005,-0.0002,0.0000,1.0000,0.2444,-0.0007,0.0150
12463,Left,2,0.2068,0.0180,-0.9605,-0.1852,0.0055,0.0024,-0.0024,-0.0153,0.0364,-0.0228,-3.7980,-1.1167,8.9538,0.0001,0.0000,-0.0000,1.0000,-0.0949,-0.0279,0.2238
12463,Right,2,0.1546,-0.1662,-0.9091,-0.3492,0.0086,0.0006,0.0043,0.0233,0.1507,-0.0898,-3.7894,1.7675,8.7792,0.0001,0.0000,0.0001,1.0000,-0.0947,0.0442,0.2195
12463,Pelvis,2,-0.5373,0.4284,-0.5687,-0.4521,0.0294,-0.0274,-0.0043,0.0108,-0.0877,-0.0475,9.7450,-0.0058,0.6332,0.0004,-0.0003,-0.0001,1.0000,0.2436,-0.0002,0.0159
12464,Left,2,0.2069,0.0179,-0.9605,-0.1854,0.0055,0.0031,-0.0025,-0.0076,0.0141,-0.0393,-3.8084,-1.0965,8.9338,0.0001,0.0000,-0.0000,1.0000,-0.0952,-0.0274,0.2233
12464,Right,2,0.1546,-0.1662,-0.9091,-0.3494,0.0091,-0.0018,0.0049,0.0230,0.1513,-0.0682,-3.7988,1.7707,8.7984,0.0001,-0.0000,0.0001,1.0000,-0.0950,0.0442,0.2200
12464,Pelvis,2,-0.5376,0.4285,-0.5686,-0.4518,0.0098,-0.0342,-0.0043,-0.0077,-0.0605,-0.0394,9.7553,0.0055,0.5965,0.0001,-0.0004,-0.0001,1.0000,0.2439,0.0001,0.0150
12465,Left,2,0.2068,0.0181,-0.9605,-0.1851,0.0067,0.0006,-0.0012,-0.0064,0.0204,-0.0291,-3.8087,-1.1049,8.9438,0.0001,0.0000,-0.0000,1.0000,-0.0952,-0.0276,0.2236
12465,Right,2,0.1546,-0.1661,-0.9092,-0.3490,0.0073,-0.0012,0.0055,0.0189,0.1596,-0.0952,-3.7789,1.7622,8.7790,0.0001,-0.0000,0.0001,1.0000,-0.0945,0.0440,0.2195
12465,Pelvis,2,-0.5378,0.4287,-0.5683,-0.4517,-0.0042,-0.0360,-0.0037,0.0196,-0.0097,0.0075,9.8048,-0.0323,0.5487,-0.0001,-0.0005,-0.0000,1.0000,0.2451,-0.0008,0.0138
12466,Left,2,0.2069,0.0180,-0.9605,-0.1852,0.0067,0.0037,-0.0025,-0.0000,0.0066,-0.0355,-3.8190,-1.0941,8.9338,0.0001,0.0000,-0.0000,1.0000,-0.0955,-0.0274,0.2233
12466,Right,2,0.1548,-0.1661,-0.9091,-0.3492,0.0092,-0.0006,0.0043,-0.0014,0.1483,-0.0833,-3.7781,1.7843,8.7877,0.0001,-0.0000,0.0001,1.0000,-0.0945,0.0446,0.2197
12466,Pelvis,2,-0.5379,0.4289,-0.5681,-0.4516,-0.0121,-0.0305,-0.0043,0.0304,-0.0143,0.0373,9.8346,-0.0411,0.5503,-0.0002,-0.0004,-0.0001,1.0000,0.2459,-0.0010,0.0139
12467,Left,2,0.2069,0.0180,-0.9605,-0.1853,0.0037,0.0037,-0.0031,-0.0082,0.0191,-0.0291,-3.8099,-1.1027,8.9435,0.0000,0.0000,-0.0000,1.0000,-0.0952,-0.0276,0.2236
12467,Right,2,0.1548,-0.1662,-0.9091,-0.3493,0.0116,0.0006,0.0055,0.0037,0.1543,-0.0848,-3.7781,1.7773,8.7877,0.0001,0.0000,0.0001,1.0000,-0.0945,0.0444,0.2197
12467,Pelvis,2,-0.5380,0.4291,-0.5679,-0.4517,-0.0195,-0.0238,-0.0037,0.0627,-0.0254,0.0385,9.8351,-0.0697,0.5630,-0.0002,-0.0003,-0.0000,1.0000,0.2459,-0.0017,0.0141
12468,Left,2,0.2070,0.0180,-0.9605,-0.1854,0.0049,0.0018,-0.0031,-0.0043,0.0087,-0.0482,-3.8104,-1.0926,8.9237,0.0001,0.0000,-0.0000,1.0000,-0.0953,-0.0273,0.2231
12468,Right,2,0.1548,-0.1663,-0.9090,-0.3494,0.0116,0.0024,0.0036,0.0075,0.1726,-0.0917,-3.7689,1.7606,8.7877,0.0001,0.0000,0.0000,1.0000,-0.0942,0.0440,0.2197
12468,Pelvis,2,-0.5380,0.4293,-0.5676,-0.4518,-0.0213,-0.0196,-0.0043,0.0844,-0.0311,0.0099,9.8062,-0.0887,0.5674,-0.0003,-0.0002,-0.0001,1.0000,0.2452,-0.0022,0.0142
12469,Left,2,0.2071,0.0180,-0.9604,-0.1854,0.0073,0.0012,-0.0018,-0.0066,0.0133,-0.0164,-3.8205,-1.1008,8.9531,0.0001,0.0000,-0.0000,1.0000,-0.0955,-0.0275,0.2238
12469,Right,2,0.1550,-0.1662,-0.9090,-0.3494,0.0116,0.0024,0.0055,0.0151,0.1628,-0.0750,-3.7887,1.7643,8.7967,0.0001,0.0000,0.0001,1.0000,-0.0947,0.0441,0.2199
12469,Pelvis,2,-0.5380,0.4295,-0.5674,-0.4518,-0.0171,-0.0147,-0.0012,0.0925,0.0211,0.0073,9.8064,-0.1076,0.5142,-0.0002,-0.0002,-0.0000,1.0000,0.2452,-0.0027,0.0129
12470,Left,2,0.2070,0.0179,-0.9604,-0.1854,0.0061,0.0018,-0.0018,-0.0178,0.0075,-0.0214,-3.8111,-1.0897,8.9530,0.0001,0.0000,-0.0000,1.0000,-0.0953,-0.0273,0.2238
12470,Right,2,0.1550,-0.1663,-0.9090,-0.3494,0.0122,0.0018,0.0036,0.0087,0.1637,-0.0877,-3.7792,1.7668,8.7863,0.0002,0.0000,0.0000,1.0000,-0.0945,0.0441,0.2197
12470,Pelvis,2,-0.5379,0.4295,-0.5675,-0.4519,-0.0037,0.0043,0.0025,0.0971,0.0443,0.0161,9.8162,-0.1175,0.4933,-0.0000,0.0001,0.0000,1.0000,0.2454,-0.0029,0.0123
12471,Left,2,0.2070,0.0179,-0.9604,-0.1854,0.0055,0.0012,-0.0024,-0.0177,0.0158,-0.0113,-3.8114,-1.0982,8.9630,0.0001,0.0000,-0.0000,1.0000,-0.0953,-0.0275,0.2241
12471,Right,2,0.1550,-0.1663,-0.9090,-0.3492,0.0129,0.0037,0.0073,0.0180,0.1668,-0.0764,-3.7895,1.7609,8.7956,0.0002,0.0000,0.0001,1.0000,-0.0947,0.0440,0.2199
12471,Pelvis,2,-0.5378,0.4294,-0.5677,-0.4518,0.0097,0.0140,0.0043,0.0839,0.0531,0.0447,9.8454,-0.1083,0.4858,0.0001,0.0002,0.0001,1.0000,0.2461,-0.0027,0.0121
12472,Left,2,0.2071,0.0180,-0.9604,-0.1854,0.0031,0.0030,-0.0037,-0.0116,0.0144,-0.0291,-3.8117,-1.0978,8.9434,0.0000,0.0000,-0.0000,1.0000,-0.0953,-0.0274,0.2236
12472,Right,2,0.1551,-0.1663,-0.9091,-0.3491,0.0128,0.0018,0.0061,-0.0043,0.1659,-0.0915,-3.7701,1.7733,8.7846,0.0002,0.0000,0.0001,1.0000,-0.0943,0.0443,0.2196
12472,Pelvis,2,-0.5378,0.4292,-0.5678,-0.4518,0.0140,0.0141,0.0012,0.0495,0.0329,0.0158,9.8157,-0.0700,0.4993,0.0002,0.0002,0.0000,1.0000,0.2454,-0.0017,0.0124
12473,Left,2,0.2070,0.0181,-0.9605,-0.1852,0.0037,0.0037,-0.0031,-0.0104,0.0214,-0.0190,-3.8123,-1.1070,8.9531,0.0000,0.0000,-0.0000,1.0000,-0.0953,-0.0277,0.2238
12473,Right,2,0.1552,-0.1663,-0.9092,-0.3488,0.0116,0.0030,0.0060,0.0167,0.1549,-0.0940,-3.7901,1.7669,8.7745,0.0001,0.0000,0.0001,1.0000,-0.0947,0.0441,0.2194
12473,Pelvis,2,-0.5377,0.4291,-0.5681,-0.4517,0.0140,0.0116,0.0037,0.0144,0.0027,-0.0223,9.7764,-0.0316,0.5222,0.0002,0.0001,0.0000,1.0000,0.2444,-0.0008,0.0130
12474,Left,2,0.2071,0.0181,-0.9605,-0.1853,0.0061,0.0037,-0.0025,-0.0228,0.0177,-0.0456,-3.7935,-1.0966,8.9333,0.0001,0.0000,-0.0000,1.0000,-0.0948,-0.0274,0.2233
12474,Right,2,0.1552,-0.1664,-0.9091,-0.3489,0.0104,0.0019,0.0073,0.0024,0.1577,-0.0660,-3.7902,1.7808,8.8026,0.0001,0.0000,0.0001,1.0000,-0.0948,0.0445,0.2201
12474,Pelvis,2,-0.5378,0.4291,-0.5681,-0.4516,0.0073,0.0018,-0.0000,0.0317,-0.0279,-0.0694,9.7275,-0.0420,0.5532,0.0001,0.0000,-0.0000,1.0000,0.2432,-0.0011,0.0138
12475,Left,2,0.2070,0.0182,-0.9605,-0.1851,0.0079,0.0012,-0.0012,-0.0103,0.0208,-0.0406,-3.8037,-1.1050,8.9334,0.0001,0.0000,-0.0000,1.0000,-0.0951,-0.0276,0.2233
12475,Right,2,0.1552,-0.1663,-0.9093,-0.3486,0.0104,-0.0006,0.0049,0.0106,0.1545,-0.0851,-3.7902,1.7731,8.7830,0.0001,-0.0000,0.0001,1.0000,-0.0948,0.0443,0.2196
12475,Pelvis,2,-0.5378,0.4290,-0.5681,-0.4516,0.0031,-0.0006,-0.0012,0.0317,0.0150,-0.0325,9.7666,-0.0512,0.5142,0.0000,-0.0000,-0.0000,1.0000,0.2442,-0.0013,0.0129
12476,Left,2,0.2070,0.0182,-0.9605,-0.1850,0.0067,0.0031,-0.0018,-0.0173,0.0108,-0.0329,-3.8043,-1.0936,8.9429,0.0001,0.0000,-0.0000,1.0000,-0.0951,-0.0274,0.2236
12476,Right,2,0.1553,-0.1662,-0.9093,-0.3484,0.0098,0.0012,0.0049,0.0059,0.1690,-0.0816,-3.7805,1.7662,8.7927,0.0001,0.0000,0.0001,1.0000,-0.0945,0.0441,0.2198
12476,Pelvis,2,-0.5378,0.4289,-0.5682,-0.4516,0.0067,0.0049,-0.0012,0.0399,0.0216,0.0163,9.8154,-0.0604,0.5146,0.0001,0.0001,-0.0000,1.0000,0.2454,-0.0015,0.0129
12477,Left,2,0.2070,0.0181,-0.9605,-0.1849,0.0061,0.0024,-0.0031,-0.0213,0.0102,-0.0240,-3.8049,-1.0922,8.9526,0.0001,0.0000,-0.0000,1.0000,-0.0951,-0.0273,0.2238
12477,Right,2,0.1554,-0.1662,-0.9094,-0.3482,0.0129,0.0042,0.0054,0.0051,0.1635,-0.0904,-3.7809,1.7688,8.7822,0.0002,0.0001,0.0001,1.0000,-0.0945,0.0442,0.2196
12477,Pelvis,2,-0.5377,0.4287,-0.5684,-0.4517,0.0116,0.0195,0.0037,0.0307,0.0220,0.0748,9.8738,-0.0506,0.5176,0.0001,0.0002,0.0000,1.0000,0.2468,-0.0013,0.0129
12478,Left,2,0.2069,0.0182,-0.9606,-0.1848,0.0049,0.0037,-0.0006,-0.0092,0.0173,-0.0406,-3.8053,-1.1013,8.9331,0.0001,0.0000,-0.0000,1.0000,-0.0951,-0.0275,0.2233
12478,Right,2,0.1555,-0.1662,-0.9095,-0.3480,0.0129,0.0036,0.0048,0.0172,0.1497,-0.0825,-3.8011,1.7726,8.7812,0.0002,0.0000,0.0001,1.0000,-0.0950,0.0443,0.2195
12478,Pelvis,2,-0.5376,0.4285,-0.5687,-0.4516,0.0170,0.0269,0.0049,0.0585,0.0269,0.0359,9.8346,-0.0809,0.5233,0.0002,0.0003,0.0001,1.0000,0.2459,-0.0020,0.0130
12479,Left,2,0.2069,0.0182,-0.9606,-0.1847,0.0049,0.0055,-0.0019,-0.0080,0.0169,-0.0406,-3.8063,-1.1003,8.9328,0.0001,0.0001,-0.0000,1.0000,-0.0951,-0.0275,0.2233
12479,Right,2,0.1556,-0.1663,-0.9095,-0.3477,0.0129,0.0060,0.0035,0.0065,0.1578,-0.0776,-3.7922,1.7760,8.7899,0.0002,0.0001,0.0000,1.0000,-0.0948,0.0444,0.2198
12479,Pelvis,2,-0.5375,0.4283,-0.5690,-0.4516,0.0207,0.0238,0.0055,0.0615,0.0146,-0.0123,9.7854,-0.0822,0.5393,0.0003,0.0003,0.0001,1.0000,0.2446,-0.0020,0.0134
12480,Left,2,0.2070,0.0182,-0.9606,-0.1845,0.0049,0.0061,0.0018,-0.0044,0.0244,-0.0394,-3.8075,-1.1090,8.9326,0.0001,0.0001,0.0000,1.0000,-0.0952,-0.0277,0.2233
12480,Right,2,0.1557,-0.1663,-0.9096,-0.3475,0.0123,0.0048,0.0042,0.0095,0.1445,-0.1040,-3.7932,1.7779,8.7596,0.0002,0.0001,0.0001,1.0000,-0.0948,0.0444,0.2190
12480,Pelvis,2,-0.5374,0.4280,-0.5693,-0.4515,0.0176,0.0275,0.0037,0.0382,0.0278,-0.0330,9.7654,-0.0635,0.5261,0.0002,0.0003,0.0000,1.0000,0.2441,-0.0016,0.0131
12481,Left,2,0.2070,0.0182,-0.9606,-0.1844,0.0055,0.0055,-0.0000,0.0010,0.0206,-0.0267,-3.8187,-1.1077,8.9419,0.0001,0.0001,-0.0000,1.0000,-0.0955,-0.0277,0.2236
12481,Right,2,0.1558,-0.1663,-0.9097,-0.3473,0.0122,0.0036,0.0042,-0.0074,0.1583,-0.1030,-3.7744,1.7809,8.7684,0.0002,0.0000,0.0001,1.0000,-0.0944,0.0445,0.2192
12481,Pelvis,2,-0.5372,0.4278,-0.5697,-0.4515,0.0189,0.0299,0.0013,0.0546,0.0335,-0.0036,9.7944,-0.0833,0.5332,0.0002,0.0004,0.0000,1.0000,0.2449,-0.0021,0.0132
12482,Left,2,0.2069,0.0182,-0.9607,-0.1843,0.0030,0.0055,0.0006,-0.0170,0.0159,-0.0354,-3.8004,-1.0968,8.9414,0.0000,0.0001,0.0000,1.0000,-0.0950,-0.0274,0.2235
12482,Right,2,0.1557,-0.1664,-0.9096,-0.3473,0.0123,0.0079,0.0041,0.0111,0.1550,-0.0877,-3.7952,1.7751,8.7775,0.0002,0.0001,0.0001,1.0000,-0.0949,0.0443,0.2195
12482,Pelvis,2,-0.5371,0.4275,-0.5700,-0.4516,0.0140,0.0318,-0.0006,0.0179,0.0165,0.0162,9.8134,-0.0441,0.5506,0.0002,0.0004,-0.0000,1.0000,0.2453,-0.0011,0.0137
12483,Left,2,0.2068,0.0183,-0.9607,-0.1841,0.0030,0.0067,-0.0013,0.0072,-0.0014,-0.0470,-3.8213,-1.0869,8.9211,0.0000,0.0001,-0.0000,1.0000,-0.0955,-0.0272,0.2230
12483,Right,2,0.1558,-0.1664,-0.9098,-0.3469,0.0129,0.0073,0.0035,0.0085,0.1571,-0.0789,-3.7967,1.7787,8.7860,0.0002,0.0001,0.0000,1.0000,-0.0949,0.0444,0.2197
12483,Pelvis,2,-0.5369,0.4273,-0.5703,-0.4517,0.0061,0.0275,-0.0018,0.0021,-0.0079,-0.0023,9.7933,-0.0242,0.5774,0.0001,0.0003,-0.0000,1.0000,0.2448,-0.0006,0.0144
12484,Left,2,0.2069,0.0181,-0.9607,-0.1843,0.0061,0.0061,-0.0006,0.0093,0.0176,-0.0356,-3.8226,-1.1053,8.9307,0.0001,0.0001,-0.0000,1.0000,-0.0955,-0.0276,0.2233
12484,Right,2,0.1559,-0.1665,-0.9097,-0.3469,0.0129,0.0067,0.0041,0.0056,0.1690,-0.0842,-3.7886,1.7719,8.7852,0.0002,0.0001,0.0001,1.0000,-0.0947,0.0443,0.2196
12484,Pelvis,2,-0.5367,0.4272,-0.5705,-0.4517,0.0055,0.0232,-0.0024,0.0343,0.0193,-0.0129,9.7834,-0.0627,0.5640,0.0001,0.0003,-0.0000,1.0000,0.2446,-0.0016,0.0140
12485,Left,2,0.2070,0.0181,-0.9606,-0.1844,0.0061,0.0061,0.0012,-0.0151,0.0020,-0.0240,-3.8145,-1.0840,8.9495,0.0001,0.0001,0.0000,1.0000,-0.0953,-0.0271,0.2237
12485,Right,2,0.1560,-0.1666,-0.9096,-0.3472,0.0135,0.0054,0.0029,-0.0026,0.1694,-0.0969,-3.7799,1.7745,8.7743,0.0002,0.0001,0.0000,1.0000,-0.0945,0.0443,0.2194
12485,Pelvis,2,-0.5365,0.4270,-0.5707,-0.4518,0.0012,0.0226,-0.0024,0.0373,0.0001,-0.0118,9.7830,-0.0620,0.5891,0.0000,0.0003,-0.0000,1.0000,0.2446,-0.0016,0.0147
12486,Left,2,0.2072,0.0181,-0.9606,-0.1844,0.0067,0.0086,0.0012,-0.0164,0.0003,-0.0240,-3.8162,-1.0824,8.9490,0.0001,0.0001,0.0000,1.0000,-0.0954,-0.0271,0.2237
12486,Right,2,0.1561,-0.1667,-0.9095,-0.3474,0.0135,0.0060,0.0035,0.0063,0.1595,-0.0802,-3.8006,1.7786,8.7828,0.0002,0.0001,0.0000,1.0000,-0.0950,0.0444,0.2196
12486,Pelvis,2,-0.5364,0.4270,-0.5708,-0.4518,-0.0000,0.0201,-0.0030,0.0511,0.0210,-0.0225,9.7731,-0.0809,0.5748,-0.0000,0.0003,-0.0000,1.0000,0.2443,-0.0020,0.0143
12487,Left,2,0.2073,0.0182,-0.9606,-0.1843,0.0055,0.0061,-0.0000,0.0128,0.0081,-0.0318,-3.8371,-1.1011,8.9292,0.0001,0.0001,-0.0000,1.0000,-0.0959,-0.0275,0.2232
12487,Right,2,0.1562,-0.1667,-0.9094,-0.3477,0.0117,0.0060,0.0035,0.0097,0.1510,-0.0763,-3.8115,1.7819,8.7817,0.0001,0.0001,0.0000,1.0000,-0.0953,0.0445,0.2196
12487,Pelvis,2,-0.5364,0.4269,-0.5709,-0.4519,0.0036,0.0153,-0.0030,0.0691,0.0256,-0.0029,9.7924,-0.0996,0.5792,0.0000,0.0002,-0.0000,1.0000,0.2448,-0.0025,0.0144
12488,Left,2,0.2074,0.0181,-0.9605,-0.1845,0.0049,0.0073,-0.0007,0.0031,0.0204,-0.0254,-3.8288,-1.1094,8.9387,0.0001,0.0001,-0.0000,1.0000,-0.0957,-0.0277,0.2235
12488,Right,2,0.1562,-0.1668,-0.9092,-0.3479,0.0123,0.0061,0.0042,0.0075,0.1626,-0.0816,-3.8032,1.7749,8.7810,0.0002,0.0001,0.0001,1.0000,-0.0951,0.0443,0.2195
12488,Pelvis,2,-0.5363,0.4268,-0.5710,-0.4520,0.0012,0.0110,-0.0043,0.0343,-0.0016,-0.0118,9.7822,-0.0597,0.6019,0.0000,0.0001,-0.0001,1.0000,0.2446,-0.0015,0.0150
12489,Left,2,0.2074,0.0182,-0.9606,-0.1843,0.0055,0.0067,-0.0013,0.0040,0.0187,-0.0254,-3.8303,-1.1084,8.9381,0.0001,0.0001,-0.0000,1.0000,-0.0957,-0.0277,0.2235
12489,Right,2,0.1563,-0.1668,-0.9093,-0.3476,0.0135,0.0024,0.0042,0.0191,0.1613,-0.0790,-3.8139,1.7686,8.7805,0.0002,0.0000,0.0001,1.0000,-0.0953,0.0442,0.2195
12489,Pelvis,2,-0.5362,0.4268,-0.5711,-0.4520,-0.0018,0.0067,-0.0012,0.0450,-0.0106,-0.0405,9.7528,-0.0689,0.6137,-0.0000,0.0001,-0.0000,1.0000,0.2438,-0.0017,0.0153
12490,Left,2,0.2075,0.0182,-0.9605,-0.1843,0.0067,0.0031,-0.0000,0.0028,0.0167,-0.0254,-3.8314,-1.1071,8.9378,0.0001,0.0000,-0.0000,1.0000,-0.0958,-0.0277,0.2234
12490,Right,2,0.1563,-0.1668,-0.9093,-0.3477,0.0110,0.0025,0.0073,0.0025,0.1708,-0.0869,-3.7946,1.7714,8.7797,0.0001,0.0000,0.0001,1.0000,-0.0949,0.0442,0.2195
12490,Pelvis,2,-0.5361,0.4268,-0.5711,-0.4520,-0.0018,0.0012,-0.0031,0.0373,-0.0228,-0.0498,9.7429,-0.0587,0.6244,-0.0000,0.0000,-0.0000,1.0000,0.2436,-0.0015,0.0156
12491,Left,2,0.2074,0.0182,-0.9606,-0.1843,0.0067,0.0012,-0.0006,-0.0151,0.0010,-0.0227,-3.8224,-1.0858,8.9473,0.0001,0.0000,-0.0000,1.0000,-0.0956,-0.0272,0.2237
12491,Right,2,0.1564,-0.1668,-0.9094,-0.3475,0.0116,0.0012,0.0073,0.0025,0.1525,-0.0903,-3.8042,1.7841,8.7688,0.0001,0.0000,0.0001,1.0000,-0.0951,0.0446,0.2192
12491,Pelvis,2,-0.5361,0.4268,-0.5711,-0.4520,-0.0037,-0.0012,-0.0031,0.0427,-0.0097,-0.0307,9.7625,-0.0676,0.6147,-0.0000,-0.0000,-0.0000,1.0000,0.2441,-0.0017,0.0154
12492,Left,2,0.2074,0.0182,-0.9606,-0.1843,0.0067,0.0018,-0.0012,0.0161,0.0004,-0.0408,-3.8419,-1.0949,8.9181,0.0001,0.0000,-0.0000,1.0000,-0.0960,-0.0274,0.2230
12492,Right,2,0.1564,-0.1668,-0.9093,-0.3477,0.0116,0.0018,0.0067,0.0185,0.1746,-0.0857,-3.8050,1.7585,8.7792,0.0001,0.0000,0.0001,1.0000,-0.0951,0.0439,0.2195
12492,Pelvis,2,-0.5361,0.4269,-0.5710,-0.4519,-0.0036,-0.0067,-0.0025,0.0311,-0.0117,-0.0015,9.7918,-0.0571,0.6139,-0.0000,-0.0001,-0.0000,1.0000,0.2448,-0.0014,0.0154
12493,Left,2,0.2074,0.0181,-0.9606,-0.1843,0.0073,0.0031,-0.0024,-0.0106,0.0083,-0.0215,-3.8231,-1.0928,8.9475,0.0001,0.0000,-0.0000,1.0000,-0.0956,-0.0273,0.2237
12493,Right,2,0.1563,-0.1669,-0.9094,-0.3475,0.0122,0.0000,0.0067,0.0044,0.1725,-0.0882,-3.7949,1.7713,8.7782,0.0002,0.0000,0.0001,1.0000,-0.0949,0.0442,0.2195
12493,Pelvis,2,-0.5362,0.4270,-0.5710,-0.4519,-0.0049,-0.0092,-0.0025,0.0260,0.0068,-0.0124,9.7823,-0.0566,0.5924,-0.0001,-0.0001,-0.0000,1.0000,0.2446,-0.0014,0.0148
12494,Left,2,0.2073,0.0181,-0.9606,-0.1843,0.0073,0.0006,-0.0018,0.0011,0.0128,-0.0165,-3.8331,-1.1012,8.9476,0.0001,0.0000,-0.0000,1.0000,-0.0958,-0.0275,0.2237
12494,Right,2,0.1563,-0.1669,-0.9094,-0.3475,0.0116,-0.0006,0.0061,0.0090,0.1646,-0.0842,-3.8043,1.7748,8.7777,0.0001,-0.0000,0.0001,1.0000,-0.0951,0.0443,0.2194
12494,Pelvis,2,-0.5362,0.4271,-0.5709,-0.4519,-0.0049,-0.0098,-0.0012,0.0369,0.0001,-0.0117,9.7824,-0.0660,0.5998,-0.0001,-0.0001,-0.0000,1.0000,0.2446,-0.0017,0.0150
12495,Left,2,0.2072,0.0181,-0.9606,-0.1842,0.0067,0.0012,-0.0024,0.0015,0.0234,-0.0280,-3.8234,-1.1097,8.9382,0.0001,0.0000,-0.0000,1.0000,-0.0956,-0.0278,0.2235
12495,Right,2,0.1563,-0.1669,-0.9094,-0.3474,0.0116,0.0000,0.0073,0.0196,0.1672,-0.0728,-3.8140,1.7689,8.7874,0.0001,0.0000,0.0001,1.0000,-0.0954,0.0442,0.2197
12495,Pelvis,2,-0.5362,0.4272,-0.5709,-0.4518,-0.0012,-0.0104,0.0006,0.0273,-0.0108,-0.0015,9.7922,-0.0562,0.6071,-0.0000,-0.0001,0.0000,1.0000,0.2448,-0.0014,0.0152
12496,Left,2,0.2072,0.0181,-0.9606,-0.1842,0.0079,0.0006,-0.0012,-0.0219,0.0112,-0.0379,-3.8042,-1.0885,8.9381,0.0001,0.0000,-0.0000,1.0000,-0.0951,-0.0272,0.2235
12496,Right,2,0.1563,-0.1670,-0.9094,-0.3474,0.0134,-0.0012,0.0080,0.0015,0.1810,-0.0718,-3.7940,1.7723,8.7967,0.0002,-0.0000,0.0001,1.0000,-0.0949,0.0443,0.2199
12496,Pelvis,2,-0.5362,0.4273,-0.5709,-0.4518,0.0006,-0.0055,-0.0000,0.0161,-0.0119,0.0179,9.8119,-0.0464,0.6053,0.0000,-0.0001,-0.0000,1.0000,0.2453,-0.0012,0.0151
12497,Left,2,0.2073,0.0181,-0.9606,-0.1841,0.0067,0.0043,-0.0012,0.0045,0.0207,-0.0369,-3.8240,-1.1069,8.9285,0.0001,0.0001,-0.0000,1.0000,-0.0956,-0.0277,0.2232
12497,Right,2,0.1564,-0.1669,-0.9095,-0.3471,0.0122,0.0012,0.0055,0.0033,0.1546,-0.0929,-3.8031,1.7844,8.7664,0.0002,0.0000,0.0001,1.0000,-0.0951,0.0446,0.2192
12497,Pelvis,2,-0.5361,0.4272,-0.5709,-0.4518,0.0018,0.0043,0.0000,0.0055,-0.0129,0.0276,9.8216,-0.0366,0.6052,0.0000,0.0001,0.0000,1.0000,0.2455,-0.0009,0.0151
12498,Left,2,0.2072,0.0182,-0.9607,-0.1840,0.0049,0.0012,-0.0024,0.0141,0.0152,-0.0331,-3.8343,-1.1059,8.9284,0.0001,0.0000,-0.0000,1.0000,-0.0959,-0.0277,0.2232
12498,Right,2,0.1564,-0.1669,-0.9095,-0.3471,0.0141,0.0025,0.0079,0.0121,0.1734,-0.0780,-3.8038,1.7693,8.7860,0.0002,0.0000,0.0001,1.0000,-0.0951,0.0442,0.2197
12498,Pelvis,2,-0.5360,0.4272,-0.5710,-0.4519,0.0006,0.0098,-0.0012,0.0340,-0.0065,0.0083,9.8021,-0.0658,0.6068,0.0000,0.0001,-0.0000,1.0000,0.2451,-0.0016,0.0151
12499,Left,2,0.2072,0.0181,-0.9606,-0.1842,0.0067,0.0018,-0.0012,-0.0131,0.0042,-0.0342,-3.8153,-1.0848,8.9379,0.0001,0.0000,-0.0000,1.0000,-0.0954,-0.0271,0.2234
12499,Right,2,0.1563,-0.1671,-0.9095,-0.3472,0.0128,0.0025,0.0079,0.0171,0.1919,-0.0847,-3.7947,1.7533,8.7862,0.0002,0.0000,0.0001,1.0000,-0.0949,0.0438,0.2197
12499,Pelvis,2,-0.5360,0.4271,-0.5711,-0.4519,0.0043,0.0116,-0.0018,0.0185,0.0184,-0.0031,9.7923,-0.0557,0.5801,0.0001,0.0001,-0.0000,1.0000,0.2448,-0.0014,0.0145
12500,Left,2,0.2072,0.0180,-0.9606,-0.1842,0.0067,0.0012,-0.0012,0.0048,0.0179,-0.0369,-3.8251,-1.1033,8.9285,0.0001,0.0000,-0.0000,1.0000,-0.0956,-0.0276,0.2232
12500,Right,2,0.1564,-0.1671,-0.9094,-0.3472,0.0128,0.0012,0.0055,-0.0040,0.1658,-0.0893,-3.7940,1.7855,8.7743,0.0002,0.0000,0.0001,1.0000,-0.0949,0.0446,0.2194
12500,Pelvis,2,-0.5358,0.4269,-0.5712,-0.4520,0.0042,0.0147,-0.0018,0.0202,0.0100,-0.0123,9.7823,-0.0552,0.5930,0.0001,0.0002,-0.0000,1.0000,0.2446,-0.0014,0.0148
12501,Left,2,0.2073,0.0180,-0.9606,-0.1843,0.0049,0.0030,-0.0025,-0.0139,-0.0008,-0.0126,-3.8260,-1.0820,8.9573,0.0001,0.0000,-0.0000,1.0000,-0.0956,-0.0271,0.2239
12501,Right,2,0.1564,-0.1672,-0.9094,-0.3472,0.0147,0.0030,0.0067,0.0007,0.1708,-0.0907,-3.7945,1.7794,8.7739,0.0002,0.0000,0.0001,1.0000,-0.0949,0.0444,0.2194
12501,Pelvis,2,-0.5357,0.4269,-0.5714,-0.4521,-0.0007,0.0183,0.0000,-0.0006,0.0068,0.0070,9.8015,-0.0353,0.5972,-0.0000,0.0002,0.0000,1.0000,0.2450,-0.0009,0.0149
12502,Left,2,0.2073,0.0180,-0.9606,-0.1843,0.0055,0.0037,-0.0025,-0.0305,-0.0040,-0.0303,-3.8071,-1.0714,8.9473,0.0001,0.0000,-0.0000,1.0000,-0.0952,-0.0268,0.2237
12502,Right,2,0.1565,-0.1672,-0.9094,-0.3472,0.0147,0.0042,0.0060,0.0144,0.1842,-0.0718,-3.8053,1.7649,8.7934,0.0002,0.0001,0.0001,1.0000,-0.0951,0.0441,0.2198
12502,Pelvis,2,-0.5354,0.4268,-0.5716,-0.4522,-0.0019,0.0214,0.0000,0.0106,0.0421,0.0348,9.8307,-0.0547,0.5729,-0.0000,0.0003,0.0000,1.0000,0.2458,-0.0014,0.0143
12503,Left,2,0.2073,0.0179,-0.9606,-0.1844,0.0055,0.0037,-0.0025,-0.0114,0.0106,-0.0329,-3.8174,-1.0902,8.9377,0.0001,0.0000,-0.0000,1.0000,-0.0954,-0.0273,0.2234
12503,Right,2,0.1565,-0.1673,-0.9094,-0.3472,0.0129,0.0048,0.0048,0.0004,0.1653,-0.0779,-3.8055,1.7875,8.7816,0.0002,0.0001,0.0001,1.0000,-0.0951,0.0446,0.2196
12503,Pelvis,2,-0.5352,0.4267,-0.5717,-0.4524,-0.0031,0.0183,0.0012,-0.0057,0.0263,-0.0233,9.7717,-0.0357,0.5872,-0.0000,0.0002,0.0000,1.0000,0.2443,-0.0009,0.0146
12504,Left,2,0.2074,0.0180,-0.9606,-0.1844,0.0049,0.0037,-0.0018,-0.0126,0.0186,-0.0228,-3.8181,-1.0988,8.9475,0.0001,0.0000,-0.0000,1.0000,-0.0954,-0.0275,0.2237
12504,Right,2,0.1566,-0.1673,-0.9094,-0.3471,0.0135,0.0036,0.0066,0.0114,0.1769,-0.0806,-3.8067,1.7714,8.7816,0.0002,0.0000,0.0001,1.0000,-0.0952,0.0442,0.2196
12504,Pelvis,2,-0.5351,0.4267,-0.5718,-0.4524,-0.0037,0.0085,-0.0031,0.0122,0.0285,-0.0622,9.7325,-0.0552,0.5901,-0.0000,0.0001,-0.0000,1.0000,0.2433,-0.0014,0.0147
12505,Left,2,0.2074,0.0179,-0.9605,-0.1844,0.0061,0.0024,-0.0031,0.0004,0.0046,-0.0381,-3.8284,-1.0885,8.9275,0.0001,0.0000,-0.0000,1.0000,-0.0957,-0.0272,0.2232
12505,Right,2,0.1566,-0.1674,-0.9093,-0.3472,0.0110,-0.0000,0.0055,0.0098,0.1752,-0.0806,-3.8069,1.7747,8.7809,0.0001,-0.0000,0.0001,1.0000,-0.0952,0.0443,0.2195
12505,Pelvis,2,-0.5351,0.4267,-0.5718,-0.4524,-0.0024,0.0024,-0.0031,0.0442,0.0161,-0.0608,9.7324,-0.0838,0.6110,-0.0000,0.0000,-0.0000,1.0000,0.2433,-0.0021,0.0153
12506,Left,2,0.2074,0.0179,-0.9605,-0.1845,0.0079,0.0006,-0.0006,-0.0004,0.0130,-0.0279,-3.8287,-1.0967,8.9375,0.0001,0.0000,-0.0000,1.0000,-0.0957,-0.0274,0.2234
12506,Right,2,0.1565,-0.1674,-0.9093,-0.3472,0.0116,-0.0006,0.0061,0.0098,0.1824,-0.0947,-3.7970,1.7672,8.7712,0.0001,-0.0000,0.0001,1.0000,-0.0949,0.0441,0.2193
12506,Pelvis,2,-0.5351,0.4267,-0.5717,-0.4524,-0.0043,-0.0018,-0.0037,0.0008,0.0262,-0.0427,9.7519,-0.0439,0.5917,-0.0001,-0.0000,-0.0000,1.0000,0.2438,-0.0011,0.0148
12507,Left,2,0.2073,0.0179,-0.9606,-0.1844,0.0079,0.0012,-0.0024,-0.0046,0.0143,-0.0406,-3.8190,-1.0952,8.9280,0.0001,0.0000,-0.0000,1.0000,-0.0955,-0.0274,0.2232
12507,Right,2,0.1565,-0.1674,-0.9093,-0.3472,0.0097,-0.0012,0.0068,0.0059,0.1710,-0.0805,-3.8060,1.7807,8.7800,0.0001,-0.0000,0.0001,1.0000,-0.0952,0.0445,0.2195
12507,Pelvis,2,-0.5351,0.4268,-0.5717,-0.4524,-0.0079,-0.0092,-0.0037,0.0030,0.0096,-0.0027,9.7909,-0.0429,0.6102,-0.0001,-0.0001,-0.0000,1.0000,0.2448,-0.0011,0.0153
12508,Left,2,0.2073,0.0179,-0.9606,-0.1845,0.0067,0.0000,-0.0024,-0.0065,0.0010,-0.0203,-3.8291,-1.0837,8.9473,0.0001,0.0000,-0.0000,1.0000,-0.0957,-0.0271,0.2237
12508,Right,2,0.1564,-0.1675,-0.9093,-0.3474,0.0122,0.0000,0.0080,0.0075,0.1782,-0.0946,-3.7961,1.7733,8.7703,0.0002,0.0000,0.0001,1.0000,-0.0949,0.0443,0.2193
12508,Pelvis,2,-0.5351,0.4269,-0.5716,-0.4525,-0.0073,-0.0086,-0.0013,0.0191,0.0251,0.0262,9.8205,-0.0618,0.5984,-0.0001,-0.0001,-0.0000,1.0000,0.2455,-0.0015,0.0150
12509,Left,2,0.2073,0.0179,-0.9606,-0.1845,0.0061,0.0012,-0.0030,-0.0199,0.0156,-0.0265,-3.8096,-1.0921,8.9479,0.0001,0.0000,-0.0000,1.0000,-0.0952,-0.0273,0.2237
12509,Right,2,0.1564,-0.1675,-0.9093,-0.3473,0.0128,-0.0006,0.0068,0.0054,0.1759,-0.0945,-3.7957,1.7767,8.7698,0.0002,-0.0000,0.0001,1.0000,-0.0949,0.0444,0.2193
12509,Pelvis,2,-0.5351,0.4270,-0.5715,-0.4524,-0.0085,-0.0067,-0.0037,0.0348,-0.0032,-0.0013,9.7912,-0.0712,0.6256,-0.0001,-0.0001,-0.0000,1.0000,0.2448,-0.0018,0.0157
12510,Left,2,0.2072,0.0179,-0.9606,-0.1846,0.0073,0.0006,-0.0012,-0.0041,0.0196,-0.0304,-3.8193,-1.1009,8.9383,0.0001,0.0000,-0.0000,1.0000,-0.0955,-0.0275,0.2235
12510,Right,2,0.1563,-0.1675,-0.9093,-0.3475,0.0110,-0.0018,0.0062,0.0045,0.1738,-0.0945,-3.7951,1.7799,8.7694,0.0001,-0.0000,0.0001,1.0000,-0.0949,0.0445,0.2192
12510,Pelvis,2,-0.5352,0.4271,-0.5713,-0.4525,-0.0061,-0.0086,-0.0055,0.0094,-0.0207,-0.0303,9.7618,-0.0411,0.6333,-0.0001,-0.0001,-0.0001,1.0000,0.2440,-0.0010,0.0159
12511,Left,2,0.2072,0.0179,-0.9606,-0.1846,0.0079,0.0012,-0.0024,-0.0223,0.0030,-0.0278,-3.8100,-1.0795,8.9478,0.0001,0.0000,-0.0000,1.0000,-0.0952,-0.0270,0.2237
12511,Right,2,0.1563,-0.1675,-0.9092,-0.3476,0.0110,0.0018,0.0030,0.0098,0.1782,-0.0958,-3.7952,1.7730,8.7694,0.0001,0.0000,0.0000,1.0000,-0.0949,0.0443,0.2192
12511,Pelvis,2,-0.5351,0.4271,-0.5713,-0.4526,-0.0067,0.0024,-0.0061,0.0040,0.0006,0.0076,9.8011,-0.0395,0.6133,-0.0001,0.0000,-0.0001,1.0000,0.2450,-0.0010,0.0153
12512,Left,2,0.2071,0.0180,-0.9606,-0.1845,0.0055,0.0018,-0.0024,-0.0107,0.0061,-0.0228,-3.8199,-1.0881,8.9480,0.0001,0.0000,-0.0000,1.0000,-0.0955,-0.0272,0.2237
12512,Right,2,0.1562,-0.1675,-0.9092,-0.3476,0.0134,0.0000,0.0080,0.0062,0.1918,-0.0922,-3.7857,1.7667,8.7791,0.0002,0.0000,0.0001,1.0000,-0.0946,0.0441,0.2195
12512,Pelvis,2,-0.5351,0.4270,-0.5713,-0.4526,0.0018,0.0067,-0.0024,0.0640,-0.0039,0.0482,9.8402,-0.0970,0.6341,0.0000,0.0001,-0.0000,1.0000,0.2460,-0.0024,0.0158
12513,Left,2,0.2072,0.0181,-0.9606,-0.1844,0.0043,0.0031,-0.0012,-0.0185,-0.0053,-0.0151,-3.8206,-1.0772,8.9575,0.0001,0.0000,-0.0000,1.0000,-0.0955,-0.0269,0.2239
12513,Right,2,0.1562,-0.1675,-0.9092,-0.3476,0.0153,0.0006,0.0061,0.0155,0.1937,-0.0807,-3.7955,1.7615,8.7886,0.0002,0.0000,0.0001,1.0000,-0.0949,0.0440,0.2197
12513,Pelvis,2,-0.5351,0.4269,-0.5715,-0.4526,0.0097,0.0135,-0.0030,0.0090,-0.0283,0.0288,9.8202,-0.0377,0.6463,0.0001,0.0002,-0.0000,1.0000,0.2455,-0.0010,0.0161
12514,Left,2,0.2072,0.0181,-0.9606,-0.1845,0.0037,0.0030,-0.0025,0.0081,-0.0015,-0.0458,-3.8306,-1.0872,8.9184,0.0000,0.0000,-0.0000,1.0000,-0.0958,-0.0272,0.2230
12514,Right,2,0.1562,-0.1676,-0.9092,-0.3477,0.0147,0.0024,0.0055,0.0083,0.1812,-0.0882,-3.7952,1.7746,8.7776,0.0002,0.0000,0.0001,1.0000,-0.0949,0.0443,0.2195
12514,Pelvis,2,-0.5352,0.4267,-0.5716,-0.4525,0.0134,0.0165,-0.0036,0.0004,-0.0348,-0.0201,9.7711,-0.0272,0.6497,0.0002,0.0002,-0.0000,1.0000,0.2443,-0.0007,0.0162
12515,Left,2,0.2073,0.0181,-0.9606,-0.1845,0.0031,0.0036,-0.0037,-0.0004,-0.0025,-0.0279,-3.8314,-1.0863,8.9377,0.0000,0.0000,-0.0000,1.0000,-0.0958,-0.0272,0.2234
12515,Right,2,0.1563,-0.1676,-0.9092,-0.3477,0.0141,0.0030,0.0061,0.0033,0.1825,-0.0793,-3.7956,1.7788,8.7864,0.0002,0.0000,0.0001,1.0000,-0.0949,0.0444,0.2197
12515,Pelvis,2,-0.5350,0.4265,-0.5719,-0.4526,0.0152,0.0196,-0.0011,-0.0145,-0.0167,-0.0115,9.7806,-0.0166,0.6347,0.0002,0.0002,-0.0000,1.0000,0.2445,-0.0004,0.0158
12516,Left,2,0.2073,0.0181,-0.9605,-0.1847,0.0030,0.0030,-0.0019,-0.0011,0.0062,-0.0177,-3.8321,-1.0954,8.9474,0.0000,0.0000,-0.0000,1.0000,-0.0958,-0.0274,0.2237
12516,Right,2,0.1562,-0.1677,-0.9091,-0.3478,0.0153,0.0036,0.0066,0.0066,0.1912,-0.0718,-3.7963,1.7734,8.7957,0.0002,0.0000,0.0001,1.0000,-0.0949,0.0443,0.2199
12516,Pelvis,2,-0.5350,0.4263,-0.5721,-0.4525,0.0183,0.0208,0.0001,-0.0461,0.0276,0.0051,9.8001,0.0035,0.5910,0.0002,0.0003,0.0000,1.0000,0.2450,0.0001,0.0147
12517,Left,2,0.2073,0.0182,-0.9605,-0.1846,0.0037,0.0030,-0.0037,-0.0059,0.0082,-0.0304,-3.8228,-1.0951,8.9375,0.0000,0.0000,-0.0000,1.0000,-0.0956,-0.0274,0.2234
12517,Right,2,0.1564,-0.1677,-0.9092,-0.3476,0.0135,0.0048,0.0042,0.0189,0.1860,-0.0780,-3.8070,1.7671,8.7854,0.0002,0.0001,0.0001,1.0000,-0.0952,0.0441,0.2196
12517,Pelvis,2,-0.5349,0.4260,-0.5724,-0.4525,0.0201,0.0190,0.0013,-0.0559,0.0252,0.0050,9.7998,0.0134,0.5958,0.0003,0.0002,0.0000,1.0000,0.2450,0.0003,0.0148
12518,Left,2,0.2073,0.0182,-0.9605,-0.1847,0.0012,0.0036,-0.0037,-0.0002,0.0036,-0.0177,-3.8333,-1.0948,8.9470,0.0000,0.0000,-0.0000,1.0000,-0.0958,-0.0274,0.2237
12518,Right,2,0.1563,-0.1678,-0.9091,-0.3478,0.0135,0.0049,0.0060,0.0030,0.1738,-0.0664,-3.8073,1.7906,8.7931,0.0002,0.0001,0.0001,1.0000,-0.0952,0.0447,0.2198
12518,Pelvis,2,-0.5349,0.4258,-0.5726,-0.4525,0.0189,0.0184,0.0025,-0.0696,0.0417,-0.0059,9.7899,0.0229,0.5808,0.0002,0.0002,0.0000,1.0000,0.2448,0.0006,0.0145
12519,Left,2,0.2074,0.0183,-0.9605,-0.1847,0.0012,0.0054,-0.0043,-0.0132,0.0086,-0.0342,-3.8146,-1.0949,8.9370,0.0000,0.0001,-0.0001,1.0000,-0.0954,-0.0274,0.2234
12519,Right,2,0.1563,-0.1678,-0.9091,-0.3478,0.0116,0.0036,0.0048,0.0117,0.1837,-0.0907,-3.7988,1.7730,8.7737,0.0001,0.0000,0.0001,1.0000,-0.0950,0.0443,0.2194
12519,Pelvis,2,-0.5349,0.4256,-0.5728,-0.4523,0.0201,0.0098,0.0025,-0.0235,-0.0284,-0.0110,9.7793,-0.0067,0.6623,0.0003,0.0001,0.0000,1.0000,0.2445,-0.0002,0.0165
12520,Left,2,0.2074,0.0183,-0.9605,-0.1847,0.0036,0.0049,-0.0019,0.0060,0.0122,-0.0470,-3.8251,-1.1050,8.9172,0.0000,0.0001,-0.0000,1.0000,-0.0956,-0.0276,0.2229
12520,Right,2,0.1563,-0.1678,-0.9091,-0.3478,0.0104,0.0018,0.0036,0.0050,0.1834,-0.1034,-3.7894,1.7750,8.7632,0.0001,0.0000,0.0000,1.0000,-0.0947,0.0443,0.2191
12520,Pelvis,2,-0.5350,0.4256,-0.5729,-0.4522,0.0134,0.0013,0.0043,-0.0372,-0.0145,-0.0512,9.7403,0.0023,0.6437,0.0002,0.0000,0.0001,1.0000,0.2435,0.0001,0.0161
12521,Left,2,0.2074,0.0183,-0.9605,-0.1846,0.0055,-0.0006,-0.0024,0.0147,0.0079,-0.0433,-3.8353,-1.1043,8.9170,0.0001,-0.0000,-0.0000,1.0000,-0.0959,-0.0276,0.2229
12521,Right,2,0.1564,-0.1678,-0.9091,-0.3477,0.0110,0.0012,0.0043,0.0078,0.1788,-0.0906,-3.7993,1.7786,8.7723,0.0001,0.0000,0.0001,1.0000,-0.0950,0.0444,0.2193
12521,Pelvis,2,-0.5349,0.4257,-0.5729,-0.4521,-0.0025,-0.0037,0.0079,-0.0510,0.0018,-0.0719,9.7209,0.0105,0.6237,-0.0000,-0.0000,0.0001,1.0000,0.2430,0.0003,0.0156
12522,Left,2,0.2073,0.0183,-0.9605,-0.1847,0.0061,0.0012,-0.0024,-0.0046,0.0104,-0.0202,-3.8259,-1.1024,8.9465,0.0001,0.0000,-0.0000,1.0000,-0.0956,-0.0276,0.2237
12522,Right,2,0.1563,-0.1678,-0.9091,-0.3478,0.0098,0.0012,0.0037,0.0226,0.1866,-0.1020,-3.7999,1.7612,8.7631,0.0001,0.0000,0.0000,1.0000,-0.0950,0.0440,0.2191
12522,Pelvis,2,-0.5348,0.4259,-0.5729,-0.4522,-0.0159,-0.0031,0.0079,0.0171,0.0509,-0.0241,9.7705,-0.0695,0.5941,-0.0002,-0.0000,0.0001,1.0000,0.2443,-0.0017,0.0149
12523,Left,2,0.2073,0.0184,-0.9605,-0.1846,0.0061,0.0012,-0.0036,0.0005,-0.0004,-0.0393,-3.8259,-1.0920,8.9268,0.0001,0.0000,-0.0000,1.0000,-0.0956,-0.0273,0.2232
12523,Right,2,0.1563,-0.1678,-0.9091,-0.3477,0.0128,0.0012,0.0055,0.0093,0.1844,-0.0829,-3.7998,1.7749,8.7814,0.0002,0.0000,0.0001,1.0000,-0.0950,0.0443,0.2195
12523,Pelvis,2,-0.5347,0.4261,-0.5728,-0.4522,-0.0208,-0.0068,0.0060,0.0598,0.0323,0.0072,9.7997,-0.1103,0.6225,-0.0003,-0.0001,0.0001,1.0000,0.2450,-0.0027,0.0156
12524,Left,2,0.2072,0.0183,-0.9605,-0.1846,0.0061,0.0018,-0.0037,-0.0071,0.0024,-0.0431,-3.8164,-1.0909,8.9269,0.0001,0.0000,-0.0000,1.0000,-0.0954,-0.0273,0.2232
12524,Right,2,0.1563,-0.1678,-0.9092,-0.3476,0.0104,-0.0012,0.0049,0.0258,0.1938,-0.0728,-3.8099,1.7593,8.7917,0.0001,-0.0000,0.0001,1.0000,-0.0953,0.0439,0.2198
12524,Pelvis,2,-0.5346,0.4265,-0.5726,-0.4522,-0.0281,-0.0190,0.0035,0.0562,0.0011,-0.0010,9.7898,-0.1022,0.6484,-0.0004,-0.0002,0.0000,1.0000,0.2447,-0.0025,0.0163
12525,Left,2,0.2072,0.0183,-0.9605,-0.1847,0.0080,-0.0012,-0.0036,0.0093,0.0033,-0.0254,-3.8359,-1.0994,8.9369,0.0001,-0.0000,-0.0000,1.0000,-0.0959,-0.0275,0.2234
12525,Right,2,0.1562,-0.1678,-0.9091,-0.3477,0.0109,-0.0031,0.0044,0.0130,0.1867,-0.0842,-3.7991,1.7710,8.7812,0.0001,-0.0000,0.0001,1.0000,-0.0950,0.0442,0.2195
12525,Pelvis,2,-0.5344,0.4270,-0.5722,-0.4523,-0.0415,-0.0215,0.0029,0.0161,0.0404,-0.0333,9.7612,-0.0743,0.5943,-0.0005,-0.0003,0.0000,1.0000,0.2440,-0.0018,0.0149
12526,Left,2,0.2070,0.0182,-0.9606,-0.1847,0.0104,-0.0024,-0.0018,-0.0176,0.0041,-0.0379,-3.8062,-1.0876,8.9374,0.0001,-0.0000,-0.0000,1.0000,-0.0952,-0.0272,0.2234
12526,Right,2,0.1562,-0.1677,-0.9092,-0.3477,0.0115,-0.0043,0.0062,0.0298,0.1961,-0.0740,-3.8085,1.7553,8.7918,0.0001,-0.0001,0.0001,1.0000,-0.0952,0.0438,0.2198
12526,Pelvis,2,-0.5342,0.4274,-0.5719,-0.4526,-0.0549,-0.0068,0.0028,0.0446,0.0875,-0.0253,9.7716,-0.1146,0.5517,-0.0007,-0.0001,0.0000,1.0000,0.2443,-0.0028,0.0138
12527,Left,2,0.2070,0.0181,-0.9606,-0.1848,0.0092,-0.0012,0.0001,0.0030,0.0057,-0.0291,-3.8252,-1.0954,8.9379,0.0001,-0.0000,0.0000,1.0000,-0.0956,-0.0274,0.2234
12527,Right,2,0.1561,-0.1678,-0.9091,-0.3478,0.0146,-0.0019,0.0056,0.0171,0.1767,-0.0802,-3.8069,1.7777,8.7807,0.0002,-0.0000,0.0001,1.0000,-0.0952,0.0444,0.2195
12527,Pelvis,2,-0.5339,0.4278,-0.5716,-0.4530,-0.0525,0.0005,-0.0008,0.0890,0.1116,0.0429,9.8403,-0.1641,0.5415,-0.0007,0.0000,-0.0000,1.0000,0.2460,-0.0041,0.0135
12528,Left,2,0.2068,0.0180,-0.9606,-0.1848,0.0116,-0.0006,-0.0012,0.0012,-0.0045,-0.0304,-3.8251,-1.0834,8.9380,0.0001,-0.0000,-0.0000,1.0000,-0.0956,-0.0271,0.2234
12528,Right,2,0.1559,-0.1679,-0.9091,-0.3479,0.0164,-0.0019,0.0074,0.0166,0.1999,-0.0906,-3.7873,1.7616,8.7814,0.0002,-0.0000,0.0001,1.0000,-0.0947,0.0440,0.2195
12528,Pelvis,2,-0.5336,0.4281,-0.5714,-0.4533,-0.0415,0.0024,-0.0020,0.1205,0.1004,0.0735,9.8696,-0.1937,0.5613,-0.0005,0.0000,-0.0000,1.0000,0.2467,-0.0048,0.0140
12529,Left,2,0.2068,0.0180,-0.9606,-0.1848,0.0085,0.0025,-0.0006,-0.0079,0.0067,-0.0240,-3.8156,-1.0906,8.9483,0.0001,0.0000,-0.0000,1.0000,-0.0954,-0.0273,0.2237
12529,Right,2,0.1558,-0.1680,-0.9091,-0.3480,0.0146,0.0000,0.0092,0.0219,0.1788,-0.0814,-3.8059,1.7762,8.7801,0.0002,0.0000,0.0001,1.0000,-0.0952,0.0444,0.2195
12529,Pelvis,2,-0.5334,0.4283,-0.5712,-0.4536,-0.0348,0.0042,-0.0050,0.1500,0.0639,0.0076,9.8009,-0.2134,0.6002,-0.0004,0.0001,-0.0001,1.0000,0.2450,-0.0053,0.0150
12530,Left,2,0.2069,0.0180,-0.9606,-0.1848,0.0079,0.0031,-0.0000,-0.0014,0.0145,-0.0316,-3.8160,-1.0988,8.9387,0.0001,0.0000,-0.0000,1.0000,-0.0954,-0.0275,0.2235
12530,Right,2,0.1558,-0.1680,-0.9091,-0.3480,0.0122,-0.0012,0.0056,0.0124,0.1824,-0.0853,-3.7957,1.7795,8.7796,0.0002,-0.0000,0.0001,1.0000,-0.0949,0.0444,0.2195
12530,Pelvis,2,-0.5333,0.4285,-0.5711,-0.4538,-0.0275,-0.0007,-0.0032,0.1166,-0.0083,-0.0579,9.7319,-0.1647,0.6588,-0.0003,-0.0000,-0.0000,1.0000,0.2433,-0.0041,0.0165
12531,Left,2,0.2068,0.0180,-0.9606,-0.1848,0.0128,-0.0005,0.0007,-0.0063,0.0159,-0.0443,-3.8064,-1.0966,8.9292,0.0002,-0.0000,0.0000,1.0000,-0.0952,-0.0275,0.2232
12531,Right,2,0.1559,-0.1679,-0.9091,-0.3479,0.0134,0.0012,0.0067,0.0230,0.1807,-0.0826,-3.8055,1.7735,8.7796,0.0002,0.0000,0.0001,1.0000,-0.0951,0.0443,0.2195
12531,Pelvis,2,-0.5331,0.4287,-0.5709,-0.4540,-0.0366,0.0030,-0.0001,-0.0195,-0.1089,-0.0166,9.7696,-0.0089,0.7288,-0.0005,0.0000,-0.0000,1.0000,0.2442,-0.0002,0.0182
12532,Left,2,0.2068,0.0179,-0.9606,-0.1847,0.0141,-0.0042,0.0013,0.0214,0.0035,-0.0420,-3.8351,-1.0941,8.9198,0.0002,-0.0001,0.0000,1.0000,-0.0959,-0.0274,0.2230
12532,Right,2,0.1560,-0.1679,-0.9092,-0.3477,0.0165,0.0025,0.0091,0.0379,0.2022,-0.0776,-3.8065,1.7488,8.7902,0.0002,0.0000,0.0001,1.0000,-0.0952,0.0437,0.2198
12532,Pelvis,2,-0.5327,0.4292,-0.5705,-0.4544,-0.0659,-0.0020,0.0064,-0.0771,-0.1208,0.0121,9.7986,0.0481,0.7297,-0.0008,-0.0000,0.0001,1.0000,0.2450,0.0012,0.0182
12533,Left,2,0.2067,0.0179,-0.9607,-0.1846,0.0141,-0.0054,0.0026,0.0104,-0.0040,-0.0470,-3.8244,-1.0809,8.9204,0.0002,-0.0001,0.0000,1.0000,-0.0956,-0.0271,0.2230
12533,Right,2,0.1559,-0.1681,-0.9091,-0.3477,0.0214,0.0054,0.0090,0.0200,0.1972,-0.1018,-3.7871,1.7619,8.7690,0.0003,0.0001,0.0001,1.0000,-0.0947,0.0440,0.2192
12533,Pelvis,2,-0.5321,0.4300,-0.5701,-0.4550,-0.1002,0.0022,0.0130,-0.1098,-0.1075,0.0205,9.8084,0.0738,0.7106,-0.0013,0.0000,0.0002,1.0000,0.2452,0.0019,0.0178
12534,Left,2,0.2065,0.0178,-0.9607,-0.1845,0.0153,-0.0060,0.0044,-0.0225,0.0051,-0.0404,-3.7942,-1.0765,8.9412,0.0002,-0.0001,0.0001,1.0000,-0.0949,-0.0270,0.2235
12534,Right,2,0.1559,-0.1682,-0.9091,-0.3476,0.0227,0.0079,0.0108,0.0276,0.2027,-0.0814,-3.7982,1.7594,8.7874,0.0003,0.0001,0.0001,1.0000,-0.0949,0.0439,0.2197
12534,Pelvis,2,-0.5312,0.4309,-0.5696,-0.4557,-0.1234,0.0088,0.0227,-0.0981,-0.1145,0.0309,9.8181,0.0575,0.7219,-0.0015,0.0001,0.0003,1.0000,0.2455,0.0015,0.0180
12535,Left,2,0.2065,0.0176,-0.9608,-0.1844,0.0165,-0.0047,0.0038,-0.0062,-0.0026,-0.0329,-3.8126,-1.0727,8.9419,0.0002,-0.0001,0.0000,1.0000,-0.0953,-0.0269,0.2235
12535,Right,2,0.1560,-0.1684,-0.9091,-0.3476,0.0233,0.0090,0.0077,0.0092,0.1902,-0.0699,-3.7991,1.7854,8.7942,0.0003,0.0001,0.0001,1.0000,-0.0950,0.0446,0.2199
12535,Pelvis,2,-0.5303,0.4321,-0.5690,-0.4564,-0.1320,-0.0035,0.0293,-0.0302,-0.0982,0.0316,9.8183,-0.0195,0.7216,-0.0016,-0.0000,0.0004,1.0000,0.2455,-0.0004,0.0181
12536,Left,2,0.2064,0.0176,-0.9608,-0.1844,0.0128,-0.0042,0.0026,-0.0086,0.0081,-0.0443,-3.8017,-1.0791,8.9333,0.0002,-0.0001,0.0000,1.0000,-0.0951,-0.0270,0.2233
12536,Right,2,0.1561,-0.1685,-0.9091,-0.3474,0.0209,0.0097,0.0077,0.0238,0.1811,-0.0849,-3.8108,1.7803,8.7733,0.0003,0.0001,0.0001,1.0000,-0.0952,0.0444,0.2194
12536,Pelvis,2,-0.5295,0.4332,-0.5684,-0.4570,-0.1240,-0.0096,0.0311,-0.0070,-0.0646,-0.0088,9.7796,-0.0580,0.6897,-0.0016,-0.0001,0.0004,1.0000,0.2445,-0.0013,0.0173
12537,Left,2,0.2064,0.0176,-0.9608,-0.1844,0.0104,-0.0054,0.0001,-0.0209,0.0413,-0.0390,-3.7810,-1.1052,8.9449,0.0001,-0.0001,0.0000,1.0000,-0.0945,-0.0277,0.2236
12537,Right,2,0.1563,-0.1686,-0.9091,-0.3474,0.0197,0.0109,0.0077,0.0137,0.1846,-0.0888,-3.8030,1.7852,8.7715,0.0002,0.0001,0.0001,1.0000,-0.0950,0.0446,0.2193
12537,Pelvis,2,-0.5287,0.4341,-0.5680,-0.4576,-0.1100,-0.0004,0.0282,0.0257,0.0560,0.0248,9.8198,-0.1234,0.5799,-0.0014,-0.0000,0.0004,1.0000,0.2455,-0.0030,0.0145
12538,Left,2,0.2063,0.0176,-0.9608,-0.1844,0.0086,-0.0042,0.0001,-0.0211,-0.0034,-0.0277,-3.7999,-1.0639,8.9541,0.0001,-0.0001,0.0000,1.0000,-0.0950,-0.0266,0.2238
12538,Right,2,0.1564,-0.1688,-0.9090,-0.3474,0.0234,0.0158,0.0087,0.0099,0.1985,-0.0851,-3.7961,1.7813,8.7797,0.0003,0.0002,0.0001,1.0000,-0.0949,0.0445,0.2195
12538,Pelvis,2,-0.5280,0.4347,-0.5679,-0.4581,-0.0764,0.0289,0.0287,0.0991,0.1293,0.1301,9.9274,-0.2183,0.5330,-0.0010,0.0004,0.0004,1.0000,0.2482,-0.0054,0.0132
12539,Left,2,0.2063,0.0175,-0.9608,-0.1843,0.0055,0.0031,0.0024,-0.0313,-0.0223,-0.0213,-3.8001,-1.0424,8.9635,0.0001,0.0000,0.0000,1.0000,-0.0950,-0.0261,0.2241
12539,Right,2,0.1565,-0.1690,-0.9090,-0.3474,0.0210,0.0189,0.0086,-0.0145,0.1919,-0.0776,-3.7892,1.8068,8.7857,0.0003,0.0002,0.0001,1.0000,-0.0947,0.0451,0.2197
12539,Pelvis,2,-0.5274,0.4348,-0.5682,-0.4582,-0.0215,0.0405,0.0297,0.2139,0.1549,0.1116,9.9073,-0.3433,0.5381,-0.0003,0.0005,0.0004,1.0000,0.2477,-0.0085,0.0133
12540,Left,2,0.2063,0.0176,-0.9608,-0.1841,0.0055,0.0037,0.0006,-0.0141,0.0031,-0.0353,-3.8004,-1.0709,8.9446,0.0001,0.0000,0.0000,1.0000,-0.0950,-0.0268,0.2236
12540,Right,2,0.1567,-0.1691,-0.9090,-0.3472,0.0180,0.0170,0.0069,0.0136,0.1840,-0.0899,-3.8128,1.7917,8.7647,0.0002,0.0002,0.0001,1.0000,-0.0953,0.0447,0.2191
12540,Pelvis,2,-0.5272,0.4346,-0.5686,-0.4581,0.0176,0.0235,0.0230,0.2527,0.1254,-0.0425,9.7501,-0.3798,0.5729,0.0002,0.0003,0.0003,1.0000,0.2438,-0.0094,0.0142
12541,Left,2,0.2064,0.0176,-0.9608,-0.1841,0.0024,0.0067,0.0011,-0.0023,0.0077,-0.0303,-3.8113,-1.0798,8.9444,0.0000,0.0001,0.0000,1.0000,-0.0953,-0.0270,0.2236
12541,Right,2,0.1568,-0.1692,-0.9089,-0.3473,0.0149,0.0134,0.0063,0.0165,0.1665,-0.0719,-3.8351,1.8069,8.7715,0.0002,0.0002,0.0001,1.0000,-0.0958,0.0451,0.2193
12541,Pelvis,2,-0.5273,0.4341,-0.5691,-0.4579,0.0506,0.0303,0.0123,0.3229,0.1780,-0.1025,9.6913,-0.4607,0.5381,0.0006,0.0004,0.0002,1.0000,0.2423,-0.0115,0.0134
12542,Left,2,0.2064,0.0176,-0.9609,-0.1839,0.0036,0.0062,0.0036,0.0030,-0.0065,-0.0279,-3.8226,-1.0692,8.9435,0.0000,0.0001,0.0000,1.0000,-0.0955,-0.0267,0.2236
12542,Right,2,0.1570,-0.1693,-0.9090,-0.3471,0.0173,0.0116,0.0089,0.0206,0.1834,-0.0783,-3.8284,1.7914,8.7708,0.0002,0.0001,0.0001,1.0000,-0.0957,0.0447,0.2193
12542,Pelvis,2,-0.5275,0.4333,-0.5699,-0.4575,0.0922,0.0402,0.0041,0.3685,0.1998,-0.0929,9.7006,-0.5103,0.5366,0.0012,0.0005,0.0001,1.0000,0.2425,-0.0128,0.0133
12543,Left,2,0.2065,0.0176,-0.9609,-0.1839,0.0030,0.0049,0.0012,-0.0035,0.0238,-0.0099,-3.8141,-1.0969,8.9636,0.0000,0.0001,0.0000,1.0000,-0.0953,-0.0274,0.2241
12543,Right,2,0.1570,-0.1694,-0.9089,-0.3471,0.0197,0.0105,0.0138,0.0178,0.1635,-0.1035,-3.8298,1.8044,8.7391,0.0002,0.0001,0.0002,1.0000,-0.0957,0.0450,0.2185
12543,Pelvis,2,-0.5279,0.4323,-0.5708,-0.4568,0.1233,0.0297,0.0091,0.2985,0.1560,-0.0432,9.7485,-0.4330,0.5781,0.0015,0.0004,0.0001,1.0000,0.2437,-0.0108,0.0143
12544,Left,2,0.2064,0.0177,-0.9609,-0.1837,0.0092,0.0007,0.0000,0.0247,0.0139,-0.0292,-3.8340,-1.0965,8.9340,0.0001,0.0000,0.0000,1.0000,-0.0958,-0.0274,0.2233
12544,Right,2,0.1572,-0.1695,-0.9090,-0.3468,0.0167,0.0130,0.0155,0.0133,0.1765,-0.0998,-3.8223,1.8003,8.7476,0.0002,0.0002,0.0002,1.0000,-0.0955,0.0449,0.2187
12544,Pelvis,2,-0.5285,0.4314,-0.5716,-0.4559,0.1305,0.0132,0.0126,0.2317,0.1412,-0.0243,9.7677,-0.3655,0.5861,0.0016,0.0002,0.0002,1.0000,0.2442,-0.0091,0.0146
12545,Left,2,0.2064,0.0177,-0.9609,-0.1836,0.0116,-0.0030,0.0001,0.0129,0.0066,-0.0342,-3.8240,-1.0843,8.9342,0.0001,-0.0000,0.0000,1.0000,-0.0956,-0.0271,0.2233
12545,Right,2,0.1572,-0.1696,-0.9090,-0.3467,0.0197,0.0123,0.0125,0.0043,0.1669,-0.0985,-3.8242,1.8154,8.7449,0.0002,0.0002,0.0002,1.0000,-0.0956,0.0453,0.2186
12545,Pelvis,2,-0.5291,0.4306,-0.5724,-0.4549,0.1275,-0.0021,0.0155,0.2561,0.1638,-0.0836,9.7092,-0.3959,0.5679,0.0016,-0.0000,0.0002,1.0000,0.2427,-0.0099,0.0142
12546,Left,2,0.2061,0.0176,-0.9610,-0.1835,0.0171,-0.0091,0.0008,0.0063,0.0090,-0.0379,-3.8129,-1.0810,8.9353,0.0002,-0.0001,0.0000,1.0000,-0.0953,-0.0271,0.2234
12546,Right,2,0.1572,-0.1698,-0.9090,-0.3466,0.0209,0.0093,0.0144,0.0205,0.2229,-0.0643,-3.8181,1.7752,8.7949,0.0003,0.0001,0.0002,1.0000,-0.0954,0.0443,0.2199
12546,Pelvis,2,-0.5300,0.4297,-0.5731,-0.4539,0.1367,-0.0130,0.0088,0.2144,0.1313,-0.1317,9.6601,-0.3483,0.5868,0.0017,-0.0002,0.0001,1.0000,0.2415,-0.0087,0.0147
12547,Left,2,0.2059,0.0174,-0.9611,-0.1834,0.0171,-0.0084,0.0020,-0.0213,0.0186,-0.0402,-3.7818,-1.0764,8.9466,0.0002,-0.0001,0.0000,1.0000,-0.0946,-0.0270,0.2236
12547,Right,2,0.1572,-0.1700,-0.9090,-0.3464,0.0209,0.0106,0.0168,0.0161,0.1808,-0.0704,-3.8380,1.8099,8.7715,0.0003,0.0001,0.0002,1.0000,-0.0959,0.0452,0.2193
12547,Pelvis,2,-0.5308,0.4289,-0.5737,-0.4529,0.1306,-0.0130,0.0026,0.2052,0.0825,-0.0512,9.7378,-0.3287,0.6349,0.0016,-0.0002,0.0000,1.0000,0.2434,-0.0082,0.0159
12548,Left,2,0.2058,0.0174,-0.9611,-0.1831,0.0152,0.0001,0.0025,-0.0179,-0.0081,-0.0175,-3.8009,-1.0527,8.9662,0.0002,0.0000,0.0000,1.0000,-0.0950,-0.0264,0.2241
12548,Right,2,0.1573,-0.1701,-0.9091,-0.3461,0.0215,0.0093,0.0169,0.0144,0.1778,-0.0703,-3.8394,1.8162,8.7696,0.0003,0.0001,0.0002,1.0000,-0.0960,0.0453,0.2193
12548,Pelvis,2,-0.5316,0.4281,-0.5743,-0.4520,0.1288,-0.0142,0.0020,0.2171,0.0687,0.0085,9.7963,-0.3372,0.6529,0.0016,-0.0002,0.0000,1.0000,0.2449,-0.0085,0.0164
12549,Left,2,0.2058,0.0173,-0.9612,-0.1830,0.0122,0.0087,0.0036,-0.0103,0.0095,-0.0149,-3.8017,-1.0688,8.9667,0.0002,0.0001,0.0000,1.0000,-0.0950,-0.0268,0.2242
12549,Right,2,0.1572,-0.1702,-0.9091,-0.3461,0.0190,0.0069,0.0157,-0.0050,0.1768,-0.0858,-3.8205,1.8306,8.7577,0.0002,0.0001,0.0002,1.0000,-0.0955,0.0457,0.2190
12549,Pelvis,2,-0.5325,0.4274,-0.5748,-0.4510,0.1300,-0.0246,0.0008,0.2116,0.0468,0.0095,9.7964,-0.3257,0.6688,0.0016,-0.0003,0.0000,1.0000,0.2449,-0.0082,0.0168
12550,Left,2,0.2058,0.0172,-0.9612,-0.1829,0.0128,0.0074,0.0030,-0.0010,-0.0051,-0.0214,-3.8134,-1.0564,8.9561,0.0002,0.0001,0.0000,1.0000,-0.0953,-0.0264,0.2239
12550,Right,2,0.1572,-0.1703,-0.9092,-0.3460,0.0146,0.0020,0.0140,0.0134,0.1818,-0.0843,-3.8313,1.8165,8.7577,0.0002,0.0000,0.0002,1.0000,-0.0958,0.0454,0.2190
12550,Pelvis,2,-0.5335,0.4266,-0.5753,-0.4499,0.1324,-0.0264,-0.0041,0.2477,0.0626,-0.0199,9.7676,-0.3622,0.6535,0.0017,-0.0003,-0.0001,1.0000,0.2442,-0.0091,0.0164
12551,Left,2,0.2059,0.0171,-0.9612,-0.1828,0.0140,0.0074,0.0036,0.0083,-0.0191,-0.0279,-3.8249,-1.0437,8.9456,0.0002,0.0001,0.0000,1.0000,-0.0956,-0.0261,0.2236
12551,Right,2,0.1571,-0.1703,-0.9092,-0.3460,0.0127,-0.0058,0.0149,0.0156,0.1720,-0.1019,-3.8300,1.8196,8.7378,0.0002,-0.0001,0.0002,1.0000,-0.0958,0.0454,0.2184
12551,Pelvis,2,-0.5345,0.4257,-0.5758,-0.4489,0.1361,-0.0319,-0.0114,0.2440,0.0777,-0.0990,9.6902,-0.3581,0.6272,0.0017,-0.0004,-0.0001,1.0000,0.2422,-0.0090,0.0158
12552,Left,2,0.2059,0.0170,-0.9612,-0.1828,0.0134,0.0075,0.0042,-0.0022,0.0009,-0.0111,-3.8169,-1.0591,8.9655,0.0002,0.0001,0.0001,1.0000,-0.0954,-0.0265,0.2241
12552,Right,2,0.1569,-0.1702,-0.9092,-0.3460,0.0120,-0.0095,0.0144,0.0304,0.2019,-0.0574,-3.8389,1.7981,8.7885,0.0001,-0.0001,0.0002,1.0000,-0.0960,0.0449,0.2197
12552,Pelvis,2,-0.5355,0.4249,-0.5761,-0.4480,0.1270,-0.0344,-0.0181,0.2336,0.0763,-0.0796,9.7104,-0.3427,0.6205,0.0016,-0.0004,-0.0002,1.0000,0.2428,-0.0086,0.0156
12553,Left,2,0.2060,0.0169,-0.9612,-0.1829,0.0146,0.0063,0.0067,0.0173,-0.0076,-0.0126,-3.8380,-1.0559,8.9552,0.0002,0.0001,0.0001,1.0000,-0.0959,-0.0264,0.2239
12553,Right,2,0.1567,-0.1703,-0.9092,-0.3461,0.0155,-0.0143,0.0195,0.0292,0.1781,-0.0915,-3.8349,1.8099,8.7494,0.0002,-0.0002,0.0002,1.0000,-0.0959,0.0452,0.2187
12553,Pelvis,2,-0.5366,0.4241,-0.5764,-0.4472,0.1234,-0.0307,-0.0267,0.2549,0.1050,-0.0121,9.7796,-0.3649,0.5951,0.0015,-0.0004,-0.0003,1.0000,0.2445,-0.0092,0.0150
12554,Left,2,0.2060,0.0167,-0.9612,-0.1828,0.0146,0.0063,0.0055,0.0057,-0.0052,-0.0074,-3.8299,-1.0517,8.9649,0.0002,0.0001,0.0001,1.0000,-0.0957,-0.0263,0.2241
12554,Right,2,0.1564,-0.1703,-0.9093,-0.3460,0.0198,-0.0124,0.0225,0.0274,0.1756,-0.0914,-3.8310,1.8158,8.7499,0.0002,-0.0002,0.0003,1.0000,-0.0958,0.0453,0.2187
12554,Pelvis,2,-0.5377,0.4232,-0.5767,-0.4464,0.1259,-0.0320,-0.0340,0.2819,0.1114,0.0077,9.7999,-0.3849,0.5892,0.0016,-0.0004,-0.0004,1.0000,0.2450,-0.0098,0.0148
12555,Left,2,0.2060,0.0166,-0.9612,-0.1826,0.0164,0.0038,0.0061,0.0116,-0.0195,-0.0050,-3.8411,-1.0380,8.9644,0.0002,0.0000,0.0001,1.0000,-0.0960,-0.0260,0.2241
12555,Right,2,0.1561,-0.1704,-0.9094,-0.3458,0.0216,-0.0148,0.0262,0.0054,0.1648,-0.0929,-3.8164,1.8417,8.7490,0.0003,-0.0002,0.0003,1.0000,-0.0955,0.0460,0.2187
12555,Pelvis,2,-0.5388,0.4222,-0.5769,-0.4457,0.1217,-0.0315,-0.0462,0.2781,0.0790,0.0093,9.8005,-0.3630,0.6117,0.0015,-0.0004,-0.0006,1.0000,0.2450,-0.0092,0.0154
12556,Left,2,0.2059,0.0165,-0.9613,-0.1824,0.0171,0.0026,0.0055,-0.0019,0.0071,-0.0225,-3.8124,-1.0532,8.9557,0.0002,0.0000,0.0001,1.0000,-0.0953,-0.0264,0.2239
12556,Right,2,0.1558,-0.1705,-0.9095,-0.3457,0.0209,-0.0191,0.0252,0.0247,0.1697,-0.0913,-3.8220,1.8297,8.7509,0.0003,-0.0002,0.0003,1.0000,-0.0956,0.0457,0.2188
12556,Pelvis,2,-0.5399,0.4213,-0.5769,-0.4452,0.1132,-0.0292,-0.0603,0.2803,0.0654,-0.0486,9.7427,-0.3481,0.6146,0.0014,-0.0004,-0.0008,1.0000,0.2436,-0.0089,0.0154
12557,Left,2,0.2058,0.0163,-0.9613,-0.1822,0.0176,0.0033,0.0080,0.0037,-0.0030,-0.0417,-3.8131,-1.0396,8.9360,0.0002,0.0000,0.0001,1.0000,-0.0953,-0.0260,0.2234
12557,Right,2,0.1554,-0.1705,-0.9097,-0.3454,0.0196,-0.0221,0.0259,0.0207,0.1706,-0.0824,-3.8164,1.8373,8.7617,0.0002,-0.0003,0.0003,1.0000,-0.0955,0.0458,0.2190
12557,Pelvis,2,-0.5411,0.4202,-0.5768,-0.4448,0.1053,-0.0312,-0.0750,0.2635,0.0479,-0.0970,9.6948,-0.3104,0.6172,0.0013,-0.0004,-0.0009,1.0000,0.2424,-0.0080,0.0155
12558,Left,2,0.2058,0.0161,-0.9614,-0.1821,0.0207,0.0051,0.0086,0.0006,0.0056,-0.0225,-3.8144,-1.0436,8.9560,0.0003,0.0001,0.0001,1.0000,-0.0953,-0.0262,0.2239
12558,Right,2,0.1548,-0.1705,-0.9097,-0.3455,0.0224,-0.0368,0.0264,0.0161,0.1834,-0.1003,-3.7896,1.8332,8.7546,0.0003,-0.0005,0.0003,1.0000,-0.0949,0.0457,0.2188
12558,Pelvis,2,-0.5423,0.4192,-0.5766,-0.4446,0.0889,-0.0326,-0.0897,0.2287,0.0201,-0.0963,9.6956,-0.2494,0.6287,0.0011,-0.0004,-0.0011,1.0000,0.2424,-0.0065,0.0158
12559,Left,2,0.2058,0.0159,-0.9614,-0.1820,0.0213,0.0100,0.0097,0.0058,-0.0118,0.0015,-3.8361,-1.0278,8.9748,0.0003,0.0001,0.0001,1.0000,-0.0959,-0.0258,0.2244
12559,Right,2,0.1544,-0.1706,-0.9099,-0.3453,0.0244,-0.0287,0.0316,-0.0138,0.1659,-0.1005,-3.7702,1.8699,8.7546,0.0003,-0.0004,0.0004,1.0000,-0.0944,0.0466,0.2188
12559,Pelvis,2,-0.5436,0.4182,-0.5761,-0.4446,0.0792,-0.0463,-0.1029,0.2206,0.0078,-0.0958,9.6966,-0.2147,0.6291,0.0010,-0.0006,-0.0013,1.0000,0.2424,-0.0057,0.0159
12560,Left,2,0.2060,0.0157,-0.9614,-0.1817,0.0188,0.0156,0.0133,0.0139,-0.0067,0.0155,-3.8491,-1.0317,8.9841,0.0002,0.0002,0.0002,1.0000,-0.0962,-0.0259,0.2246
12560,Right,2,0.1539,-0.1705,-0.9100,-0.3451,0.0182,-0.0317,0.0293,-0.0096,0.1446,-0.0915,-3.7812,1.8879,8.7556,0.0002,-0.0004,0.0004,1.0000,-0.0946,0.0471,0.2189
12560,Pelvis,2,-0.5451,0.4174,-0.5754,-0.4446,0.0653,-0.0710,-0.1166,0.2694,0.0105,-0.0655,9.7279,-0.2351,0.6266,0.0008,-0.0009,-0.0015,1.0000,0.2432,-0.0062,0.0159
12561,Left,2,0.2062,0.0154,-0.9614,-0.1814,0.0114,0.0267,0.0216,0.0319,-0.0200,-0.0089,-3.8638,-1.0180,8.9527,0.0001,0.0003,0.0003,1.0000,-0.0965,-0.0255,0.2238
12561,Right,2,0.1534,-0.1705,-0.9102,-0.3450,0.0157,-0.0354,0.0282,0.0004,0.2109,-0.1054,-3.7360,1.8351,8.7721,0.0002,-0.0004,0.0004,1.0000,-0.0935,0.0458,0.2193
12561,Pelvis,2,-0.5468,0.4168,-0.5743,-0.4445,0.0564,-0.1047,-0.1216,0.2005,-0.0384,-0.1134,9.6799,-0.1269,0.6324,0.0007,-0.0013,-0.0015,1.0000,0.2420,-0.0036,0.0161
12562,Left,2,0.2067,0.0153,-0.9614,-0.1811,0.0046,0.0426,0.0267,0.0109,-0.0170,0.0142,-3.8627,-1.0127,8.9789,0.0001,0.0005,0.0003,1.0000,-0.0964,-0.0254,0.2245
12562,Right,2,0.1530,-0.1705,-0.9103,-0.3446,0.0262,-0.0292,0.0365,0.0216,0.2092,-0.1216,-3.7380,1.8222,8.7561,0.0003,-0.0004,0.0005,1.0000,-0.0935,0.0454,0.2189
12562,Pelvis,2,-0.5487,0.4163,-0.5729,-0.4443,0.0542,-0.1365,-0.1272,0.1608,-0.0399,-0.1534,9.6424,-0.0579,0.5924,0.0007,-0.0017,-0.0016,1.0000,0.2410,-0.0018,0.0152
12563,Left,2,0.2080,0.0152,-0.9612,-0.1805,-0.0202,0.1009,0.0457,0.0107,-0.0058,0.0778,-3.9000,-1.0285,9.0308,-0.0003,0.0013,0.0006,1.0000,-0.0972,-0.0257,0.2259
12563,Right,2,0.1523,-0.1708,-0.9105,-0.3443,0.0388,-0.0410,0.0535,0.0762,0.2583,-0.1400,-3.7316,1.7550,8.7538,0.0005,-0.0005,0.0007,1.0000,-0.0934,0.0437,0.2188
12563,Pelvis,2,-0.5511,0.4154,-0.5714,-0.4441,0.0836,-0.1600,-0.1623,0.1270,-0.0639,-0.2605,9.5365,0.0151,0.5658,0.0010,-0.0020,-0.0020,1.0000,0.2384,-0.0001,0.0146
12564,Left,2,0.2107,0.0154,-0.9607,-0.1798,-0.0565,0.2077,0.0514,0.1829,-0.0119,0.2722,-4.1622,-1.1079,9.1207,-0.0007,0.0026,0.0006,1.0000,-0.1034,-0.0276,0.2283
12564,Right,2,0.1513,-0.1710,-0.9109,-0.3436,0.0504,-0.0661,0.0770,0.0830,0.1911,-0.1332,-3.7641,1.8105,8.7344,0.0006,-0.0008,0.0010,1.0000,-0.0943,0.0450,0.2183
12564,Pelvis,2,-0.5543,0.4138,-0.5696,-0.4439,0.1335,-0.1667,-0.2289,0.1140,-0.2678,-0.2601,9.5291,0.1288,0.7198,0.0017,-0.0021,-0.0029,1.0000,0.2382,0.0025,0.0185
12565,Left,2,0.2148,0.0150,-0.9599,-0.1794,-0.0334,0.3357,0.0342,0.0206,0.3044,0.3370,-4.0031,-1.3623,9.2319,-0.0004,0.0042,0.0004,1.0000,-0.0991,-0.0340,0.2312
12565,Right,2,0.1499,-0.1713,-0.9114,-0.3428,0.0609,-0.0919,0.0969,0.0510,0.1385,-0.1093,-3.7596,1.8908,8.7446,0.0008,-0.0011,0.0012,1.0000,-0.0943,0.0470,0.2185
12565,Pelvis,2,-0.5574,0.4108,-0.5688,-0.4439,0.2205,-0.0741,-0.2722,0.2796,-0.3873,-0.0351,9.7513,0.0688,0.8591,0.0028,-0.0009,-0.0034,1.0000,0.2438,0.0008,0.0217
12566,Left,2,0.2227,0.0138,-0.9584,-0.1782,-0.0565,0.6370,0.1272,-1.0334,1.8966,0.1896,-2.6156,-2.4840,9.5761,-0.0007,0.0080,0.0016,1.0000,-0.0634,-0.0620,0.2400
12566,Right,2,0.1484,-0.1716,-0.9119,-0.3420,0.0607,-0.0987,0.1094,0.0562,0.2375,-0.1157,-3.6790,1.8353,8.7857,0.0008,-0.0012,0.0014,1.0000,-0.0923,0.0456,0.2196
12566,Pelvis,2,-0.5602,0.4062,-0.5702,-0.4428,0.3975,0.0638,-0.1983,0.4509,-0.5242,0.0345,9.8167,0.0072,1.0384,0.0050,0.0008,-0.0025,1.0000,0.2454,-0.0006,0.0258
12567,Left,2,0.2409,0.0069,-0.9549,-0.1735,0.1755,1.5425,0.4794,-2.5243,2.9983,1.0372,-1.6529,-3.0726,10.9967,0.0022,0.0193,0.0060,0.9998,-0.0356,-0.0776,0.2755
12567,Right,2,0.1465,-0.1723,-0.9126,-0.3406,0.0858,-0.1039,0.1645,0.1475,0.2629,-0.1371,-3.6943,1.7762,8.7696,0.0011,-0.0013,0.0021,1.0000,-0.0927,0.0440,0.2192
12567,Pelvis,2,-0.5625,0.4020,-0.5736,-0.4394,0.5370,0.0874,0.0084,-0.1822,-0.5359,-0.5855,9.1827,0.6317,0.8603,0.0067,0.0011,0.0001,1.0000,0.2296,0.0157,0.0214
12568,Left,2,0.2679,-0.0045,-0.9493,-0.1645,0.3088,2.3213,0.8739,-1.9249,2.5648,6.8795,-5.6883,-3.2720,15.6826,0.0039,0.0290,0.0109,0.9995,-0.1298,-0.0848,0.3956
12568,Right,2,0.1448,-0.1731,-0.9133,-0.3390,0.0937,-0.0861,0.1723,-0.0379,0.0957,0.0257,-3.6885,2.0863,8.8796,0.0012,-0.0011,0.0022,1.0000,-0.0926,0.0517,0.2220
12569,Left,2,0.2789,-0.0077,-0.9464,-0.1625,0.0491,0.9472,0.1953,-1.9521,4.4031,9.9479,-7.3745,-5.0932,18.2586,0.0006,0.0118,0.0024,0.9999,-0.1786,-0.1281,0.4585
12569,Right,2,0.1441,-0.1736,-0.9138,-0.3376,0.0524,-0.0273,0.1151,-0.0477,0.1242,0.0866,-3.6680,2.1117,8.9499,0.0007,-0.0003,0.0014,1.0000,-0.0919,0.0525,0.2238
12570,Left,2,0.2879,-0.0069,-0.9431,-0.1663,-0.1031,0.7416,-0.3104,-2.8858,2.4778,3.2830,-4.0177,-2.4732,12.7950,-0.0013,0.0093,-0.0039,0.9999,-0.0977,-0.0610,0.3209
12570,Right,2,0.1441,-0.1737,-0.9141,-0.3370,0.0116,0.0090,0.0472,-0.0993,0.1570,0.0070,-3.5746,2.1167,8.8996,0.0001,0.0001,0.0006,1.0000,-0.0894,0.0528,0.2225
12571,Left,2,0.2991,-0.0070,-0.9396,-0.1660,-0.1702,0.9299,0.0297,-3.1741,0.2436,4.2751,-5.2907,-0.4117,13.4332,-0.0021,0.0116,0.0004,0.9999,-0.1283,-0.0096,0.3374
12571,Right,2,0.1446,-0.1736,-0.9140,-0.3369,-0.0032,0.0354,-0.0045,-0.0168,0.3492,-0.0616,-3.5037,1.9091,8.9042,-0.0000,0.0004,-0.0001,1.0000,-0.0875,0.0477,0.2226
12571,Pelvis,2,-0.5607,0.3849,-0.5927,-0.4315,0.4235,0.3208,0.0804,-0.4288,-0.2843,0.7972,10.5635,0.8165,0.7666,0.0212,0.0160,0.0040,0.9996,1.0571,0.0845,0.0615
12572,Left,2,0.3071,-0.0087,-0.9380,-0.1606,-0.1556,0.6628,0.5036,-2.0372,-0.1463,4.8772,-6.8886,-0.4631,13.1264,-0.0019,0.0083,0.0063,0.9999,-0.1694,-0.0120,0.3296
12572,Right,2,0.1454,-0.1739,-0.9139,-0.3369,0.0209,0.0643,-0.0108,0.0027,0.2530,-0.0726,-3.5809,1.9592,8.8472,0.0003,0.0008,-0.0001,1.0000,-0.0893,0.0489,0.2213
12572,Pelvis,2,-0.5608,0.3800,-0.5960,-0.4311,0.3516,0.3028,-0.0944,-0.8108,-1.0197,0.1880,9.8793,1.3966,1.4698,0.0044,0.0038,-0.0012,1.0000,0.2472,0.0345,0.0360
12573,Left,2,0.3111,-0.0103,-0.9379,-0.1530,-0.1124,0.3334,0.6121,-0.0393,0.2120,3.6634,-7.7627,-1.2569,10.9459,-0.0014,0.0042,0.0077,1.0000,-0.1927,-0.0325,0.2745
12573,Right,2,0.1462,-0.1740,-0.9137,-0.3369,0.0140,0.0598,-0.0209,-0.0799,0.0946,-0.0726,-3.6245,2.1259,8.7879,0.0002,0.0007,-0.0003,1.0000,-0.0904,0.0531,0.2198
12573,Pelvis,2,-0.5598,0.3747,-0.5998,-0.4318,0.3013,0.4172,-0.1118,-0.5376,-0.6684,-0.2346,9.4741,1.0435,1.2761,0.0038,0.0052,-0.0014,1.0000,0.2371,0.0256,0.0308
12574,Left,2,0.3148,-0.0114,-0.9372,-0.1496,-0.0358,0.3183,0.2764,1.2864,0.2562,1.4295,-7.5382,-1.4548,8.3167,-0.0004,0.0040,0.0035,1.0000,-0.1875,-0.0369,0.2087
12574,Right,2,0.1468,-0.1737,-0.9135,-0.3372,-0.0186,0.0351,-0.0497,-0.0341,0.0971,-0.0960,-3.6589,2.0821,8.7579,-0.0002,0.0004,-0.0006,1.0000,-0.0913,0.0522,0.2190
12574,Pelvis,2,-0.5578,0.3684,-0.6040,-0.4339,0.2647,0.5684,-0.1785,-0.5920,-0.2383,0.1334,9.8654,1.0014,1.0024,0.0033,0.0071,-0.0022,1.0000,0.2469,0.0244,0.0234
12575,Left,2,0.3194,-0.0129,-0.9353,-0.1521,0.1239,0.4162,-0.1643,2.1157,-0.5183,-0.1512,-7.5081,-0.8245,6.4061,0.0015,0.0052,-0.0021,1.0000,-0.1869,-0.0205,0.1611
12575,Right,2,0.1474,-0.1733,-0.9133,-0.3377,-0.0219,0.0291,-0.0501,0.0280,0.2007,-0.0694,-3.6655,1.9601,8.8145,-0.0003,0.0004,-0.0006,1.0000,-0.0915,0.0491,0.2204
12575,Pelvis,2,-0.5555,0.3619,-0.6080,-0.4367,0.2270,0.5941,-0.2156,-0.7267,-0.0443,0.0323,9.7681,1.1092,0.9000,0.0028,0.0074,-0.0027,1.0000,0.2444,0.0270,0.0208
12576,Left,2,0.3248,-0.0149,-0.9323,-0.1586,0.2581,0.4991,-0.4708,2.2770,-1.5626,-2.1316,-6.7874,0.2357,4.5281,0.0032,0.0062,-0.0059,1.0000,-0.1689,0.0065,0.1143
12576,Right,2,0.1480,-0.1731,-0.9132,-0.3379,-0.0065,0.0328,-0.0374,0.0295,0.1908,-0.0870,-3.6746,1.9513,8.7929,-0.0001,0.0004,-0.0005,1.0000,-0.0918,0.0488,0.2199
12576,Pelvis,2,-0.5535,0.3566,-0.6107,-0.4399,0.1238,0.4919,-0.2378,-0.8904,0.2275,0.0049,9.7584,1.2227,0.7140,0.0015,0.0061,-0.0030,1.0000,0.2442,0.0298,0.0164
12577,Left,2,0.3298,-0.0169,-0.9291,-0.1664,0.2983,0.4779,-0.5690,2.1464,-2.5111,-3.9857,-5.8867,1.2577,2.9381,0.0037,0.0060,-0.0071,0.9999,-0.1465,0.0322,0.0744
12577,Right,2,0.1484,-0.1729,-0.9131,-0.3380,-0.0013,0.0223,-0.0364,0.0182,0.1800,-0.1075,-3.6723,1.9546,8.7703,-0.0000,0.0003,-0.0005,1.0000,-0.0917,0.0489,0.2193
12577,Pelvis,2,-0.5518,0.3527,-0.6122,-0.4431,0.0290,0.3794,-0.2294,-1.0542,0.3330,-0.1216,9.6330,1.3890,0.6440,0.0004,0.0047,-0.0029,1.0000,0.2410,0.0340,0.0150
12578,Left,2,0.3344,-0.0190,-0.9262,-0.1730,0.2786,0.4414,-0.4752,2.4312,-3.2693,-6.4163,-4.8588,2.0144,0.6848,0.0035,0.0055,-0.0059,1.0000,-0.1211,0.0510,0.0180
12578,Right,2,0.1486,-0.1728,-0.9131,-0.3382,0.0083,0.0127,-0.0274,0.0091,0.1740,-0.0974,-3.6770,1.9629,8.7774,0.0001,0.0002,-0.0003,1.0000,-0.0919,0.0491,0.2195
12578,Pelvis,2,-0.5503,0.3500,-0.6126,-0.4465,-0.0667,0.2794,-0.2315,-0.9899,0.5707,-0.0933,9.6849,1.3008,0.5328,-0.0008,0.0035,-0.0029,1.0000,0.2423,0.0318,0.0124
12579,Left,2,0.3401,-0.0221,-0.9233,-0.1772,0.2746,0.5417,-0.2777,3.0787,-3.8412,-7.9199,-4.5749,2.4107,-1.0369,0.0034,0.0068,-0.0035,1.0000,-0.1143,0.0608,-0.0249
12579,Right,2,0.1486,-0.1728,-0.9131,-0.3380,0.0158,-0.0010,-0.0140,0.0248,0.1908,-0.1225,-3.6714,1.9323,8.7593,0.0002,-0.0000,-0.0002,1.0000,-0.0918,0.0483,0.2190
12579,Pelvis,2,-0.5488,0.3483,-0.6125,-0.4498,-0.1159,0.2284,-0.1961,-0.6775,0.7069,-0.3964,9.3996,0.9920,0.5384,-0.0014,0.0029,-0.0025,1.0000,0.2351,0.0242,0.0128
12580,Left,2,0.3464,-0.0261,-0.9203,-0.1797,0.2866,0.6064,-0.1313,3.8377,-4.0718,-8.7365,-4.6517,2.3970,-2.2543,0.0036,0.0076,-0.0016,1.0000,-0.1166,0.0603,-0.0553
12580,Right,2,0.1486,-0.1726,-0.9132,-0.3379,0.0130,-0.0143,-0.0123,0.0042,0.1682,-0.0973,-3.6783,1.9656,8.7763,0.0002,-0.0002,-0.0002,1.0000,-0.0920,0.0491,0.2194
12580,Pelvis,2,-0.5473,0.3476,-0.6123,-0.4525,-0.1434,0.1557,-0.1287,-0.5064,0.8394,-0.5362,9.2790,0.8124,0.5041,-0.0018,0.0019,-0.0016,1.0000,0.2320,0.0200,0.0121
12581,Left,2,0.3540,-0.0310,-0.9171,-0.1808,0.2966,0.7195,-0.0077,4.1675,-4.2348,-8.9104,-4.7821,2.4220,-2.7170,0.0037,0.0090,-0.0001,1.0000,-0.1202,0.0608,-0.0666
12581,Right,2,0.1485,-0.1724,-0.9132,-0.3380,0.0092,-0.0187,-0.0157,0.0132,0.1570,-0.0806,-3.6948,1.9687,8.7870,0.0001,-0.0002,-0.0002,1.0000,-0.0924,0.0492,0.2197
12581,Pelvis,2,-0.5461,0.3481,-0.6119,-0.4541,-0.1490,0.0683,-0.0410,-0.3758,1.0846,-0.2915,9.5607,0.6401,0.3925,-0.0019,0.0009,-0.0005,1.0000,0.2390,0.0159,0.0096
12582,Left,2,0.3605,-0.0359,-0.9142,-0.1815,0.2992,0.6226,0.0216,4.6435,-3.7705,-8.4376,-5.2303,1.7690,-2.6803,0.0037,0.0078,0.0003,1.0000,-0.1313,0.0444,-0.0658
12582,Right,2,0.1483,-0.1720,-0.9132,-0.3382,-0.0044,-0.0227,-0.0192,-0.0544,0.1197,-0.0933,-3.6581,2.0332,8.7732,-0.0001,-0.0003,-0.0002,1.0000,-0.0915,0.0509,0.2193
12582,Pelvis,2,-0.5456,0.3498,-0.6111,-0.4544,-0.1401,-0.0571,0.0512,-0.6221,1.1036,-0.1807,9.6710,0.8692,0.3100,-0.0018,-0.0007,0.0006,1.0000,0.2418,0.0219,0.0079
12583,Left,2,0.3668,-0.0405,-0.9112,-0.1833,0.3048,0.6134,-0.0657,4.3764,-3.5807,-9.4324,-4.2778,1.7293,-3.2907,0.0038,0.0077,-0.0008,1.0000,-0.1075,0.0436,-0.0813
12583,Right,2,0.1481,-0.1716,-0.9132,-0.3387,-0.0071,-0.0318,-0.0188,0.0450,0.2337,-0.1151,-3.6520,1.8742,8.7892,-0.0001,-0.0004,-0.0002,1.0000,-0.0914,0.0469,0.2197
12583,Pelvis,2,-0.5455,0.3531,-0.6098,-0.4538,-0.1723,-0.1858,0.1244,-0.7907,0.9791,-0.4423,9.3935,1.0301,0.2993,-0.0022,-0.0023,0.0016,1.0000,0.2348,0.0261,0.0080
12584,Left,2,0.3734,-0.0446,-0.9083,-0.1833,0.2245,0.6241,0.0483,3.6728,-3.3654,-9.0615,-3.9532,1.7432,-2.5911,0.0028,0.0078,0.0006,1.0000,-0.0994,0.0437,-0.0639
12584,Right,2,0.1477,-0.1715,-0.9132,-0.3390,0.0144,-0.0306,-0.0049,0.0743,0.2176,-0.0916,-3.6852,1.8672,8.8026,0.0002,-0.0004,-0.0001,1.0000,-0.0922,0.0466,0.2200
12584,Pelvis,2,-0.5455,0.3581,-0.6074,-0.4530,-0.2719,-0.3108,0.1717,-0.8454,1.0023,-0.5131,9.3325,1.0331,0.1954,-0.0034,-0.0039,0.0021,1.0000,0.2332,0.0263,0.0057
12585,Left,2,0.3779,-0.0474,-0.9065,-0.1823,0.1210,0.4170,0.0982,3.2431,-1.8001,-7.9396,-3.9543,0.3839,-1.2178,0.0015,0.0052,0.0012,1.0000,-0.0990,0.0095,-0.0299
12585,Right,2,0.1474,-0.1713,-0.9133,-0.3388,0.0211,-0.0335,0.0032,0.0438,0.2337,-0.1377,-3.6297,1.8658,8.7753,0.0003,-0.0004,0.0000,1.0000,-0.0908,0.0466,0.2194
12585,Pelvis,2,-0.5458,0.3646,-0.6041,-0.4520,-0.3519,-0.4263,0.2026,-0.9709,1.0284,-0.5956,9.2607,1.0933,0.0390,-0.0044,-0.0053,0.0025,1.0000,0.2314,0.0279,0.0021
12586,Left,2,0.3778,-0.0461,-0.9059,-0.1860,0.0260,-0.0257,-0.3312,2.1175,0.1106,-7.2983,-3.1014,-1.0206,0.3966,0.0003,-0.0003,-0.0041,1.0000,-0.0776,-0.0252,0.0099
12586,Right,2,0.1469,-0.1713,-0.9133,-0.3390,0.0259,-0.0343,0.0001,-0.0214,0.2186,-0.1694,-3.5709,1.9153,8.7533,0.0003,-0.0004,0.0000,1.0000,-0.0894,0.0478,0.2188
12586,Pelvis,2,-0.5463,0.3725,-0.5996,-0.4509,-0.4467,-0.5360,0.2190,-0.9618,0.9902,-0.5934,9.2630,1.0485,-0.0230,-0.0056,-0.0067,0.0027,1.0000,0.2315,0.0268,0.0008
12587,Left,2,0.3731,-0.0399,-0.9060,-0.1959,-0.0713,-0.4784,-0.8991,-0.7777,0.9676,-7.9324,-0.5048,-0.7222,2.0737,-0.0009,-0.0060,-0.0112,0.9999,-0.0131,-0.0179,0.0518
12587,Right,2,0.1466,-0.1711,-0.9136,-0.3386,0.0205,-0.0297,-0.0104,-0.0266,0.2100,-0.1466,-3.5732,1.9319,8.7737,0.0003,-0.0004,-0.0001,1.0000,-0.0894,0.0483,0.2193
12588,Left,2,0.3664,-0.0271,-0.9071,-0.2055,-0.5349,-0.7529,-1.0489,-5.8560,0.8264,-10.6020,4.6033,1.5869,3.4483,-0.0067,-0.0094,-0.0131,0.9998,0.1148,0.0387,0.0870
12588,Right,2,0.1465,-0.1709,-0.9138,-0.3381,0.0158,-0.0225,-0.0150,-0.0110,0.1974,-0.0954,-3.6066,1.9403,8.8144,0.0002,-0.0003,-0.0002,1.0000,-0.0902,0.0485,0.2203
12588,Pelvis,2,-0.5485,0.3908,-0.5879,-0.4482,-0.5138,-0.6789,0.2235,-1.0267,0.9740,-0.2516,9.6062,1.0534,-0.1913,-0.0128,-0.0170,0.0056,0.9998,0.4801,0.0553,-0.0021
12589,Left,2,0.3722,-0.0110,-0.9042,-0.2091,-1.1423,0.2333,-0.8098,-8.2848,4.6550,-9.7193,6.9317,-1.0352,6.4184,-0.0143,0.0029,-0.0101,0.9998,0.1735,-0.0253,0.1603
12589,Right,2,0.1464,-0.1705,-0.9137,-0.3386,-0.0068,-0.0188,-0.0297,-0.1327,0.0266,-0.0693,-3.6215,2.1440,8.7886,-0.0001,-0.0002,-0.0004,1.0000,-0.0906,0.0537,0.2197
12589,Pelvis,2,-0.5492,0.4006,-0.5815,-0.4468,-0.5731,-0.6997,0.2439,-1.1969,0.8057,0.1542,9.9955,1.1999,-0.2732,-0.0072,-0.0087,0.0030,0.9999,0.2498,0.0307,-0.0049
12590,Left,525568,0.3721,-0.0227,-0.8978,-0.2343,1.2673,0.2914,-1.2186,4.9879,-2.6736,68.3605,-57.1721,-10.2095,52.6327,0.0158,0.0036,-0.0152,0.9998,-1.4284,-0.2543,1.3170
12590,Right,2,0.1467,-0.1692,-0.9138,-0.3388,-0.0719,-0.0279,-0.0546,-0.2282,-0.1037,0.0222,-3.6578,2.3043,8.8373,-0.0009,-0.0003,-0.0007,1.0000,-0.0915,0.0579,0.2208
12590,Pelvis,2,-0.5491,0.4100,-0.5762,-0.4454,-0.5479,-0.6091,0.2976,-1.3058,0.4486,0.3364,10.1537,1.3434,-0.0958,-0.0068,-0.0076,0.0037,0.9999,0.2537,0.0345,-0.0007
12591,Left,529664,0.2590,-0.0080,-0.9329,-0.2501,1.4758,-9.4969,-0.7175,-0.8739,12.5631,-22.3122,13.4352,-9.1099,-7.2261,0.0184,-0.1184,-0.0089,0.9928,0.3524,-0.2280,-0.1436
12591,Right,2,0.1471,-0.1686,-0.9138,-0.3390,-0.0463,0.0108,-0.0179,0.1159,0.4304,-0.0822,-3.5639,1.6513,8.9137,-0.0006,0.0001,-0.0002,1.0000,-0.0891,0.0414,0.2228
12591,Pelvis,2,-0.5461,0.4192,-0.5740,-0.4433,-0.5088,-0.3500,0.5168,-0.1695,-1.5976,0.6816,10.3870,0.6834,2.0873,-0.0064,-0.0044,0.0065,0.9999,0.2593,0.0191,0.0532
12592,Left,0,0.2211,-0.0046,-0.9435,-0.2470,0.4393,-3.1142,0.4013,-17.9280,9.1308,-8.3933,17.2374,0.2667,10.4790,0.0055,-0.0389,0.0050,0.9992,0.4203,0.0073,0.2785
12592,Right,2,0.1498,-0.1697,-0.9134,-0.3384,0.0342,0.2366,-0.0193,-0.2878,0.4869,0.3566,-3.4361,1.9656,9.3842,0.0004,0.0030,-0.0002,1.0000,-0.0852,0.0491,0.2349
12592,Pelvis,2,-0.5412,0.4249,-0.5721,-0.4464,-0.6287,0.0457,0.2047,4.5104,-0.1061,3.1950,12.9256,-4.3429,1.9037,-0.0079,0.0006,0.0026,1.0000,0.3234,-0.1074,0.0483
12593,Left,0,0.2310,-0.0053,-0.9414,-0.2457,-0.1594,0.8015,0.0641,-1.1214,-1.8292,0.6486,-4.4572,1.0627,9.6462,-0.0020,0.0100,0.0008,0.9999,-0.1090,0.0270,0.2422
12593,Right,2,0.1555,-0.1704,-0.9114,-0.3408,-0.0494,0.4449,-0.2460,-0.6540,0.0117,-0.0202,-3.3790,2.4548,8.8814,-0.0006,0.0056,-0.0031,1.0000,-0.0831,0.0618,0.2225
12593,Pelvis,2,-0.5459,0.4175,-0.5674,-0.4536,0.0405,0.0910,-0.9791,5.5470,-1.5020,8.0330,17.7143,-4.8576,3.7571,0.0005,0.0011,-0.0122,0.9999,0.4414,-0.1269,0.0934
