PacketId,Role,StatusWord,Qx,Qy,Qz,Qw,Gx,Gy,Gz,FreeAx,FreeAy,FreeAz,Ax,Ay,Az,DQx,DQy,DQz,DQw,DVx,DVy,DVz
8387,Pelvis,0,0.5347,-0.4231,0.4742,0.5570,0.0491,0.0129,0.0048,-0.0000,0.0000,-0.0695,9.5330,1.8931,0.6841,0.0006,0.0002,0.0001,1.0000,0.2383,0.0473,0.0171
8387,Left,0,0.1849,-0.0465,-0.8079,-0.5577,0.0097,0.0030,0.0042,-0.0000,0.0000,-0.0805,-3.4122,-1.2754,9.0247,0.0001,0.0000,0.0001,1.0000,-0.0853,-0.0319,0.2256
8387,Right,0,0.1541,-0.1641,-0.8039,-0.5506,-0.0027,-0.0032,0.0077,0.0000,-0.0000,-0.0310,-4.1897,0.9208,8.7909,-0.0000,-0.0000,0.0001,1.0000,-0.1048,0.0230,0.2198
8388,Pelvis,0,0.5350,-0.4229,0.4744,0.5566,0.0484,-0.0026,0.0017,0.0230,-0.0641,-0.0512,9.5505,1.8759,0.7483,0.0006,-0.0000,0.0000,1.0000,0.2388,0.0469,0.0187
8388,Left,0,0.1848,-0.0466,-0.8079,-0.5577,0.0112,0.0016,0.0040,-0.0185,0.0172,-0.0653,-3.3964,-1.2666,9.0484,0.0001,0.0000,0.0001,1.0000,-0.0849,-0.0317,0.2262
8388,Right,0,0.1540,-0.1640,-0.8039,-0.5505,-0.0027,-0.0032,0.0077,0.0079,0.0100,-0.0460,-4.1777,0.9086,8.7812,-0.0000,-0.0000,0.0001,1.0000,-0.1045,0.0227,0.2195
8389,Pelvis,0,0.5354,-0.4227,0.4746,0.5563,0.0421,-0.0140,0.0017,0.0053,-0.0665,-0.0016,9.5957,1.9032,0.7494,0.0005,-0.0002,0.0000,1.0000,0.2399,0.0476,0.0188
8389,Left,0,0.1848,-0.0467,-0.8079,-0.5577,0.0108,0.0020,0.0028,-0.0087,0.0055,-0.0903,-3.4016,-1.2651,9.0197,0.0001,0.0000,0.0000,1.0000,-0.0850,-0.0317,0.2255
8389,Right,0,0.1540,-0.1640,-0.8040,-0.5504,-0.0011,-0.0067,0.0089,0.0124,0.0180,-0.0134,-4.1853,0.9053,8.8142,-0.0000,-0.0001,0.0001,1.0000,-0.1047,0.0226,0.2203
8390,Pelvis,0,0.5357,-0.4229,0.4745,0.5560,0.0206,-0.0303,0.0038,-0.0617,-0.0856,-0.0012,9.5823,1.9694,0.7594,0.0003,-0.0004,0.0000,1.0000,0.2395,0.0492,0.0191
8390,Left,0,0.1847,-0.0468,-0.8079,-0.5577,0.0121,-0.0004,0.0029,-0.0137,-0.0025,-0.0732,-3.4134,-1.2569,9.0348,0.0002,-0.0000,0.0000,1.0000,-0.0853,-0.0315,0.2259
8390,Right,0,0.1538,-0.1640,-0.8041,-0.5503,0.0009,-0.0108,0.0106,0.0145,0.0094,-0.0175,-4.1893,0.9068,8.8076,0.0000,-0.0001,0.0001,1.0000,-0.1048,0.0227,0.2202
8391,Pelvis,0,0.5358,-0.4232,0.4742,0.5558,-0.0041,-0.0409,0.0022,-0.0688,-0.1331,0.0112,9.5902,1.9795,0.7995,-0.0001,-0.0005,0.0000,1.0000,0.2397,0.0495,0.0201
8391,Left,0,0.1846,-0.0470,-0.8079,-0.5577,0.0144,0.0028,0.0035,-0.0037,0.0136,-0.1074,-3.3907,-1.2644,9.0055,0.0002,0.0000,0.0000,1.0000,-0.0848,-0.0317,0.2251
8391,Right,0,0.1536,-0.1639,-0.8042,-0.5502,0.0052,-0.0120,0.0115,-0.0307,0.0495,-0.0562,-4.1208,0.9336,8.7943,0.0001,-0.0002,0.0001,1.0000,-0.1031,0.0233,0.2198
8392,Pelvis,0,0.5359,-0.4235,0.4739,0.5558,-0.0230,-0.0380,0.0005,-0.0147,-0.1055,0.0295,9.6213,1.9291,0.7680,-0.0003,-0.0005,0.0000,1.0000,0.2405,0.0482,0.0193
8392,Left,0,0.1845,-0.0472,-0.8079,-0.5576,0.0153,0.0019,0.0076,-0.0040,0.0178,-0.0942,-3.3921,-1.2636,9.0192,0.0002,0.0000,0.0001,1.0000,-0.0848,-0.0316,0.2255
8392,Right,0,0.1536,-0.1640,-0.8042,-0.5502,0.0019,-0.0019,0.0058,-0.0285,0.0407,-0.0603,-4.1253,0.9358,8.7874,0.0000,-0.0000,0.0001,1.0000,-0.1031,0.0234,0.2197
8393,Pelvis,0,0.5358,-0.4239,0.4736,0.5559,-0.0321,-0.0252,-0.0007,0.0054,-0.0933,0.0852,9.6810,1.9196,0.7550,-0.0004,-0.0003,-0.0000,1.0000,0.2420,0.0480,0.0189
8393,Left,0,0.1845,-0.0474,-0.8080,-0.5576,0.0165,0.0080,0.0060,-0.0019,-0.0017,-0.0805,-3.4160,-1.2558,9.0260,0.0002,0.0001,0.0001,1.0000,-0.0854,-0.0314,0.2257
8393,Right,0,0.1536,-0.1640,-0.8043,-0.5501,0.0029,0.0070,0.0075,-0.0111,0.0310,-0.0311,-4.1521,0.9269,8.8081,0.0000,0.0001,0.0001,1.0000,-0.1038,0.0232,0.2202
8394,Pelvis,0,0.5355,-0.4241,0.4733,0.5562,-0.0411,-0.0091,-0.0006,0.0101,-0.0964,0.1155,9.7114,1.9208,0.7595,-0.0005,-0.0001,-0.0000,1.0000,0.2428,0.0480,0.0190
8394,Left,0,0.1844,-0.0477,-0.8080,-0.5576,0.0160,0.0089,0.0066,0.0075,0.0229,-0.0884,-3.3964,-1.2684,9.0231,0.0002,0.0001,0.0001,1.0000,-0.0849,-0.0318,0.2256
8394,Right,0,0.1536,-0.1641,-0.8043,-0.5501,0.0061,0.0060,0.0064,0.0019,0.0134,-0.0345,-4.1708,0.9221,8.7959,0.0001,0.0001,0.0001,1.0000,-0.1043,0.0230,0.2199
8395,Pelvis,0,0.5351,-0.4244,0.4730,0.5566,-0.0518,-0.0026,-0.0006,0.0028,-0.1290,0.0669,9.6600,1.9185,0.7915,-0.0006,-0.0000,-0.0000,1.0000,0.2415,0.0480,0.0198
8395,Left,0,0.1844,-0.0479,-0.8080,-0.5575,0.0171,0.0095,0.0052,-0.0066,0.0179,-0.0726,-3.4042,-1.2514,9.0397,0.0002,0.0001,0.0001,1.0000,-0.0851,-0.0313,0.2260
8395,Right,0,0.1536,-0.1642,-0.8043,-0.5500,0.0061,0.0058,0.0079,-0.0045,0.0263,-0.0426,-4.1551,0.9250,8.7940,0.0001,0.0001,0.0001,1.0000,-0.1039,0.0231,0.2199
8396,Pelvis,0,0.5347,-0.4247,0.4727,0.5571,-0.0573,-0.0045,-0.0007,0.0123,-0.1351,-0.0304,9.5659,1.8901,0.7954,-0.0007,-0.0001,-0.0000,1.0000,0.2391,0.0473,0.0199
8396,Left,0,0.1844,-0.0481,-0.8080,-0.5575,0.0154,0.0086,0.0065,-0.0044,0.0260,-0.0680,-3.4014,-1.2529,9.0455,0.0002,0.0001,0.0001,1.0000,-0.0850,-0.0314,0.2261
8396,Right,0,0.1536,-0.1644,-0.8044,-0.5499,0.0058,0.0082,0.0063,-0.0043,0.0384,-0.0223,-4.1547,0.9247,8.8169,0.0001,0.0001,0.0001,1.0000,-0.1038,0.0231,0.2204
8397,Pelvis,0,0.5342,-0.4249,0.4725,0.5575,-0.0568,-0.0037,-0.0008,0.0383,-0.1355,-0.0062,9.5942,1.8690,0.8031,-0.0007,-0.0000,-0.0000,1.0000,0.2399,0.0467,0.0201
8397,Left,0,0.1843,-0.0484,-0.8080,-0.5575,0.0163,0.0085,0.0063,0.0163,0.0278,-0.0610,-3.4105,-1.2694,9.0473,0.0002,0.0001,0.0001,1.0000,-0.0852,-0.0318,0.2262
8397,Right,0,0.1536,-0.1645,-0.8044,-0.5498,0.0056,0.0101,0.0077,-0.0106,0.0167,-0.0514,-4.1594,0.9371,8.7809,0.0001,0.0001,0.0001,1.0000,-0.1040,0.0234,0.2195
8398,Pelvis,0,0.5338,-0.4252,0.4722,0.5579,-0.0524,-0.0040,0.0017,0.0554,-0.1212,0.0060,9.6103,1.8539,0.7936,-0.0007,-0.0000,0.0000,1.0000,0.2403,0.0464,0.0198
8398,Left,0,0.1843,-0.0486,-0.8080,-0.5575,0.0161,0.0072,0.0057,0.0190,0.0271,-0.0826,-3.4059,-1.2649,9.0263,0.0002,0.0001,0.0001,1.0000,-0.0851,-0.0317,0.2257
8398,Right,0,0.1536,-0.1646,-0.8044,-0.5498,0.0064,0.0083,0.0051,-0.0038,0.0279,-0.0025,-4.1747,0.9336,8.8284,0.0001,0.0001,0.0001,1.0000,-0.1043,0.0233,0.2207
8399,Pelvis,0,0.5334,-0.4255,0.4720,0.5583,-0.0533,-0.0063,0.0018,-0.0199,-0.1178,0.0295,9.6190,1.9307,0.7947,-0.0007,-0.0001,0.0000,1.0000,0.2405,0.0483,0.0199
8399,Left,0,0.1843,-0.0488,-0.8081,-0.5574,0.0144,0.0078,0.0070,0.0186,0.0309,-0.0695,-3.4085,-1.2639,9.0396,0.0002,0.0001,0.0001,1.0000,-0.0852,-0.0316,0.2260
8399,Right,0,0.1536,-0.1647,-0.8044,-0.5497,0.0037,0.0068,0.0072,-0.0187,0.0405,-0.0154,-4.1543,0.9436,8.8227,0.0000,0.0001,0.0001,1.0000,-0.1038,0.0236,0.2206
8400,Pelvis,0,0.5329,-0.4259,0.4716,0.5588,-0.0671,-0.0099,0.0017,-0.0594,-0.0806,0.0249,9.6095,1.9667,0.7603,-0.0008,-0.0001,0.0000,1.0000,0.2402,0.0492,0.0190
8400,Left,0,0.1842,-0.0489,-0.8081,-0.5574,0.0141,0.0063,0.0039,0.0045,0.0209,-0.0668,-3.4151,-1.2444,9.0428,0.0002,0.0001,0.0000,1.0000,-0.0854,-0.0312,0.2261
8400,Right,0,0.1536,-0.1647,-0.8045,-0.5496,0.0039,0.0057,0.0063,0.0051,0.0135,-0.0181,-4.1842,0.9317,8.8067,0.0000,0.0001,0.0001,1.0000,-0.1046,0.0233,0.2202
8401,Pelvis,0,0.5323,-0.4263,0.4712,0.5594,-0.0711,-0.0046,-0.0008,-0.0043,-0.0546,0.0299,9.6267,1.9123,0.7412,-0.0009,-0.0001,-0.0000,1.0000,0.2407,0.0478,0.0185
8401,Left,0,0.1842,-0.0491,-0.8081,-0.5574,0.0148,0.0084,0.0064,0.0184,0.0251,-0.0826,-3.4114,-1.2536,9.0258,0.0002,0.0001,0.0001,1.0000,-0.0853,-0.0314,0.2256
8401,Right,0,0.1536,-0.1648,-0.8045,-0.5496,0.0037,0.0061,0.0053,-0.0098,0.0259,-0.0310,-4.1635,0.9415,8.8012,0.0000,0.0001,0.0001,1.0000,-0.1041,0.0235,0.2200
8402,Pelvis,0,0.5318,-0.4266,0.4710,0.5599,-0.0666,-0.0038,-0.0040,0.0629,-0.0350,0.0161,9.6274,1.8421,0.7284,-0.0008,-0.0000,-0.0000,1.0000,0.2407,0.0461,0.0182
8402,Left,0,0.1841,-0.0493,-0.8081,-0.5574,0.0153,0.0071,0.0049,0.0179,0.0286,-0.0695,-3.4140,-1.2527,9.0391,0.0002,0.0001,0.0001,1.0000,-0.0853,-0.0314,0.2260
8402,Right,0,0.1536,-0.1648,-0.8045,-0.5495,0.0024,0.0051,0.0079,0.0054,0.0334,-0.0175,-4.1685,0.9273,8.8153,0.0000,0.0001,0.0001,1.0000,-0.1042,0.0232,0.2204
8403,Pelvis,0,0.5313,-0.4268,0.4707,0.5603,-0.0514,-0.0020,-0.0007,0.0852,-0.0312,0.0318,9.6471,1.8224,0.7314,-0.0006,-0.0000,-0.0000,1.0000,0.2412,0.0456,0.0183
8403,Left,0,0.1841,-0.0494,-0.8081,-0.5574,0.0138,0.0055,0.0050,0.0204,0.0275,-0.0912,-3.4091,-1.2487,9.0182,0.0002,0.0001,0.0001,1.0000,-0.0852,-0.0313,0.2255
8403,Right,0,0.1536,-0.1648,-0.8046,-0.5494,0.0012,0.0034,0.0065,0.0058,0.0199,-0.0379,-4.1710,0.9308,8.7911,0.0000,0.0000,0.0001,1.0000,-0.1043,0.0233,0.2198
8404,Pelvis,0,0.5309,-0.4269,0.4707,0.5607,-0.0393,0.0084,0.0001,0.0861,-0.0281,0.0536,9.6686,1.8241,0.7364,-0.0005,0.0001,0.0000,1.0000,0.2417,0.0456,0.0184
8404,Left,0,0.1840,-0.0496,-0.8081,-0.5574,0.0137,0.0042,0.0044,0.0221,0.0393,-0.0735,-3.4060,-1.2539,9.0377,0.0002,0.0001,0.0001,1.0000,-0.0851,-0.0314,0.2259
8405,Pelvis,0,0.5306,-0.4269,0.4707,0.5609,-0.0215,0.0095,-0.0012,0.0867,0.0151,0.0501,9.6682,1.8215,0.6997,-0.0003,0.0001,-0.0000,1.0000,0.2417,0.0455,0.0175
8405,Left,0,0.1840,-0.0497,-0.8081,-0.5573,0.0100,0.0055,0.0055,0.0172,0.0215,-0.0826,-3.4174,-1.2394,9.0255,0.0001,0.0001,0.0001,1.0000,-0.0854,-0.0310,0.2256
8405,Right,0,0.1535,-0.1649,-0.8047,-0.5493,0.0022,0.0043,0.0063,0.0040,0.0385,-0.0335,-4.1569,0.9282,8.8029,0.0001,0.0001,0.0002,1.0000,-0.2078,0.0464,0.4402
8406,Pelvis,0,0.5304,-0.4269,0.4708,0.5611,-0.0078,0.0104,-0.0023,0.0630,-0.0071,0.0119,9.6244,1.8373,0.7235,-0.0001,0.0001,-0.0000,1.0000,0.2406,0.0459,0.0181
8406,Left,0,0.1839,-0.0498,-0.8081,-0.5573,0.0103,0.0050,0.0052,0.0212,0.0372,-0.0735,-3.4086,-1.2481,9.0376,0.0001,0.0001,0.0001,1.0000,-0.0852,-0.0312,0.2259
8406,Right,0,0.1534,-0.1649,-0.8047,-0.5492,0.0011,0.0009,0.0073,-0.0040,0.0159,-0.0188,-4.1779,0.9460,8.8075,0.0000,0.0000,0.0001,1.0000,-0.1044,0.0236,0.2202
8407,Pelvis,0,0.5303,-0.4268,0.4708,0.5612,-0.0059,0.0061,-0.0005,0.0233,-0.0184,-0.0159,9.5884,1.8705,0.7361,-0.0001,0.0001,-0.0000,1.0000,0.2397,0.0468,0.0184
8407,Left,0,0.1839,-0.0498,-0.8081,-0.5573,0.0090,0.0059,0.0051,0.0388,0.0259,-0.0841,-3.4214,-1.2573,9.0200,0.0001,0.0001,0.0001,1.0000,-0.0855,-0.0315,0.2255
8407,Right,0,0.1534,-0.1649,-0.8047,-0.5492,0.0026,0.0034,0.0050,-0.0027,0.0501,-0.0216,-4.1484,0.9329,8.8197,0.0000,0.0000,0.0001,1.0000,-0.1037,0.0233,0.2205
8408,Pelvis,0,0.5301,-0.4269,0.4709,0.5613,-0.0157,0.0029,0.0015,-0.0159,-0.0544,-0.0444,9.5503,1.9021,0.7717,-0.0002,0.0000,0.0000,1.0000,0.2388,0.0476,0.0193
8408,Left,0,0.1839,-0.0499,-0.8081,-0.5573,0.0111,0.0061,0.0041,0.0378,0.0248,-0.0841,-3.4229,-1.2547,9.0198,0.0001,0.0001,0.0001,1.0000,-0.0856,-0.0314,0.2255
8408,Right,0,0.1535,-0.1649,-0.8048,-0.5492,0.0012,0.0045,0.0054,-0.0201,0.0491,-0.0311,-4.1390,0.9489,8.8120,0.0000,0.0001,0.0001,1.0000,-0.1035,0.0237,0.2203
8409,Pelvis,0,0.5299,-0.4270,0.4708,0.5614,-0.0184,-0.0071,0.0019,0.0306,-0.0516,0.0088,9.6116,1.8654,0.7760,-0.0002,-0.0001,0.0000,1.0000,0.2403,0.0466,0.0194
8409,Left,0,0.1839,-0.0500,-0.8082,-0.5573,0.0119,0.0052,0.0066,0.0396,0.0278,-0.0927,-3.4185,-1.2544,9.0123,0.0001,0.0001,0.0001,1.0000,-0.0854,-0.0314,0.2253
8409,Right,0,0.1534,-0.1649,-0.8048,-0.5491,0.0012,0.0045,0.0054,0.0082,0.0172,-0.0216,-4.1793,0.9351,8.8048,0.0000,0.0001,0.0001,1.0000,-0.1045,0.0234,0.2201
8410,Pelvis,0,0.5298,-0.4273,0.4707,0.5615,-0.0222,-0.0117,0.0025,0.0230,-0.0592,0.0179,9.6190,1.8722,0.7837,-0.0003,-0.0001,0.0000,1.0000,0.2405,0.0468,0.0196
8410,Left,0,0.1839,-0.0501,-0.8082,-0.5573,0.0128,0.0057,0.0037,0.0227,0.0411,-0.0905,-3.4028,-1.2420,9.0223,0.0002,0.0001,0.0000,1.0000,-0.0851,-0.0311,0.2256
8410,Right,0,0.1534,-0.1649,-0.8049,-0.5490,0.0006,0.0043,0.0067,-0.0020,0.0244,-0.0222,-4.1688,0.9429,8.8082,0.0000,0.0001,0.0001,1.0000,-0.1042,0.0236,0.2202
8411,Pelvis,0,0.5296,-0.4276,0.4705,0.5615,-0.0302,-0.0164,0.0032,-0.0120,-0.0795,0.0069,9.6005,1.9021,0.8014,-0.0004,-0.0002,0.0000,1.0000,0.2400,0.0476,0.0201
8411,Left,0,0.1838,-0.0503,-0.8082,-0.5572,0.0128,0.0059,0.0046,0.0403,0.0381,-0.0749,-3.4170,-1.2566,9.0317,0.0002,0.0001,0.0001,1.0000,-0.0854,-0.0315,0.2258
8411,Right,0,0.1534,-0.1649,-0.8049,-0.5490,0.0022,0.0038,0.0061,0.0090,0.0363,-0.0210,-4.1629,0.9296,8.8139,0.0000,0.0000,0.0001,1.0000,-0.1041,0.0232,0.2204
8412,Pelvis,0,0.5293,-0.4278,0.4703,0.5618,-0.0365,-0.0130,0.0010,0.0289,-0.0475,0.0306,9.6343,1.8647,0.7727,-0.0005,-0.0002,0.0000,1.0000,0.2409,0.0466,0.0193
8412,Left,0,0.1838,-0.0504,-0.8082,-0.5572,0.0138,0.0055,0.0050,0.0277,0.0360,-0.0676,-3.4182,-1.2430,9.0410,0.0002,0.0001,0.0001,1.0000,-0.0854,-0.0311,0.2260
8412,Right,0,0.1534,-0.1649,-0.8050,-0.5489,-0.0004,0.0059,0.0064,-0.0078,0.0354,-0.0304,-4.1536,0.9455,8.8061,-0.0000,0.0001,0.0001,1.0000,-0.1038,0.0236,0.2202
8413,Pelvis,0,0.5290,-0.4281,0.4702,0.5620,-0.0343,-0.0060,0.0011,0.0980,-0.0274,0.0737,9.6915,1.8029,0.7581,-0.0004,-0.0001,0.0000,1.0000,0.2423,0.0451,0.0190
8413,Left,0,0.1838,-0.0505,-0.8082,-0.5572,0.0130,0.0054,0.0043,0.0288,0.0433,-0.0630,-3.4146,-1.2453,9.0470,0.0002,0.0001,0.0001,1.0000,-0.0853,-0.0312,0.2262
8413,Right,0,0.1534,-0.1650,-0.8050,-0.5489,-0.0008,0.0084,0.0053,-0.0183,0.0213,-0.0317,-4.1618,0.9602,8.7993,-0.0000,0.0001,0.0001,1.0000,-0.1040,0.0240,0.2200
8414,Pelvis,0,0.5287,-0.4282,0.4701,0.5622,-0.0346,0.0051,0.0033,0.0449,-0.0561,0.0421,9.6484,1.8475,0.7860,-0.0004,0.0001,0.0000,1.0000,0.2412,0.0462,0.0196
8414,Left,0,0.1837,-0.0505,-0.8082,-0.5572,0.0119,0.0049,0.0057,0.0321,0.0260,-0.0579,-3.4328,-1.2410,9.0463,0.0001,0.0001,0.0001,1.0000,-0.0858,-0.0311,0.2262
8414,Right,0,0.1534,-0.1650,-0.8050,-0.5488,0.0019,0.0098,0.0046,0.0097,0.0326,-0.0210,-4.1672,0.9316,8.8117,0.0000,0.0001,0.0001,1.0000,-0.1042,0.0233,0.2203
8415,Left,0,0.1837,-0.0506,-0.8082,-0.5572,0.0118,0.0046,0.0033,0.0312,0.0528,-0.0670,-3.4063,-1.2474,9.0457,0.0001,0.0001,0.0000,1.0000,-0.0851,-0.0312,0.2261
8415,Right,0,0.1535,-0.1650,-0.8050,-0.5487,-0.0002,0.0095,0.0045,-0.0031,0.0273,-0.0181,-4.1697,0.9460,8.8121,-0.0000,0.0001,0.0001,1.0000,-0.1042,0.0236,0.2203
8416,Pelvis,0,0.5280,-0.4286,0.4699,0.5627,-0.0355,0.0030,0.0016,0.0422,-0.0464,0.0007,9.6083,1.8386,0.7797,-0.0009,0.0001,0.0000,1.0000,0.4804,0.0920,0.0389
8416,Left,0,0.1836,-0.0507,-0.8082,-0.5572,0.0124,0.0036,0.0042,0.0508,0.0488,-0.0730,-3.4136,-1.2620,9.0344,0.0002,0.0000,0.0001,1.0000,-0.0853,-0.0316,0.2259
8416,Right,0,0.1536,-0.1650,-0.8051,-0.5487,-0.0008,0.0114,0.0035,0.0030,0.0309,-0.0495,-4.1562,0.9356,8.7847,-0.0000,0.0001,0.0000,1.0000,-0.1039,0.0234,0.2196
8417,Pelvis,0,0.5277,-0.4288,0.4699,0.5629,-0.0298,0.0004,0.0062,0.0687,-0.0485,-0.0213,9.5919,1.8047,0.7855,-0.0004,0.0000,0.0001,1.0000,0.2398,0.0451,0.0196
8417,Left,0,0.1836,-0.0508,-0.8082,-0.5572,0.0135,0.0002,0.0046,0.0430,0.0593,-0.0697,-3.4031,-1.2570,9.0427,0.0002,0.0000,0.0001,1.0000,-0.0851,-0.0315,0.2261
8417,Right,0,0.1537,-0.1651,-0.8051,-0.5486,-0.0014,0.0140,0.0045,-0.0029,0.0032,-0.0188,-4.1925,0.9538,8.7996,-0.0000,0.0002,0.0001,1.0000,-0.1048,0.0238,0.2200
8418,Pelvis,0,0.5274,-0.4290,0.4699,0.5630,-0.0299,-0.0014,0.0081,0.0696,-0.0437,0.0356,9.6485,1.8109,0.7884,-0.0004,-0.0000,0.0001,1.0000,0.2412,0.0453,0.0197
8418,Left,0,0.1835,-0.0508,-0.8082,-0.5572,0.0118,0.0016,0.0032,0.0484,0.0466,-0.0730,-3.4145,-1.2555,9.0350,0.0001,0.0000,0.0000,1.0000,-0.0854,-0.0314,0.2259
8418,Right,0,0.1538,-0.1651,-0.8051,-0.5486,-0.0033,0.0087,0.0047,0.0090,0.0290,-0.0209,-4.1765,0.9327,8.8072,-0.0000,0.0001,0.0001,1.0000,-0.1044,0.0233,0.2202
8419,Pelvis,0,0.5272,-0.4292,0.4698,0.5632,-0.0265,-0.0011,0.0026,0.0154,-0.0461,0.0397,9.6425,1.8621,0.7918,-0.0003,-0.0000,0.0000,1.0000,0.2411,0.0466,0.0198
8419,Left,0,0.1834,-0.0508,-0.8083,-0.5572,0.0137,0.0027,0.0043,0.0356,0.0392,-0.0788,-3.4141,-1.2392,9.0310,0.0002,0.0000,0.0001,1.0000,-0.0853,-0.0310,0.2258
8419,Right,0,0.1538,-0.1651,-0.8051,-0.5485,-0.0025,0.0074,0.0056,-0.0060,0.0315,-0.0141,-4.1724,0.9458,8.8153,-0.0000,0.0001,0.0001,1.0000,-0.1043,0.0236,0.2204
8420,Pelvis,0,0.5269,-0.4294,0.4697,0.5633,-0.0255,-0.0059,0.0025,0.0447,0.0151,-0.0315,9.5834,1.8173,0.7281,-0.0003,-0.0001,0.0000,1.0000,0.2396,0.0454,0.0182
8420,Left,0,0.1834,-0.0509,-0.8083,-0.5572,0.0129,0.0027,0.0036,0.0296,0.0535,-0.0840,-3.3980,-1.2369,9.0319,0.0002,0.0000,0.0000,1.0000,-0.0849,-0.0310,0.2258
8420,Right,0,0.1539,-0.1651,-0.8051,-0.5484,-0.0028,0.0106,0.0043,-0.0044,0.0316,-0.0379,-4.1642,0.9413,8.7932,-0.0000,0.0001,0.0001,1.0000,-0.1041,0.0235,0.2198
8421,Pelvis,0,0.5268,-0.4295,0.4697,0.5634,-0.0126,-0.0002,0.0021,0.1116,0.0228,0.0291,9.6560,1.7622,0.7277,-0.0002,-0.0000,0.0000,1.0000,0.2414,0.0441,0.0182
8421,Left,0,0.1833,-0.0509,-0.8083,-0.5572,0.0124,0.0024,0.0051,0.0374,0.0481,-0.0827,-3.4047,-1.2411,9.0302,0.0002,0.0000,0.0001,1.0000,-0.0851,-0.0311,0.2258
8421,Right,0,0.1540,-0.1650,-0.8052,-0.5483,-0.0027,0.0108,0.0029,0.0041,0.0204,-0.0134,-4.1879,0.9385,8.8095,-0.0000,0.0001,0.0000,1.0000,-0.1047,0.0235,0.2203
8422,Pelvis,0,0.5267,-0.4294,0.4698,0.5634,0.0029,0.0048,0.0044,0.1204,0.0314,0.0636,9.6922,1.7586,0.7237,0.0000,0.0001,0.0001,1.0000,0.2423,0.0440,0.0181
8422,Left,0,0.1833,-0.0509,-0.8083,-0.5572,0.0099,0.0027,0.0048,0.0348,0.0551,-0.0565,-3.4069,-1.2440,9.0572,0.0001,0.0000,0.0001,1.0000,-0.0852,-0.0311,0.2264
8422,Right,0,0.1541,-0.1650,-0.8052,-0.5483,-0.0008,0.0105,0.0031,0.0139,0.0200,-0.0325,-4.1851,0.9265,8.7908,-0.0000,0.0001,0.0000,1.0000,-0.1046,0.0232,0.2198
8423,Pelvis,0,0.5267,-0.4293,0.4701,0.5633,0.0179,0.0142,0.0063,0.0740,0.0507,0.0193,9.6418,1.7939,0.7029,0.0002,0.0002,0.0001,1.0000,0.2410,0.0449,0.0175
8423,Left,0,0.1833,-0.0509,-0.8083,-0.5572,0.0095,0.0014,0.0026,0.0403,0.0418,-0.0598,-3.4186,-1.2432,9.0493,0.0001,0.0000,0.0000,1.0000,-0.0855,-0.0311,0.2262
8423,Right,0,0.1542,-0.1650,-0.8053,-0.5482,-0.0033,0.0066,0.0069,0.0049,0.0313,-0.0168,-4.1802,0.9318,8.8101,-0.0000,0.0001,0.0001,1.0000,-0.1045,0.0233,0.2203
8424,Pelvis,0,0.5268,-0.4290,0.4704,0.5632,0.0307,0.0152,0.0036,0.0797,0.0966,-0.0284,9.5998,1.7779,0.6564,0.0004,0.0002,0.0000,1.0000,0.2400,0.0445,0.0164
8424,Left,0,0.1833,-0.0509,-0.8083,-0.5571,0.0087,0.0019,0.0037,0.0503,0.0457,-0.0540,-3.4201,-1.2540,9.0536,0.0001,0.0000,0.0000,1.0000,-0.0855,-0.0314,0.2263
8424,Right,0,0.1543,-0.1650,-0.8053,-0.5481,-0.0015,0.0050,0.0054,0.0123,0.0304,-0.0121,-4.1864,0.9244,8.8131,-0.0000,0.0001,0.0001,1.0000,-0.1046,0.0231,0.2203
8425,Pelvis,0,0.5271,-0.4286,0.4709,0.5628,0.0621,0.0103,0.0036,0.1686,0.1173,-0.0130,9.6333,1.6927,0.6398,0.0008,0.0001,0.0000,1.0000,0.2408,0.0423,0.0160
8425,Left,0,0.1833,-0.0510,-0.8083,-0.5572,0.0096,0.0045,0.0042,0.0464,0.0648,-0.0676,-3.3983,-1.2554,9.0470,0.0001,0.0001,0.0001,1.0000,-0.0849,-0.0314,0.2262
8425,Right,0,0.1544,-0.1650,-0.8053,-0.5481,-0.0017,0.0051,0.0075,-0.0033,0.0223,-0.0256,-4.1833,0.9402,8.7979,-0.0000,0.0001,0.0001,1.0000,-0.1046,0.0235,0.2200
8426,Pelvis,0,0.5274,-0.4280,0.4716,0.5623,0.0930,0.0221,0.0063,0.1876,0.0903,0.0680,9.7142,1.6882,0.6758,0.0012,0.0003,0.0001,1.0000,0.2429,0.0422,0.0169
8426,Left,0,0.1832,-0.0510,-0.8083,-0.5571,0.0064,0.0002,0.0032,0.0468,0.0545,-0.0939,-3.3974,-1.2475,9.0201,0.0001,0.0000,0.0000,1.0000,-0.0849,-0.0312,0.2255
8426,Right,0,0.1543,-0.1650,-0.8054,-0.5480,-0.0017,0.0053,0.0060,0.0091,0.0345,-0.0244,-4.1777,0.9263,8.8035,-0.0000,0.0001,0.0001,1.0000,-0.1044,0.0232,0.2201
8427,Pelvis,0,0.5280,-0.4272,0.4725,0.5616,0.1142,0.0259,0.0094,0.0333,0.0866,0.0579,9.6751,1.8362,0.6772,0.0014,0.0003,0.0001,1.0000,0.2419,0.0459,0.0169
8427,Left,0,0.1832,-0.0509,-0.8084,-0.5571,0.0051,0.0026,0.0031,0.0383,0.0685,-0.0774,-3.3875,-1.2471,9.0417,0.0001,0.0000,0.0000,1.0000,-0.0847,-0.0312,0.2260
8427,Right,0,0.1544,-0.1650,-0.8054,-0.5479,-0.0021,0.0049,0.0066,0.0131,0.0291,-0.0121,-4.1893,0.9253,8.8117,-0.0000,0.0001,0.0001,1.0000,-0.1047,0.0231,0.2203
8428,Pelvis,0,0.5286,-0.4264,0.4734,0.5610,0.1154,0.0346,0.0060,-0.0219,0.0773,-0.0081,9.5993,1.8775,0.6821,0.0014,0.0004,0.0001,1.0000,0.2400,0.0469,0.0170
8428,Left,0,0.1832,-0.0510,-0.8084,-0.5571,0.0059,0.0042,0.0038,0.0751,0.0545,-0.0724,-3.4125,-1.2753,9.0338,0.0001,0.0001,0.0000,1.0000,-0.0853,-0.0319,0.2258
8428,Right,0,0.1543,-0.1651,-0.8055,-0.5478,-0.0040,0.0032,0.0070,0.0065,0.0285,-0.0168,-4.1850,0.9328,8.8077,-0.0001,0.0000,0.0001,1.0000,-0.1046,0.0233,0.2202
8429,Pelvis,0,0.5291,-0.4255,0.4743,0.5604,0.1154,0.0334,0.0043,0.0019,0.0475,-0.0195,9.5902,1.8511,0.7148,0.0014,0.0004,0.0001,1.0000,0.2398,0.0463,0.0178
8429,Left,0,0.1832,-0.0509,-0.8085,-0.5570,0.0049,0.0031,0.0033,0.0343,0.0603,-0.0688,-3.3951,-1.2412,9.0488,0.0001,0.0000,0.0000,1.0000,-0.0849,-0.0310,0.2262
8429,Right,0,0.1543,-0.1650,-0.8056,-0.5477,-0.0034,0.0034,0.0058,0.0125,0.0445,-0.0278,-4.1682,0.9196,8.8050,-0.0000,0.0000,0.0001,1.0000,-0.1042,0.0230,0.2201
8430,Pelvis,0,0.5297,-0.4248,0.4751,0.5597,0.1113,0.0241,0.0027,-0.0313,0.0482,0.0136,9.6165,1.8895,0.7166,0.0014,0.0003,0.0000,1.0000,0.2404,0.0472,0.0179
8430,Left,0,0.1831,-0.0509,-0.8085,-0.5570,0.0068,0.0037,0.0027,0.0720,0.0662,-0.0992,-3.3909,-1.2731,9.0135,0.0001,0.0000,0.0000,1.0000,-0.0848,-0.0319,0.2253
8430,Right,0,0.1543,-0.1650,-0.8056,-0.5476,-0.0029,0.0043,0.0065,-0.0059,0.0314,-0.0338,-4.1704,0.9413,8.7949,-0.0000,0.0001,0.0001,1.0000,-0.1043,0.0235,0.2199
8431,Pelvis,0,0.5302,-0.4242,0.4758,0.5591,0.0914,0.0153,0.0001,-0.1304,-0.0240,-0.0024,9.5766,1.9831,0.7846,0.0011,0.0002,0.0000,1.0000,0.2394,0.0496,0.0196
8431,Left,0,0.1831,-0.0509,-0.8085,-0.5570,0.0085,0.0069,0.0057,0.0695,0.0404,-0.0770,-3.4207,-1.2644,9.0272,0.0001,0.0001,0.0001,1.0000,-0.0855,-0.0316,0.2257
8431,Right,0,0.1544,-0.1649,-0.8057,-0.5475,-0.0029,0.0041,0.0080,0.0215,0.0432,-0.0230,-4.1748,0.9122,8.8079,-0.0000,0.0001,0.0001,1.0000,-0.1044,0.0228,0.2202
8432,Pelvis,0,0.5306,-0.4238,0.4762,0.5587,0.0628,0.0085,0.0006,-0.1254,-0.0159,-0.0115,9.5693,1.9768,0.7746,0.0008,0.0001,0.0000,1.0000,0.2392,0.0494,0.0194
8432,Left,0,0.1831,-0.0509,-0.8085,-0.5569,0.0092,0.0055,0.0048,0.0570,0.0607,-0.0918,-3.3936,-1.2584,9.0223,0.0001,0.0001,0.0001,1.0000,-0.0848,-0.0315,0.2256
8432,Right,0,0.1544,-0.1649,-0.8058,-0.5474,-0.0009,0.0042,0.0053,0.0068,0.0239,-0.0168,-4.1877,0.9330,8.8064,-0.0000,0.0001,0.0001,1.0000,-0.1047,0.0233,0.2202
8433,Pelvis,0,0.5308,-0.4236,0.4765,0.5583,0.0413,0.0039,0.0018,-0.0718,-0.0145,0.0062,9.5971,1.9269,0.7744,0.0005,0.0000,0.0000,1.0000,0.2399,0.0482,0.0194
8433,Left,0,0.1832,-0.0509,-0.8085,-0.5569,0.0111,0.0061,0.0041,0.0701,0.0489,-0.0808,-3.4129,-1.2678,9.0256,0.0001,0.0001,0.0001,1.0000,-0.0853,-0.0317,0.2256
8433,Right,0,0.1544,-0.1649,-0.8058,-0.5474,0.0017,0.0019,0.0065,-0.0008,0.0367,-0.0250,-4.1714,0.9344,8.8050,0.0000,0.0000,0.0001,1.0000,-0.1043,0.0233,0.2201
8434,Pelvis,0,0.5311,-0.4234,0.4766,0.5581,0.0328,-0.0026,-0.0003,-0.0190,-0.0248,0.0415,9.6404,1.8837,0.7874,0.0004,-0.0000,-0.0000,1.0000,0.2410,0.0471,0.0197
8434,Left,0,0.1831,-0.0510,-0.8086,-0.5568,0.0124,0.0072,0.0076,0.0550,0.0693,-0.0740,-3.3924,-1.2612,9.0416,0.0002,0.0001,0.0001,1.0000,-0.0848,-0.0316,0.2260
8434,Right,0,0.1544,-0.1648,-0.8059,-0.5472,0.0003,0.0020,0.0080,0.0115,0.0395,-0.0277,-4.1712,0.9216,8.8033,0.0000,0.0000,0.0001,1.0000,-0.1043,0.0230,0.2201
8435,Pelvis,0,0.5312,-0.4233,0.4768,0.5579,0.0278,-0.0047,0.0014,0.0208,-0.0381,0.0556,9.6608,1.8466,0.8018,0.0003,-0.0001,0.0000,1.0000,0.2415,0.0462,0.0201
8435,Left,0,0.1832,-0.0510,-0.8086,-0.5568,0.0114,0.0074,0.0063,0.0677,0.0570,-0.0630,-3.4122,-1.2699,9.0448,0.0001,0.0001,0.0001,1.0000,-0.0853,-0.0318,0.2261
8435,Right,0,0.1544,-0.1648,-0.8060,-0.5472,0.0026,0.0021,0.0076,0.0113,0.0426,-0.0114,-4.1760,0.9209,8.8193,0.0000,0.0000,0.0001,1.0000,-0.1044,0.0230,0.2205
8436,Pelvis,0,0.5313,-0.4233,0.4769,0.5577,0.0209,-0.0063,0.0028,-0.0093,-0.0530,0.0004,9.6004,1.8644,0.8101,0.0003,-0.0001,0.0000,1.0000,0.2400,0.0466,0.0203
8436,Left,0,0.1831,-0.0510,-0.8087,-0.5567,0.0129,0.0072,0.0052,0.0788,0.0554,-0.0702,-3.4143,-1.2769,9.0353,0.0002,0.0001,0.0001,1.0000,-0.0853,-0.0320,0.2259
8436,Right,0,0.1543,-0.1649,-0.8060,-0.5471,0.0024,0.0023,0.0082,0.0133,0.0200,-0.0121,-4.1942,0.9297,8.8089,0.0000,0.0000,0.0001,1.0000,-0.1049,0.0232,0.2202
8437,Pelvis,0,0.5314,-0.4232,0.4770,0.5576,0.0175,-0.0061,0.0019,-0.0206,-0.0327,-0.0202,9.5800,1.8712,0.7859,0.0002,-0.0001,0.0000,1.0000,0.2395,0.0468,0.0197
8437,Left,0,0.1832,-0.0511,-0.8086,-0.5567,0.0115,0.0053,0.0044,0.0647,0.0446,-0.0892,-3.4140,-1.2578,9.0174,0.0001,0.0001,0.0001,1.0000,-0.0853,-0.0315,0.2254
8437,Right,0,0.1543,-0.1649,-0.8060,-0.5471,0.0019,-0.0004,0.0082,0.0054,0.0334,-0.0202,-4.1774,0.9317,8.8076,0.0000,-0.0000,0.0001,1.0000,-0.1044,0.0233,0.2202
8438,Pelvis,0,0.5315,-0.4232,0.4771,0.5575,0.0092,-0.0026,0.0051,-0.0311,-0.0074,0.0294,9.6290,1.8895,0.7615,0.0001,-0.0000,0.0001,1.0000,0.2407,0.0472,0.0191
8438,Left,0,0.1832,-0.0511,-0.8086,-0.5568,0.0118,0.0021,0.0050,0.0755,0.0618,-0.0656,-3.4118,-1.2764,9.0414,0.0001,0.0000,0.0001,1.0000,-0.0853,-0.0319,0.2260
8438,Right,0,0.1543,-0.1650,-0.8060,-0.5471,0.0023,-0.0000,0.0075,0.0079,0.0475,-0.0236,-4.1654,0.9261,8.8102,0.0000,-0.0000,0.0001,1.0000,-0.1041,0.0231,0.2203
8439,Pelvis,0,0.5316,-0.4232,0.4771,0.5574,0.0063,0.0024,0.0055,-0.0275,-0.0115,0.0378,9.6377,1.8874,0.7659,0.0001,0.0000,0.0001,1.0000,0.2409,0.0472,0.0191
8439,Left,0,0.1832,-0.0511,-0.8086,-0.5568,0.0120,0.0031,0.0047,0.0540,0.0656,-0.0680,-3.4005,-1.2585,9.0454,0.0001,0.0000,0.0001,1.0000,-0.0850,-0.0315,0.2261
8439,Right,0,0.1543,-0.1649,-0.8061,-0.5470,0.0019,0.0005,0.0086,0.0131,0.0544,-0.0148,-4.1643,0.9194,8.8213,0.0000,0.0000,0.0001,1.0000,-0.1041,0.0230,0.2205
8440,Pelvis,0,0.5315,-0.4232,0.4772,0.5574,0.0021,0.0041,0.0039,0.0187,-0.0340,0.0689,9.6750,1.8470,0.7929,0.0000,0.0001,0.0000,1.0000,0.2419,0.0462,0.0198
8440,Left,0,0.1833,-0.0511,-0.8085,-0.5568,0.0124,0.0036,0.0042,0.0531,0.0640,-0.0896,-3.3948,-1.2553,9.0246,0.0002,0.0000,0.0001,1.0000,-0.0849,-0.0314,0.2256
8440,Right,0,0.1543,-0.1649,-0.8061,-0.5470,0.0019,0.0015,0.0075,0.0014,0.0415,-0.0161,-4.1709,0.9349,8.8150,0.0000,0.0000,0.0001,1.0000,-0.1043,0.0234,0.2204
8441,Pelvis,0,0.5314,-0.4231,0.4773,0.5575,0.0042,0.0047,0.0028,0.0172,0.0059,0.0084,9.6188,1.8352,0.7518,0.0001,0.0001,0.0000,1.0000,0.2405,0.0459,0.0188
8441,Left,0,0.1833,-0.0510,-0.8086,-0.5567,0.0117,0.0066,0.0051,0.0715,0.0624,-0.0825,-3.4032,-1.2727,9.0269,0.0001,0.0001,0.0001,1.0000,-0.0851,-0.0319,0.2257
8441,Right,0,0.1543,-0.1649,-0.8062,-0.5469,0.0023,-0.0011,0.0086,0.0112,0.0403,-0.0352,-4.1658,0.9243,8.7973,0.0000,-0.0000,0.0001,1.0000,-0.1041,0.0231,0.2199
8442,Pelvis,0,0.5313,-0.4231,0.4773,0.5576,-0.0062,0.0060,0.0039,-0.0682,0.0026,-0.0113,9.5830,1.9164,0.7524,-0.0001,0.0001,0.0000,1.0000,0.2396,0.0479,0.0188
8442,Left,0,0.1833,-0.0511,-0.8087,-0.5567,0.0138,0.0088,0.0075,0.0637,0.0868,-0.1275,-3.3640,-1.2686,8.9939,0.0002,0.0001,0.0001,1.0000,-0.0841,-0.0318,0.2249
8442,Right,0,0.1542,-0.1649,-0.8063,-0.5468,0.0038,0.0012,0.0078,0.0063,0.0564,-0.0270,-4.1533,0.9247,8.8123,0.0000,0.0000,0.0001,1.0000,-0.1038,0.0231,0.2203
8443,Pelvis,0,0.5313,-0.4232,0.4772,0.5576,-0.0204,0.0004,0.0023,-0.0900,0.0000,-0.0271,9.5633,1.9347,0.7526,-0.0003,0.0000,0.0000,1.0000,0.2391,0.0484,0.0188
8443,Left,0,0.1833,-0.0512,-0.8086,-0.5567,0.0137,0.0078,0.0078,0.0635,0.0641,-0.0476,-3.4146,-1.2684,9.0607,0.0002,0.0001,0.0001,1.0000,-0.0853,-0.0318,0.2265
8443,Right,0,0.1543,-0.1649,-0.8062,-0.5468,0.0026,0.0042,0.0055,0.0027,0.0438,-0.0236,-4.1655,0.9329,8.8094,0.0000,0.0001,0.0001,1.0000,-0.1041,0.0233,0.2202
8444,Pelvis,0,0.5310,-0.4234,0.4770,0.5578,-0.0339,-0.0011,-0.0004,-0.0312,-0.0025,0.0209,9.6212,1.8849,0.7618,-0.0004,-0.0000,-0.0000,1.0000,0.2405,0.0471,0.0190
8444,Left,0,0.1835,-0.0513,-0.8086,-0.5567,0.0166,0.0077,0.0066,0.0661,0.0565,-0.0378,-3.4285,-1.2689,9.0659,0.0002,0.0001,0.0001,1.0000,-0.0857,-0.0318,0.2266
8444,Right,0,0.1544,-0.1650,-0.8061,-0.5469,0.0040,0.0046,0.0074,0.0019,0.0359,-0.0277,-4.1724,0.9349,8.8013,0.0000,0.0001,0.0001,1.0000,-0.1043,0.0234,0.2200
8445,Pelvis,0,0.5306,-0.4237,0.4768,0.5581,-0.0433,-0.0031,0.0002,-0.0430,0.0190,0.0221,9.6221,1.8937,0.7435,-0.0005,-0.0000,0.0000,1.0000,0.2406,0.0474,0.0186
8445,Left,0,0.1834,-0.0514,-0.8086,-0.5566,0.0160,0.0071,0.0056,0.0662,0.0697,-0.0862,-3.4003,-1.2658,9.0249,0.0002,0.0001,0.0001,1.0000,-0.0850,-0.0317,0.2256
8445,Right,0,0.1544,-0.1651,-0.8062,-0.5468,0.0057,0.0046,0.0082,0.0124,0.0486,-0.0264,-4.1667,0.9224,8.8069,0.0001,0.0001,0.0001,1.0000,-0.1042,0.0230,0.2202
8446,Pelvis,0,0.5305,-0.4241,0.4765,0.5583,-0.0448,-0.0108,0.0011,-0.0075,-0.0084,0.0101,9.6149,1.8571,0.7699,-0.0006,-0.0001,0.0000,1.0000,0.2404,0.0464,0.0193
8446,Left,0,0.1834,-0.0515,-0.8087,-0.5566,0.0166,0.0074,0.0056,0.0922,0.0577,-0.0824,-3.4202,-1.2839,9.0191,0.0002,0.0001,0.0001,1.0000,-0.0855,-0.0322,0.2255
8446,Right,0,0.1544,-0.1651,-0.8063,-0.5467,0.0049,0.0050,0.0070,-0.0065,0.0468,-0.0120,-4.1674,0.9438,8.8203,0.0001,0.0001,0.0001,1.0000,-0.1042,0.0236,0.2205
8447,Pelvis,0,0.5302,-0.4244,0.4761,0.5586,-0.0471,-0.0133,-0.0039,-0.0025,-0.0155,0.0271,9.6320,1.8547,0.7787,-0.0006,-0.0002,-0.0000,1.0000,0.2408,0.0464,0.0195
8447,Left,0,0.1835,-0.0515,-0.8086,-0.5567,0.0162,0.0079,0.0044,0.0699,0.0627,-0.0849,-3.4100,-1.2650,9.0228,0.0002,0.0001,0.0001,1.0000,-0.0852,-0.0317,0.2256
8447,Right,0,0.1544,-0.1652,-0.8062,-0.5467,0.0043,0.0059,0.0071,-0.0091,0.0435,-0.0284,-4.1639,0.9473,8.8034,0.0001,0.0001,0.0001,1.0000,-0.1041,0.0237,0.2201
8448,Pelvis,0,0.5301,-0.4247,0.4757,0.5588,-0.0421,-0.0155,0.0016,0.0042,-0.0081,-0.0038,9.6036,1.8439,0.7661,-0.0005,-0.0002,0.0000,1.0000,0.2401,0.0461,0.0192
8448,Left,0,0.1834,-0.0515,-0.8087,-0.5565,0.0173,0.0065,0.0066,0.0509,0.0728,-0.0827,-3.3947,-1.2515,9.0327,0.0002,0.0001,0.0001,1.0000,-0.0848,-0.0313,0.2258
8448,Right,0,0.1544,-0.1652,-0.8063,-0.5465,0.0040,0.0040,0.0055,0.0137,0.0586,-0.0298,-4.1578,0.9209,8.8076,0.0000,0.0000,0.0001,1.0000,-0.1039,0.0230,0.2202
8449,Pelvis,0,0.5300,-0.4251,0.4754,0.5589,-0.0355,-0.0140,0.0010,0.0239,-0.0049,0.0036,9.6152,1.8245,0.7607,-0.0004,-0.0002,0.0000,1.0000,0.2404,0.0456,0.0190
8449,Left,0,0.1833,-0.0515,-0.8087,-0.5565,0.0148,0.0048,0.0045,0.0640,0.0637,-0.0585,-3.4149,-1.2622,9.0497,0.0002,0.0001,0.0001,1.0000,-0.0854,-0.0316,0.2262
8449,Right,0,0.1544,-0.1652,-0.8064,-0.5465,0.0006,0.0071,0.0064,0.0059,0.0265,-0.0155,-4.1879,0.9420,8.8068,0.0000,0.0001,0.0001,1.0000,-0.1047,0.0235,0.2202
8450,Pelvis,0,0.5299,-0.4254,0.4752,0.5589,-0.0253,-0.0173,0.0025,0.0420,0.0239,0.0115,9.6292,1.8062,0.7309,-0.0003,-0.0002,0.0000,1.0000,0.2407,0.0452,0.0183
8450,Left,0,0.1832,-0.0514,-0.8088,-0.5564,0.0144,0.0043,0.0050,0.0561,0.0676,-0.0682,-3.4042,-1.2540,9.0444,0.0002,0.0001,0.0001,1.0000,-0.0851,-0.0314,0.2261
8450,Right,0,0.1544,-0.1652,-0.8065,-0.5463,0.0018,0.0032,0.0083,0.0126,0.0331,-0.0067,-4.1879,0.9349,8.8174,0.0000,0.0000,0.0001,1.0000,-0.1047,0.0234,0.2204
8451,Pelvis,0,0.5297,-0.4257,0.4752,0.5589,-0.0153,-0.0137,0.0062,0.0370,0.0088,0.0157,9.6320,1.8081,0.7445,-0.0002,-0.0002,0.0001,1.0000,0.2408,0.0452,0.0186
8451,Left,0,0.1832,-0.0516,-0.8088,-0.5564,0.0149,0.0021,0.0053,0.0643,0.0637,-0.0670,-3.4111,-1.2576,9.0427,0.0002,0.0000,0.0001,1.0000,-0.0853,-0.0315,0.2261
8451,Right,0,0.1542,-0.1653,-0.8066,-0.5462,0.0015,0.0011,0.0082,0.0129,0.0291,-0.0230,-4.1836,0.9379,8.8010,0.0000,0.0000,0.0001,1.0000,-0.1046,0.0234,0.2200
8452,Pelvis,0,0.5297,-0.4258,0.4751,0.5589,-0.0066,-0.0163,0.0065,-0.0091,0.0129,-0.0026,9.6062,1.8484,0.7366,-0.0001,-0.0002,0.0001,1.0000,0.2401,0.0462,0.0185
8452,Left,0,0.1831,-0.0514,-0.8089,-0.5563,0.0150,0.0000,0.0035,0.0474,0.0458,-0.0775,-3.4154,-1.2351,9.0326,0.0002,0.0000,0.0000,1.0000,-0.0854,-0.0309,0.2258
8452,Right,0,0.1541,-0.1652,-0.8067,-0.5461,0.0017,-0.0012,0.0098,0.0153,0.0406,-0.0264,-4.1717,0.9324,8.8035,0.0000,-0.0000,0.0001,1.0000,-0.1043,0.0233,0.2201
8453,Pelvis,0,0.5298,-0.4261,0.4750,0.5587,-0.0054,-0.0216,0.0055,-0.0445,-0.0229,0.0257,9.6252,1.8874,0.7678,-0.0001,-0.0003,0.0001,1.0000,0.2406,0.0472,0.0193
8453,Left,0,0.1831,-0.0515,-0.8089,-0.5564,0.0125,-0.0027,0.0032,0.0888,0.0584,-0.0584,-3.4245,-1.2784,9.0441,0.0002,-0.0000,0.0000,1.0000,-0.0856,-0.0320,0.2261
8453,Right,0,0.1541,-0.1654,-0.8066,-0.5462,0.0019,-0.0025,0.0103,0.0156,0.0425,-0.0264,-4.1710,0.9338,8.8037,0.0000,-0.0000,0.0001,1.0000,-0.1043,0.0233,0.2201
8454,Pelvis,0,0.5298,-0.4263,0.4748,0.5587,-0.0093,-0.0205,0.0029,-0.0495,-0.0134,0.0087,9.6089,1.8881,0.7535,-0.0001,-0.0003,0.0000,1.0000,0.2402,0.0472,0.0189
8454,Left,0,0.1829,-0.0514,-0.8089,-0.5564,0.0151,-0.0065,0.0016,0.0608,0.0415,-0.0618,-3.4272,-1.2461,9.0436,0.0002,-0.0001,0.0000,1.0000,-0.0857,-0.0312,0.2261
8454,Right,0,0.1540,-0.1653,-0.8067,-0.5461,-0.0022,-0.0062,0.0097,0.0260,0.0550,-0.0251,-4.1633,0.9205,8.8103,-0.0000,-0.0001,0.0001,1.0000,-0.1041,0.0230,0.2202
8455,Pelvis,0,0.5299,-0.4265,0.4745,0.5587,-0.0159,-0.0279,0.0039,-0.0440,0.0200,-0.0215,9.5830,1.8779,0.7134,-0.0002,-0.0003,0.0000,1.0000,0.2396,0.0470,0.0179
8455,Left,0,0.1827,-0.0513,-0.8089,-0.5564,0.0163,-0.0132,0.0010,0.0773,0.0653,-0.0550,-3.4103,-1.2697,9.0544,0.0002,-0.0002,0.0000,1.0000,-0.0853,-0.0318,0.2263
8455,Right,0,0.1539,-0.1653,-0.8067,-0.5461,0.0015,-0.0064,0.0094,0.0025,0.0375,-0.0236,-4.1686,0.9495,8.8062,0.0000,-0.0001,0.0001,1.0000,-0.1042,0.0237,0.2201
8456,Pelvis,0,0.5298,-0.4268,0.4742,0.5588,-0.0223,-0.0255,0.0036,-0.0367,0.0564,0.0051,9.6135,1.8758,0.6746,-0.0003,-0.0003,0.0000,1.0000,0.2403,0.0469,0.0169
8456,Left,0,0.1826,-0.0512,-0.8089,-0.5565,0.0163,-0.0093,-0.0008,0.0729,0.0867,-0.0770,-3.3793,-1.2728,9.0420,0.0002,-0.0001,-0.0000,1.0000,-0.0845,-0.0319,0.2260
8456,Right,0,0.1539,-0.1653,-0.8068,-0.5460,0.0005,-0.0022,0.0103,0.0141,0.0512,-0.0461,-4.1508,0.9319,8.7916,0.0000,-0.0000,0.0001,1.0000,-0.1038,0.0233,0.2198
8457,Pelvis,0,0.5298,-0.4271,0.4739,0.5588,-0.0314,-0.0222,0.0029,-0.0570,0.0603,0.0595,9.6638,1.9056,0.6680,-0.0004,-0.0003,0.0000,1.0000,0.2416,0.0477,0.0167
8457,Left,0,0.1825,-0.0512,-0.8089,-0.5565,0.0194,-0.0000,0.0022,0.0626,0.1019,-0.1265,-3.3421,-1.2627,9.0040,0.0002,-0.0000,0.0000,1.0000,-0.0836,-0.0316,0.2251
8457,Right,0,0.1538,-0.1653,-0.8068,-0.5459,0.0044,0.0014,0.0066,0.0076,0.0538,-0.0345,-4.1499,0.9390,8.8041,0.0001,0.0000,0.0001,1.0000,-0.1037,0.0235,0.2201
8458,Pelvis,0,0.5298,-0.4274,0.4735,0.5590,-0.0342,-0.0178,-0.0005,-0.0309,0.0530,0.0487,9.6577,1.8786,0.6710,-0.0004,-0.0002,-0.0000,1.0000,0.2414,0.0470,0.0168
8458,Left,0,0.1825,-0.0512,-0.8089,-0.5566,0.0155,0.0006,0.0045,0.0517,0.0649,-0.0790,-3.3881,-1.2429,9.0403,0.0002,0.0000,0.0001,1.0000,-0.0847,-0.0311,0.2260
8458,Right,0,0.1538,-0.1654,-0.8068,-0.5459,-0.0001,0.0035,0.0080,0.0186,0.0459,-0.0339,-4.1616,0.9334,8.7999,-0.0000,0.0000,0.0001,1.0000,-0.1040,0.0233,0.2200
8459,Pelvis,0,0.5296,-0.4276,0.4733,0.5591,-0.0296,-0.0085,0.0008,0.0634,-0.0020,0.0490,9.6716,1.7861,0.7265,-0.0004,-0.0001,0.0000,1.0000,0.2418,0.0447,0.0182
8459,Left,0,0.1825,-0.0511,-0.8089,-0.5565,0.0136,0.0018,0.0061,0.0573,0.0661,-0.0730,-3.3896,-1.2522,9.0449,0.0002,0.0000,0.0001,1.0000,-0.0847,-0.0314,0.2261
8459,Right,0,0.1540,-0.1653,-0.8069,-0.5458,0.0028,0.0064,0.0076,-0.0124,0.0533,-0.0439,-4.1408,0.9563,8.7960,0.0000,0.0001,0.0001,1.0000,-0.1035,0.0239,0.2199
8460,Pelvis,0,0.5295,-0.4277,0.4733,0.5592,-0.0102,-0.0022,0.0003,0.0841,-0.0165,0.0690,9.6939,1.7696,0.7435,-0.0001,-0.0000,0.0000,1.0000,0.2423,0.0442,0.0186
8460,Left,0,0.1826,-0.0509,-0.8090,-0.5565,0.0121,0.0056,0.0045,0.0509,0.0825,-0.0865,-3.3680,-1.2529,9.0385,0.0002,0.0001,0.0001,1.0000,-0.0842,-0.0314,0.2260
8460,Right,0,0.1541,-0.1653,-0.8069,-0.5458,0.0002,0.0088,0.0049,-0.0035,0.0567,-0.0229,-4.1521,0.9480,8.8150,0.0000,0.0001,0.0001,1.0000,-0.1038,0.0237,0.2204
8461,Pelvis,0,0.5295,-0.4277,0.4734,0.5591,0.0091,-0.0004,0.0005,0.0961,0.0136,0.0117,9.6426,1.7449,0.7093,0.0001,-0.0000,0.0000,1.0000,0.2411,0.0436,0.0177
8461,Left,0,0.1825,-0.0509,-0.8091,-0.5563,0.0118,0.0052,0.0065,0.0690,0.0727,-0.0839,-3.3815,-1.2646,9.0347,0.0001,0.0001,0.0001,1.0000,-0.0845,-0.0317,0.2259
8461,Right,0,0.1542,-0.1653,-0.8069,-0.5456,-0.0022,0.0145,0.0033,0.0015,0.0506,-0.0107,-4.1653,0.9471,8.8224,-0.0000,0.0002,0.0000,1.0000,-0.1041,0.0237,0.2206
8462,Pelvis,0,0.5296,-0.4275,0.4736,0.5589,0.0275,0.0080,0.0068,0.0524,0.0552,0.0115,9.6376,1.7866,0.6668,0.0003,0.0001,0.0001,1.0000,0.2409,0.0447,0.0167
8462,Left,0,0.1826,-0.0509,-0.8091,-0.5563,0.0093,0.0067,0.0054,0.0482,0.0620,-0.0598,-3.3944,-1.2456,9.0583,0.0001,0.0001,0.0001,1.0000,-0.0848,-0.0312,0.2265
8462,Right,0,0.1545,-0.1653,-0.8069,-0.5456,-0.0062,0.0115,0.0046,0.0122,0.0554,-0.0134,-4.1677,0.9328,8.8198,-0.0001,0.0001,0.0001,1.0000,-0.1042,0.0233,0.2205
8463,Pelvis,0,0.5299,-0.4271,0.4740,0.5587,0.0449,0.0164,0.0086,0.0659,0.1062,0.0774,9.7083,1.7860,0.6226,0.0006,0.0002,0.0001,1.0000,0.2427,0.0447,0.0155
8463,Left,0,0.1828,-0.0510,-0.8089,-0.5564,0.0087,0.0049,0.0053,0.0635,0.0525,-0.0703,-3.4072,-1.2552,9.0408,0.0001,0.0001,0.0001,1.0000,-0.0852,-0.0314,0.2260
8463,Right,0,0.1546,-0.1655,-0.8067,-0.5458,-0.0062,0.0115,0.0046,0.0038,0.0489,0.0016,-4.1812,0.9445,8.8288,-0.0001,0.0001,0.0001,1.0000,-0.1045,0.0236,0.2207
8464,Pelvis,0,0.5302,-0.4266,0.4746,0.5583,0.0709,0.0315,0.0103,0.1262,0.1332,0.0383,9.6834,1.7180,0.5966,0.0009,0.0004,0.0001,1.0000,0.2421,0.0430,0.0149
8464,Left,0,0.1826,-0.0509,-0.8092,-0.5562,0.0073,0.0049,0.0054,0.0591,0.0669,-0.0622,-3.3924,-1.2568,9.0550,0.0001,0.0001,0.0001,1.0000,-0.0848,-0.0314,0.2264
8464,Right,0,0.1546,-0.1654,-0.8069,-0.5456,-0.0057,0.0048,0.0021,0.0169,0.0590,0.0029,-4.1764,0.9292,8.8342,-0.0001,0.0001,0.0000,1.0000,-0.1044,0.0232,0.2209
8465,Pelvis,0,0.5307,-0.4257,0.4755,0.5577,0.1163,0.0333,0.0158,0.1621,0.1442,-0.0124,9.6412,1.6723,0.5867,0.0015,0.0004,0.0002,1.0000,0.2410,0.0418,0.0146
8465,Left,0,0.1825,-0.0509,-0.8092,-0.5561,0.0033,0.0000,0.0019,0.0489,0.0607,-0.0682,-3.3920,-1.2422,9.0506,0.0000,0.0000,0.0000,1.0000,-0.0848,-0.0311,0.2263
8465,Right,0,0.1545,-0.1655,-0.8069,-0.5456,-0.0091,0.0041,0.0044,0.0363,0.0465,-0.0081,-4.1892,0.9153,8.8174,-0.0001,0.0001,0.0001,1.0000,-0.1047,0.0229,0.2204
8466,Pelvis,0,0.5314,-0.4247,0.4767,0.5567,0.1537,0.0287,0.0189,0.1046,0.1476,-0.0386,9.6053,1.7218,0.5830,0.0019,0.0004,0.0002,1.0000,0.2401,0.0431,0.0146
8466,Left,0,0.1825,-0.0509,-0.8092,-0.5561,0.0049,-0.0014,0.0033,0.0645,0.0735,-0.0791,-3.3814,-1.2599,9.0405,0.0001,-0.0000,0.0000,1.0000,-0.0845,-0.0315,0.2260
8466,Right,0,0.1545,-0.1655,-0.8068,-0.5457,-0.0077,0.0009,0.0062,0.0316,0.0612,-0.0162,-4.1728,0.9146,8.8163,-0.0001,0.0000,0.0001,1.0000,-0.1043,0.0229,0.2204
8467,Pelvis,0,0.5325,-0.4237,0.4779,0.5555,0.1780,0.0224,0.0240,-0.0087,0.1762,-0.0335,9.5922,1.8313,0.5483,0.0022,0.0003,0.0003,1.0000,0.2398,0.0458,0.0137
8467,Left,0,0.1825,-0.0507,-0.8092,-0.5561,0.0021,-0.0024,0.0008,0.0564,0.0547,-0.0885,-3.3910,-1.2477,9.0283,0.0000,-0.0000,0.0000,1.0000,-0.0848,-0.0312,0.2257
8467,Right,0,0.1546,-0.1654,-0.8069,-0.5456,-0.0053,-0.0020,0.0075,0.0166,0.0562,-0.0134,-4.1729,0.9276,8.8179,-0.0001,-0.0000,0.0001,1.0000,-0.1043,0.0232,0.2204
8468,Pelvis,2,0.5336,-0.4226,0.4791,0.5543,0.1816,0.0199,0.0207,-0.0958,0.1412,0.0340,9.6401,1.9282,0.5804,0.0023,0.0002,0.0003,1.0000,0.2410,0.0482,0.0146
8468,Left,2,0.1826,-0.0506,-0.8092,-0.5562,0.0028,0.0010,0.0025,0.0595,0.0781,-0.0743,-3.3759,-1.2639,9.0471,0.0000,0.0000,0.0000,1.0000,-0.0844,-0.0316,0.2262
8468,Right,2,0.1546,-0.1654,-0.8069,-0.5456,-0.0061,-0.0043,0.0066,0.0146,0.0529,-0.0298,-4.1674,0.9289,8.8022,-0.0001,-0.0001,0.0001,1.0000,-0.1042,0.0232,0.2200
8469,Pelvis,2,0.5347,-0.4218,0.4800,0.5529,0.1690,0.0011,0.0136,-0.1577,0.0426,0.0411,9.6289,1.9905,0.6670,0.0021,0.0000,0.0002,1.0000,0.2407,0.0498,0.0168
8469,Left,2,0.1827,-0.0504,-0.8092,-0.5561,0.0027,0.0060,0.0043,0.0798,0.0811,-0.0755,-3.3782,-1.2864,9.0421,0.0000,0.0001,0.0001,1.0000,-0.0844,-0.0322,0.2261
8469,Right,2,0.1545,-0.1653,-0.8070,-0.5455,-0.0067,-0.0015,0.0060,-0.0038,0.0608,-0.0351,-4.1501,0.9424,8.8030,-0.0001,-0.0000,0.0001,1.0000,-0.1038,0.0236,0.2201
8470,Pelvis,2,0.5358,-0.4211,0.4807,0.5519,0.1336,-0.0081,0.0040,-0.2299,-0.0579,0.0052,9.5730,2.0591,0.7508,0.0017,-0.0001,0.0001,1.0000,0.2393,0.0515,0.0189
8470,Left,2,0.1829,-0.0505,-0.8091,-0.5562,0.0067,0.0121,0.0070,0.0689,0.0844,-0.0983,-3.3677,-1.2776,9.0226,0.0001,0.0002,0.0001,1.0000,-0.0842,-0.0320,0.2256
8470,Right,2,0.1547,-0.1652,-0.8069,-0.5456,-0.0069,-0.0013,0.0066,0.0278,0.0619,-0.0162,-4.1704,0.9118,8.8177,-0.0001,-0.0000,0.0001,1.0000,-0.1043,0.0228,0.2204
8471,Pelvis,2,0.5365,-0.4208,0.4809,0.5512,0.0780,-0.0186,-0.0073,-0.3507,-0.0896,-0.0171,9.5275,2.1746,0.7637,0.0010,-0.0002,-0.0001,1.0000,0.2382,0.0543,0.0192
8471,Left,2,0.1832,-0.0504,-0.8091,-0.5562,0.0108,0.0147,0.0078,0.0755,0.0668,-0.0787,-3.3947,-1.2840,9.0325,0.0001,0.0002,0.0001,1.0000,-0.0848,-0.0321,0.2258
8471,Right,2,0.1548,-0.1650,-0.8070,-0.5455,-0.0049,-0.0031,0.0046,0.0267,0.0740,-0.0196,-4.1580,0.9042,8.8207,-0.0001,-0.0000,0.0001,1.0000,-0.1040,0.0226,0.2205
8472,Pelvis,2,0.5369,-0.4208,0.4806,0.5511,0.0117,-0.0282,-0.0195,-0.3052,-0.1492,0.0308,9.5776,2.1463,0.8201,0.0001,-0.0004,-0.0002,1.0000,0.2394,0.0536,0.0206
8472,Left,2,0.1833,-0.0502,-0.8092,-0.5560,0.0139,0.0143,0.0072,0.0635,0.0766,-0.0621,-3.3880,-1.2816,9.0533,0.0002,0.0002,0.0001,1.0000,-0.0847,-0.0321,0.2263
8472,Right,2,0.1548,-0.1648,-0.8072,-0.5453,-0.0004,-0.0040,0.0069,0.0030,0.0672,-0.0215,-4.1523,0.9254,8.8189,-0.0000,-0.0000,0.0001,1.0000,-0.1038,0.0231,0.2205
8473,Pelvis,2,0.5368,-0.4212,0.4799,0.5515,-0.0533,-0.0375,-0.0230,-0.2025,-0.1951,0.0438,9.6050,2.0551,0.8664,-0.0007,-0.0005,-0.0003,1.0000,0.2401,0.0513,0.0217
8473,Left,2,0.1835,-0.0502,-0.8092,-0.5559,0.0194,0.0127,0.0072,0.0643,0.0530,-0.0918,-3.4007,-1.2735,9.0176,0.0002,0.0002,0.0001,1.0000,-0.0850,-0.0319,0.2254
8473,Right,2,0.1549,-0.1647,-0.8072,-0.5453,0.0029,-0.0037,0.0076,0.0293,0.0704,-0.0148,-4.1613,0.8978,8.8250,0.0000,-0.0000,0.0001,1.0000,-0.1040,0.0224,0.2206
8474,Pelvis,2,0.5364,-0.4221,0.4789,0.5521,-0.1092,-0.0512,-0.0209,-0.1683,-0.1871,-0.0201,9.5494,2.0111,0.8499,-0.0014,-0.0006,-0.0003,1.0000,0.2387,0.0502,0.0213
8474,Left,2,0.1833,-0.0502,-0.8093,-0.5558,0.0232,0.0093,0.0057,0.0650,0.0564,-0.0870,-3.3984,-1.2738,9.0236,0.0003,0.0001,0.0001,1.0000,-0.0849,-0.0319,0.2256
8474,Right,2,0.1546,-0.1647,-0.8074,-0.5451,0.0089,-0.0090,0.0123,0.0181,0.0638,-0.0121,-4.1601,0.9138,8.8270,0.0001,-0.0001,0.0002,1.0000,-0.1040,0.0228,0.2207
8475,Pelvis,2,0.5358,-0.4233,0.4775,0.5529,-0.1606,-0.0564,-0.0178,-0.1184,-0.1538,-0.0188,9.5625,1.9645,0.8119,-0.0020,-0.0007,-0.0002,1.0000,0.2391,0.0491,0.0204
8475,Left,2,0.1834,-0.0503,-0.8093,-0.5558,0.0228,0.0073,0.0063,0.0614,0.0351,-0.0735,-3.4231,-1.2640,9.0300,0.0003,0.0001,0.0001,1.0000,-0.0856,-0.0317,0.2257
8475,Right,2,0.1545,-0.1647,-0.8074,-0.5450,0.0121,-0.0083,0.0121,0.0148,0.0607,-0.0522,-4.1431,0.9147,8.7903,0.0002,-0.0001,0.0002,1.0000,-0.1036,0.0228,0.2197
8476,Pelvis,2,0.5349,-0.4246,0.4760,0.5541,-0.1944,-0.0468,-0.0141,0.0048,-0.1022,0.0693,9.6755,1.8599,0.7676,-0.0024,-0.0006,-0.0002,1.0000,0.2419,0.0465,0.0192
8476,Left,2,0.1833,-0.0503,-0.8094,-0.5557,0.0235,0.0031,0.0063,0.0484,0.0542,-0.0883,-3.3958,-1.2549,9.0257,0.0003,0.0000,0.0001,1.0000,-0.0849,-0.0314,0.2256
8476,Right,2,0.1543,-0.1647,-0.8075,-0.5449,0.0142,-0.0043,0.0124,-0.0131,0.0811,-0.0419,-4.1182,0.9382,8.8111,0.0002,-0.0001,0.0002,1.0000,-0.1030,0.0234,0.2203
8477,Pelvis,2,0.5338,-0.4259,0.4747,0.5552,-0.1919,-0.0334,-0.0111,0.1206,-0.0634,0.1313,9.7609,1.7566,0.7352,-0.0024,-0.0004,-0.0001,1.0000,0.2440,0.0439,0.0184
8477,Left,2,0.1832,-0.0504,-0.8094,-0.5557,0.0237,0.0059,0.0070,0.0601,0.0734,-0.0727,-3.3882,-1.2733,9.0430,0.0003,0.0001,0.0001,1.0000,-0.0847,-0.0319,0.2261
8477,Right,2,0.1543,-0.1649,-0.8076,-0.5448,0.0133,0.0025,0.0110,-0.0062,0.0712,-0.0174,-4.1392,0.9401,8.8281,0.0002,0.0000,0.0001,1.0000,-0.1035,0.0235,0.2207
8478,Pelvis,2,0.5329,-0.4270,0.4736,0.5563,-0.1626,-0.0231,-0.0080,0.1872,-0.0428,0.1091,9.7529,1.6870,0.7169,-0.0020,-0.0003,-0.0001,1.0000,0.2438,0.0422,0.0179
8478,Left,2,0.1832,-0.0504,-0.8094,-0.5556,0.0218,0.0065,0.0067,0.0262,0.0479,-0.0595,-3.4050,-1.2327,9.0562,0.0003,0.0001,0.0001,1.0000,-0.0851,-0.0309,0.2264
8478,Right,2,0.1542,-0.1650,-0.8076,-0.5448,0.0112,0.0022,0.0109,0.0104,0.0800,-0.0276,-4.1336,0.9239,8.8212,0.0001,0.0000,0.0001,1.0000,-0.1033,0.0231,0.2205
8479,Pelvis,2,0.5321,-0.4279,0.4727,0.5571,-0.1362,-0.0185,-0.0006,0.1374,-0.0426,0.0123,9.6488,1.7166,0.7102,-0.0017,-0.0002,-0.0000,1.0000,0.2412,0.0429,0.0177
8479,Left,2,0.1832,-0.0503,-0.8095,-0.5555,0.0199,0.0072,0.0065,0.0400,0.0480,-0.0966,-3.3945,-1.2410,9.0191,0.0002,0.0001,0.0001,1.0000,-0.0848,-0.0311,0.2255
8479,Right,2,0.1542,-0.1650,-0.8078,-0.5445,0.0098,0.0027,0.0093,-0.0096,0.0771,-0.0133,-4.1336,0.9467,8.8347,0.0001,0.0000,0.0001,1.0000,-0.1033,0.0236,0.2209
8480,Pelvis,2,0.5314,-0.4287,0.4721,0.5577,-0.1094,-0.0157,0.0019,0.0875,-0.0004,-0.0531,9.5791,1.7491,0.6627,-0.0014,-0.0002,0.0000,1.0000,0.2395,0.0438,0.0166
8480,Left,2,0.1831,-0.0504,-0.8096,-0.5555,0.0181,0.0045,0.0054,0.0333,0.0420,-0.0665,-3.4085,-1.2329,9.0472,0.0002,0.0001,0.0001,1.0000,-0.0852,-0.0309,0.2262
8480,Right,2,0.1541,-0.1651,-0.8078,-0.5445,0.0065,0.0031,0.0105,0.0156,0.0607,-0.0358,-4.1466,0.9313,8.8051,0.0001,0.0000,0.0001,1.0000,-0.1037,0.0233,0.2201
8481,Pelvis,2,0.5309,-0.4293,0.4715,0.5581,-0.0848,-0.0173,0.0063,0.0962,0.0284,-0.0531,9.5830,1.7389,0.6349,-0.0011,-0.0002,0.0001,1.0000,0.2396,0.0435,0.0159
8481,Left,2,0.1830,-0.0503,-0.8097,-0.5554,0.0178,-0.0011,0.0041,0.0435,0.0424,-0.0820,-3.4035,-1.2418,9.0313,0.0002,-0.0000,0.0001,1.0000,-0.0851,-0.0311,0.2258
8481,Right,2,0.1540,-0.1651,-0.8079,-0.5443,0.0046,-0.0011,0.0097,0.0133,0.0576,-0.0120,-4.1567,0.9382,8.8260,0.0001,-0.0000,0.0001,1.0000,-0.1039,0.0234,0.2207
8482,Pelvis,2,0.5305,-0.4297,0.4711,0.5585,-0.0620,-0.0124,0.0086,0.0769,0.0779,0.0110,9.6458,1.7682,0.5893,-0.0008,-0.0002,0.0001,1.0000,0.2411,0.0442,0.0147
8482,Left,2,0.1829,-0.0503,-0.8096,-0.5555,0.0173,-0.0031,0.0031,0.0390,0.0452,-0.0688,-3.4040,-1.2402,9.0455,0.0002,-0.0000,0.0000,1.0000,-0.0851,-0.0311,0.2261
8482,Right,2,0.1539,-0.1651,-0.8079,-0.5443,0.0024,-0.0006,0.0099,0.0146,0.0586,-0.0358,-4.1461,0.9354,8.8048,0.0000,-0.0000,0.0001,1.0000,-0.1037,0.0234,0.2201
8483,Pelvis,2,0.5302,-0.4301,0.4709,0.5586,-0.0448,-0.0081,0.0162,0.0255,0.0782,0.0501,9.6751,1.8233,0.5905,-0.0006,-0.0001,0.0002,1.0000,0.2419,0.0456,0.0148
8483,Left,2,0.1828,-0.0504,-0.8096,-0.5555,0.0156,-0.0057,0.0035,0.0439,0.0536,-0.0857,-3.3915,-1.2421,9.0319,0.0002,-0.0001,0.0000,1.0000,-0.0848,-0.0311,0.2258
8483,Right,2,0.1538,-0.1653,-0.8079,-0.5444,0.0036,-0.0045,0.0118,0.0049,0.0595,-0.0168,-4.1502,0.9492,8.8226,0.0000,-0.0001,0.0001,1.0000,-0.1038,0.0237,0.2206
8484,Pelvis,2,0.5300,-0.4304,0.4708,0.5588,-0.0343,-0.0100,0.0149,-0.0388,0.0795,0.0596,9.6731,1.8851,0.5891,-0.0004,-0.0001,0.0002,1.0000,0.2418,0.0472,0.0147
8484,Left,2,0.1828,-0.0505,-0.8095,-0.5556,0.0144,-0.0021,0.0025,0.0550,0.0595,-0.1012,-3.3851,-1.2519,9.0163,0.0002,-0.0000,0.0000,1.0000,-0.0846,-0.0313,0.2254
8484,Right,2,0.1538,-0.1653,-0.8079,-0.5443,0.0009,-0.0057,0.0110,0.0036,0.0601,-0.0168,-4.1489,0.9509,8.8231,0.0000,-0.0001,0.0001,1.0000,-0.1037,0.0238,0.2206
8485,Pelvis,2,0.5297,-0.4308,0.4706,0.5588,-0.0341,-0.0157,0.0107,-0.0861,0.0582,0.0190,9.6239,1.9200,0.6053,-0.0004,-0.0002,0.0001,1.0000,0.2406,0.0480,0.0152
8485,Left,2,0.1829,-0.0505,-0.8095,-0.5557,0.0150,0.0016,0.0050,0.0378,0.0608,-0.0809,-3.3858,-1.2405,9.0394,0.0002,0.0000,0.0001,1.0000,-0.0846,-0.0311,0.2260
8485,Right,2,0.1538,-0.1652,-0.8079,-0.5443,-0.0004,-0.0052,0.0095,0.0165,0.0873,-0.0426,-4.1192,0.9261,8.8112,-0.0000,-0.0001,0.0001,1.0000,-0.1030,0.0231,0.2203
8486,Pelvis,2,0.5295,-0.4313,0.4703,0.5589,-0.0407,-0.0212,0.0098,-0.0791,0.0396,-0.0257,9.5808,1.9023,0.6182,-0.0005,-0.0003,0.0001,1.0000,0.2395,0.0476,0.0155
8486,Left,2,0.1827,-0.0504,-0.8096,-0.5555,0.0161,0.0024,0.0045,0.0553,0.0508,-0.0782,-3.3985,-1.2514,9.0361,0.0002,0.0000,0.0001,1.0000,-0.0850,-0.0313,0.2259
8486,Right,2,0.1537,-0.1651,-0.8081,-0.5441,-0.0007,-0.0011,0.0087,0.0030,0.0676,-0.0365,-4.1302,0.9476,8.8104,-0.0000,-0.0000,0.0001,1.0000,-0.1033,0.0237,0.2203
8487,Pelvis,2,0.5293,-0.4317,0.4699,0.5591,-0.0446,-0.0237,0.0072,-0.0564,0.0613,-0.0227,9.5902,1.8781,0.5944,-0.0006,-0.0003,0.0001,1.0000,0.2397,0.0470,0.0149
8487,Left,2,0.1828,-0.0505,-0.8095,-0.5557,0.0167,0.0014,0.0055,0.0448,0.0579,-0.0879,-3.3872,-1.2428,9.0310,0.0002,0.0000,0.0001,1.0000,-0.0847,-0.0311,0.2258
8487,Right,2,0.1536,-0.1653,-0.8080,-0.5442,0.0001,-0.0003,0.0073,0.0225,0.0600,-0.0311,-4.1465,0.9342,8.8101,0.0000,-0.0000,0.0001,1.0000,-0.1037,0.0233,0.2203
8488,Pelvis,2,0.5292,-0.4321,0.4696,0.5592,-0.0417,-0.0275,0.0070,-0.0160,0.1021,0.0409,9.6631,1.8496,0.5549,-0.0005,-0.0003,0.0001,1.0000,0.2416,0.0463,0.0139
8488,Left,2,0.1825,-0.0507,-0.8096,-0.5556,0.0158,-0.0008,0.0014,0.0290,0.0509,-0.0508,-3.3996,-1.2251,9.0686,0.0002,-0.0000,0.0000,1.0000,-0.0850,-0.0307,0.2267
8488,Right,2,0.1534,-0.1654,-0.8081,-0.5442,0.0013,0.0003,0.0098,0.0012,0.0819,-0.0446,-4.1128,0.9499,8.8094,0.0000,0.0000,0.0001,1.0000,-0.1028,0.0237,0.2202
8489,Pelvis,2,0.5290,-0.4325,0.4693,0.5593,-0.0342,-0.0243,0.0062,-0.0094,0.0713,0.0572,9.6788,1.8441,0.5835,-0.0004,-0.0003,0.0001,1.0000,0.2420,0.0461,0.0146
8489,Left,2,0.1825,-0.0504,-0.8097,-0.5555,0.0140,0.0008,0.0055,0.0601,0.0491,-0.0720,-3.4005,-1.2527,9.0418,0.0002,0.0000,0.0001,1.0000,-0.0850,-0.0314,0.2260
8489,Right,2,0.1534,-0.1654,-0.8082,-0.5441,0.0034,0.0027,0.0078,0.0070,0.0673,-0.0365,-4.1298,0.9508,8.8102,0.0000,0.0000,0.0001,1.0000,-0.1032,0.0238,0.2203
8490,Pelvis,2,0.5290,-0.4328,0.4689,0.5594,-0.0307,-0.0213,0.0019,0.0168,0.0647,0.0464,9.6728,1.8165,0.5856,-0.0004,-0.0003,0.0000,1.0000,0.2418,0.0454,0.0147
8490,Left,2,0.1824,-0.0503,-0.8098,-0.5553,0.0157,0.0016,0.0042,0.0456,0.0632,-0.0999,-3.3713,-1.2430,9.0241,0.0002,0.0000,0.0001,1.0000,-0.0843,-0.0311,0.2256
8490,Right,2,0.1535,-0.1653,-0.8083,-0.5438,0.0022,0.0056,0.0070,0.0067,0.0906,-0.0194,-4.1174,0.9429,8.8360,0.0000,0.0001,0.0001,1.0000,-0.1029,0.0236,0.2209
8491,Pelvis,2,0.5289,-0.4330,0.4687,0.5596,-0.0256,-0.0147,0.0032,0.0155,0.0468,0.0156,9.6411,1.8129,0.5997,-0.0003,-0.0002,0.0000,1.0000,0.2410,0.0453,0.0150
8491,Left,2,0.1826,-0.0502,-0.8098,-0.5554,0.0143,0.0060,0.0059,0.0423,0.0695,-0.0951,-3.3674,-1.2448,9.0305,0.0002,0.0001,0.0001,1.0000,-0.0842,-0.0312,0.2258
8491,Right,2,0.1537,-0.1653,-0.8083,-0.5438,0.0014,0.0097,0.0059,-0.0114,0.0818,-0.0330,-4.1146,0.9595,8.8204,0.0000,0.0001,0.0001,1.0000,-0.1028,0.0240,0.2205
8492,Pelvis,2,0.5288,-0.4332,0.4686,0.5596,-0.0194,-0.0070,0.0040,0.0203,-0.0059,0.0228,9.6460,1.8079,0.6504,-0.0002,-0.0001,0.0001,1.0000,0.2411,0.0452,0.0163
8492,Left,2,0.1827,-0.0502,-0.8097,-0.5554,0.0142,0.0078,0.0068,0.0349,0.0586,-0.0998,-3.3741,-1.2355,9.0241,0.0002,0.0001,0.0001,1.0000,-0.0843,-0.0309,0.2256
8492,Right,2,0.1538,-0.1654,-0.8082,-0.5438,0.0012,0.0150,0.0025,0.0096,0.0765,-0.0113,-4.1384,0.9442,8.8349,0.0000,0.0002,0.0000,1.0000,-0.1034,0.0236,0.2209
8493,Pelvis,2,0.5288,-0.4333,0.4685,0.5597,-0.0100,-0.0034,0.0066,0.0260,-0.0076,0.0663,9.6896,1.8111,0.6536,-0.0001,-0.0000,0.0001,1.0000,0.2422,0.0453,0.0163
8493,Left,2,0.1826,-0.0503,-0.8098,-0.5553,0.0138,0.0083,0.0055,0.0314,0.0563,-0.0782,-3.3828,-1.2314,9.0446,0.0002,0.0001,0.0001,1.0000,-0.0845,-0.0308,0.2261
8493,Right,2,0.1539,-0.1655,-0.8082,-0.5438,0.0010,0.0190,0.0017,-0.0102,0.0718,-0.0132,-4.1372,0.9659,8.8309,0.0000,0.0002,0.0000,1.0000,-0.1034,0.0241,0.2208
8494,Pelvis,2,0.5288,-0.4334,0.4684,0.5596,-0.0040,-0.0021,0.0099,0.0447,-0.0228,0.0428,9.6691,1.7881,0.6664,-0.0001,-0.0000,0.0001,1.0000,0.2417,0.0447,0.0167
8494,Left,2,0.1826,-0.0503,-0.8099,-0.5552,0.0121,0.0077,0.0078,0.0413,0.0309,-0.0634,-3.4135,-1.2311,9.0489,0.0002,0.0001,0.0001,1.0000,-0.0853,-0.0308,0.2262
8494,Right,2,0.1540,-0.1657,-0.8082,-0.5438,-0.0025,0.0160,0.0033,0.0297,0.0849,-0.0215,-4.1401,0.9247,8.8250,-0.0000,0.0002,0.0000,1.0000,-0.1035,0.0231,0.2206
8495,Pelvis,2,0.5288,-0.4333,0.4684,0.5596,0.0019,0.0002,0.0084,0.0160,-0.0085,0.0149,9.6373,1.8118,0.6490,0.0000,0.0000,0.0001,1.0000,0.2409,0.0453,0.0162
8495,Left,2,0.1829,-0.0504,-0.8096,-0.5555,0.0114,0.0071,0.0052,0.0321,0.0523,-0.0768,-3.3928,-1.2321,9.0422,0.0001,0.0001,0.0001,1.0000,-0.0848,-0.0308,0.2261
8495,Right,2,0.1544,-0.1658,-0.8080,-0.5440,0.0002,0.0163,0.0037,0.0105,0.0599,0.0043,-4.1718,0.9507,8.8357,0.0000,0.0002,0.0000,1.0000,-0.1043,0.0238,0.2209
8496,Pelvis,2,0.5288,-0.4333,0.4686,0.5595,0.0084,0.0046,0.0113,0.0165,-0.0078,0.0149,9.6378,1.8095,0.6494,0.0001,0.0001,0.0001,1.0000,0.2409,0.0453,0.0162
8496,Left,2,0.1831,-0.0504,-0.8095,-0.5556,0.0110,0.0060,0.0040,0.0385,0.0565,-0.0706,-3.3955,-1.2422,9.0465,0.0001,0.0001,0.0000,1.0000,-0.0849,-0.0311,0.2262
8496,Right,2,0.1545,-0.1658,-0.8079,-0.5440,-0.0009,0.0097,0.0048,0.0087,0.0913,-0.0146,-4.1405,0.9383,8.8310,-0.0000,0.0001,0.0001,1.0000,-0.1035,0.0235,0.2208
8497,Pelvis,2,0.5288,-0.4331,0.4688,0.5595,0.0161,0.0123,0.0098,0.0043,0.0020,0.0469,9.6676,1.8270,0.6424,0.0002,0.0002,0.0001,1.0000,0.2417,0.0457,0.0160
8497,Left,2,0.1832,-0.0504,-0.8094,-0.5556,0.0104,0.0030,0.0048,0.0433,0.0474,-0.0824,-3.4019,-1.2442,9.0311,0.0001,0.0000,0.0001,1.0000,-0.0850,-0.0311,0.2258
8497,Right,2,0.1546,-0.1659,-0.8079,-0.5440,0.0001,0.0080,0.0065,0.0139,0.0783,-0.0065,-4.1592,0.9383,8.8311,0.0000,0.0001,0.0001,1.0000,-0.1040,0.0234,0.2208
8498,Pelvis,2,0.5289,-0.4329,0.4691,0.5594,0.0242,0.0168,0.0104,-0.0333,0.0098,0.0064,9.6212,1.8561,0.6348,0.0003,0.0002,0.0001,1.0000,0.2405,0.0464,0.0158
8498,Left,2,0.1832,-0.0504,-0.8095,-0.5556,0.0100,0.0037,0.0045,0.0324,0.0531,-0.0706,-3.3976,-1.2367,9.0465,0.0001,0.0000,0.0001,1.0000,-0.0849,-0.0310,0.2262
8498,Right,2,0.1547,-0.1659,-0.8078,-0.5440,-0.0021,0.0049,0.0066,0.0128,0.0786,-0.0065,-4.1605,0.9388,8.8304,-0.0000,0.0001,0.0001,1.0000,-0.1040,0.0235,0.2208
8499,Pelvis,2,0.5290,-0.4326,0.4693,0.5593,0.0280,0.0073,0.0071,-0.0245,0.0197,-0.0026,9.6142,1.8468,0.6275,0.0003,0.0001,0.0001,1.0000,0.2404,0.0462,0.0157
8499,Left,2,0.1832,-0.0503,-0.8095,-0.5555,0.0081,0.0029,0.0043,0.0166,0.0493,-0.0636,-3.3982,-1.2238,9.0555,0.0001,0.0000,0.0001,1.0000,-0.0849,-0.0306,0.2264
8499,Right,2,0.1548,-0.1658,-0.8079,-0.5439,-0.0020,0.0021,0.0069,0.0036,0.0792,-0.0351,-4.1457,0.9419,8.8053,-0.0000,0.0000,0.0001,1.0000,-0.1036,0.0235,0.2201
8500,Pelvis,2,0.5292,-0.4323,0.4695,0.5591,0.0320,0.0037,0.0041,0.0174,0.0256,-0.0014,9.6236,1.8059,0.6220,0.0004,0.0000,0.0001,1.0000,0.2406,0.0452,0.0156
8500,Left,2,0.1832,-0.0503,-0.8095,-0.5556,0.0095,0.0014,0.0026,0.0413,0.0591,-0.0728,-3.3944,-1.2480,9.0438,0.0001,0.0000,0.0000,1.0000,-0.0849,-0.0312,0.2261
8500,Right,2,0.1548,-0.1659,-0.8079,-0.5439,-0.0030,0.0037,0.0066,0.0086,0.1057,-0.0418,-4.1229,0.9281,8.8103,-0.0000,0.0000,0.0001,1.0000,-0.1031,0.0232,0.2203
8501,Pelvis,2,0.5294,-0.4321,0.4697,0.5589,0.0328,0.0034,0.0028,-0.0099,0.0208,0.0270,9.6460,1.8383,0.6290,0.0004,0.0000,0.0000,1.0000,0.2411,0.0460,0.0157
8501,Left,2,0.1832,-0.0502,-0.8095,-0.5555,0.0098,0.0025,0.0038,0.0314,0.0680,-0.0694,-3.3839,-1.2437,9.0521,0.0001,0.0000,0.0000,1.0000,-0.0846,-0.0311,0.2263
8501,Right,2,0.1549,-0.1659,-0.8079,-0.5439,-0.0015,0.0049,0.0069,0.0097,0.0875,-0.0262,-4.1461,0.9342,8.8159,-0.0000,0.0001,0.0001,1.0000,-0.1036,0.0233,0.2204
8502,Pelvis,2,0.5295,-0.4318,0.4700,0.5588,0.0290,0.0095,0.0047,-0.0359,0.0326,0.0294,9.6441,1.8650,0.6184,0.0004,0.0001,0.0001,1.0000,0.2411,0.0466,0.0154
8502,Left,2,0.1831,-0.0501,-0.8097,-0.5553,0.0092,0.0052,0.0038,0.0401,0.0560,-0.0811,-3.3901,-1.2461,9.0367,0.0001,0.0001,0.0000,1.0000,-0.0847,-0.0312,0.2259
8502,Right,2,0.1549,-0.1659,-0.8080,-0.5437,-0.0023,0.0043,0.0068,0.0129,0.0899,-0.0099,-4.1516,0.9328,8.8316,-0.0000,0.0001,0.0001,1.0000,-0.1038,0.0233,0.2208
8503,Pelvis,2,0.5297,-0.4316,0.4701,0.5587,0.0236,0.0094,0.0028,-0.0203,0.0486,0.0330,9.6513,1.8516,0.6033,0.0003,0.0001,0.0000,1.0000,0.2413,0.0463,0.0151
8503,Left,2,0.1831,-0.0500,-0.8098,-0.5552,0.0093,0.0050,0.0044,0.0549,0.0631,-0.1049,-3.3800,-1.2602,9.0131,0.0001,0.0001,0.0001,1.0000,-0.0845,-0.0315,0.2253
8503,Right,2,0.1550,-0.1658,-0.8081,-0.5436,-0.0007,0.0048,0.0052,0.0099,0.0848,-0.0262,-4.1478,0.9348,8.8150,-0.0000,0.0001,0.0001,1.0000,-0.1037,0.0234,0.2204
8504,Pelvis,2,0.5298,-0.4313,0.4703,0.5587,0.0253,0.0140,-0.0002,-0.0008,0.0582,0.0318,9.6539,1.8344,0.5964,0.0003,0.0002,-0.0000,1.0000,0.2413,0.0459,0.0149
8504,Left,2,0.1831,-0.0502,-0.8098,-0.5552,0.0096,0.0096,0.0075,0.0334,0.0682,-0.0861,-3.3763,-1.2422,9.0371,0.0001,0.0001,0.0001,1.0000,-0.0844,-0.0311,0.2259
8504,Right,2,0.1549,-0.1660,-0.8080,-0.5437,-0.0007,0.0076,0.0049,-0.0044,0.1074,-0.0350,-4.1208,0.9424,8.8174,-0.0000,0.0001,0.0001,1.0000,-0.1030,0.0236,0.2204
8505,Pelvis,2,0.5299,-0.4309,0.4706,0.5586,0.0286,0.0195,-0.0025,0.0034,0.0310,0.0397,9.6601,1.8329,0.6276,0.0004,0.0002,-0.0000,1.0000,0.2415,0.0458,0.0156
8505,Left,2,0.1831,-0.0502,-0.8098,-0.5551,0.0096,0.0045,0.0041,0.0602,0.0526,-0.0951,-3.3955,-1.2593,9.0179,0.0001,0.0001,0.0001,1.0000,-0.0849,-0.0315,0.2254
8505,Right,2,0.1549,-0.1661,-0.8080,-0.5437,-0.0005,0.0093,0.0037,0.0040,0.1060,-0.0064,-4.1380,0.9399,8.8413,-0.0000,0.0001,0.0000,1.0000,-0.1034,0.0235,0.2210
8506,Pelvis,2,0.5299,-0.4305,0.4709,0.5586,0.0285,0.0314,-0.0009,0.0086,0.0430,0.0439,9.6655,1.8295,0.6207,0.0004,0.0004,-0.0000,1.0000,0.2416,0.0457,0.0154
8506,Left,2,0.1832,-0.0503,-0.8097,-0.5553,0.0101,0.0080,0.0051,0.0386,0.0519,-0.0449,-3.4102,-1.2452,9.0683,0.0001,0.0001,0.0001,1.0000,-0.0852,-0.0312,0.2267
8506,Right,2,0.1550,-0.1663,-0.8078,-0.5438,0.0007,0.0091,0.0057,0.0156,0.0903,-0.0099,-4.1574,0.9342,8.8288,0.0000,0.0001,0.0001,1.0000,-0.1039,0.0233,0.2207
8507,Pelvis,2,0.5300,-0.4302,0.4711,0.5586,0.0220,0.0268,0.0012,-0.0276,0.0037,0.0155,9.6276,1.8620,0.6610,0.0003,0.0003,0.0000,1.0000,0.2407,0.0465,0.0165
8507,Left,2,0.1832,-0.0504,-0.8098,-0.5551,0.0098,0.0100,0.0054,0.0327,0.0482,-0.0811,-3.3987,-1.2331,9.0353,0.0001,0.0001,0.0001,1.0000,-0.0849,-0.0309,0.2259
8507,Right,2,0.1550,-0.1663,-0.8079,-0.5437,-0.0005,0.0072,0.0059,0.0076,0.0897,-0.0146,-4.1538,0.9423,8.8243,-0.0000,0.0001,0.0001,1.0000,-0.1038,0.0236,0.2206
8508,Pelvis,2,0.5300,-0.4300,0.4713,0.5586,0.0151,0.0206,-0.0004,0.0079,0.0414,0.0004,9.6215,1.8254,0.6275,0.0002,0.0003,-0.0000,1.0000,0.2405,0.0456,0.0156
8508,Left,2,0.1833,-0.0500,-0.8099,-0.5549,0.0091,0.0055,0.0047,0.0505,0.0604,-0.0638,-3.3980,-1.2621,9.0503,0.0001,0.0001,0.0001,1.0000,-0.0849,-0.0316,0.2263
8508,Right,2,0.1552,-0.1661,-0.8081,-0.5435,-0.0011,0.0036,0.0054,0.0040,0.1086,-0.0139,-4.1371,0.9351,8.8340,-0.0000,0.0000,0.0001,1.0000,-0.1034,0.0234,0.2209
8509,Pelvis,2,0.5300,-0.4298,0.4715,0.5586,0.0132,0.0165,-0.0001,0.0042,0.0457,-0.0081,9.6127,1.8267,0.6266,0.0002,0.0002,-0.0000,1.0000,0.2403,0.0457,0.0156
8509,Left,2,0.1835,-0.0501,-0.8098,-0.5551,0.0101,0.0050,0.0051,0.0377,0.0602,-0.0784,-3.3924,-1.2495,9.0384,0.0001,0.0001,0.0001,1.0000,-0.0848,-0.0313,0.2260
8509,Right,2,0.1552,-0.1662,-0.8080,-0.5436,0.0001,0.0035,0.0060,0.0160,0.1050,0.0031,-4.1538,0.9271,8.8458,0.0000,0.0000,0.0001,1.0000,-0.1038,0.0232,0.2211
8510,Pelvis,2,0.5301,-0.4297,0.4716,0.5586,0.0123,0.0123,0.0018,0.0141,0.0490,-0.0087,9.6138,1.8180,0.6252,0.0002,0.0002,0.0000,1.0000,0.2403,0.0455,0.0156
8510,Left,2,0.1836,-0.0500,-0.8097,-0.5551,0.0097,0.0045,0.0056,0.0185,0.0529,-0.0630,-3.3992,-1.2333,9.0545,0.0001,0.0001,0.0001,1.0000,-0.0850,-0.0309,0.2264
8510,Right,2,0.1553,-0.1662,-0.8080,-0.5436,0.0001,0.0054,0.0053,-0.0005,0.1057,-0.0302,-4.1339,0.9379,8.8170,0.0000,0.0001,0.0001,1.0000,-0.1033,0.0234,0.2204
8511,Pelvis,2,0.5301,-0.4295,0.4717,0.5586,0.0107,0.0046,0.0027,0.0100,0.0407,0.0004,9.6209,1.8253,0.6357,0.0001,0.0001,0.0000,1.0000,0.2405,0.0456,0.0159
8511,Left,2,0.1837,-0.0499,-0.8097,-0.5552,0.0121,0.0041,0.0044,0.0419,0.0617,-0.0937,-3.3892,-1.2574,9.0220,0.0002,0.0001,0.0001,1.0000,-0.0847,-0.0315,0.2256
8511,Right,2,0.1554,-0.1661,-0.8079,-0.5436,-0.0015,0.0040,0.0065,0.0103,0.1008,-0.0132,-4.1509,0.9299,8.8287,-0.0000,0.0001,0.0001,1.0000,-0.1038,0.0232,0.2207
8512,Pelvis,2,0.5302,-0.4295,0.4716,0.5585,0.0068,-0.0015,0.0038,0.0142,0.0355,0.0089,9.6296,1.8236,0.6404,0.0001,-0.0000,0.0000,1.0000,0.2407,0.0456,0.0160
8512,Left,2,0.1838,-0.0498,-0.8097,-0.5552,0.0118,0.0046,0.0047,0.0331,0.0587,-0.0721,-3.3970,-1.2538,9.0428,0.0001,0.0001,0.0001,1.0000,-0.0849,-0.0314,0.2261
8512,Right,2,0.1555,-0.1661,-0.8080,-0.5435,-0.0015,0.0047,0.0084,0.0215,0.1045,-0.0159,-4.1514,0.9166,8.8269,-0.0000,0.0001,0.0001,1.0000,-0.1038,0.0229,0.2207
8513,Pelvis,2,0.5302,-0.4296,0.4716,0.5584,0.0025,-0.0050,0.0063,-0.0004,0.0223,0.0185,9.6357,1.8388,0.6527,0.0000,-0.0001,0.0001,1.0000,0.2409,0.0460,0.0163
8513,Left,2,0.1839,-0.0501,-0.8095,-0.5553,0.0134,0.0047,0.0061,0.0338,0.0683,-0.0673,-3.3933,-1.2561,9.0491,0.0002,0.0001,0.0001,1.0000,-0.0848,-0.0314,0.2262
8513,Right,2,0.1555,-0.1663,-0.8078,-0.5437,0.0005,0.0058,0.0046,0.0118,0.0932,-0.0173,-4.1588,0.9315,8.8201,0.0000,0.0001,0.0001,1.0000,-0.1040,0.0233,0.2205
8514,Pelvis,2,0.5303,-0.4296,0.4716,0.5584,-0.0017,-0.0100,0.0048,0.0056,0.0119,0.0004,9.6183,1.8297,0.6610,-0.0000,-0.0001,0.0001,1.0000,0.2405,0.0458,0.0166
8514,Left,2,0.1841,-0.0502,-0.8093,-0.5555,0.0147,0.0065,0.0053,0.0364,0.0543,-0.0838,-3.4049,-1.2518,9.0274,0.0002,0.0001,0.0001,1.0000,-0.0851,-0.0313,0.2257
8514,Right,2,0.1557,-0.1664,-0.8077,-0.5438,0.0003,0.0040,0.0074,-0.0079,0.0951,-0.0269,-4.1492,0.9471,8.8124,0.0000,0.0000,0.0001,1.0000,-0.1037,0.0237,0.2203
8515,Pelvis,2,0.5303,-0.4297,0.4715,0.5584,-0.0066,-0.0058,0.0041,-0.0193,0.0210,0.0246,9.6384,1.8580,0.6504,-0.0001,-0.0001,0.0001,1.0000,0.2410,0.0465,0.0163
8515,Left,2,0.1843,-0.0503,-0.8092,-0.5556,0.0136,0.0060,0.0067,0.0273,0.0781,-0.0840,-3.3847,-1.2549,9.0346,0.0002,0.0001,0.0001,1.0000,-0.0846,-0.0314,0.2259
8515,Right,2,0.1558,-0.1664,-0.8076,-0.5438,0.0013,0.0045,0.0055,0.0139,0.1048,-0.0323,-4.1494,0.9204,8.8092,0.0000,0.0001,0.0001,1.0000,-0.1037,0.0230,0.2202
8516,Pelvis,2,0.5303,-0.4299,0.4714,0.5584,-0.0121,-0.0044,0.0025,-0.0068,0.0205,0.0325,9.6484,1.8474,0.6500,-0.0002,-0.0001,0.0000,1.0000,0.2412,0.0462,0.0163
8516,Left,2,0.1844,-0.0504,-0.8091,-0.5558,0.0153,0.0056,0.0063,0.0194,0.0658,-0.0804,-3.3970,-1.2424,9.0354,0.0002,0.0001,0.0001,1.0000,-0.0849,-0.0311,0.2259
8516,Right,2,0.1559,-0.1665,-0.8075,-0.5440,0.0017,0.0047,0.0063,-0.0038,0.0971,-0.0221,-4.1561,0.9414,8.8150,0.0000,0.0001,0.0001,1.0000,-0.1039,0.0235,0.2204
8517,Pelvis,2,0.5302,-0.4299,0.4713,0.5585,-0.0149,-0.0003,0.0005,0.0120,0.0059,0.0306,9.6491,1.8283,0.6652,-0.0002,-0.0000,0.0000,1.0000,0.2412,0.0457,0.0166
8517,Left,2,0.1845,-0.0505,-0.8090,-0.5558,0.0141,0.0063,0.0052,0.0168,0.0733,-0.0756,-3.3936,-1.2442,9.0417,0.0002,0.0001,0.0001,1.0000,-0.0848,-0.0311,0.2260
8517,Right,2,0.1560,-0.1665,-0.8075,-0.5439,0.0013,0.0043,0.0070,-0.0047,0.1103,-0.0255,-4.1453,0.9354,8.8172,0.0000,0.0001,0.0001,1.0000,-0.1036,0.0234,0.2204
8518,Pelvis,2,0.5300,-0.4300,0.4712,0.5587,-0.0162,-0.0005,0.0005,0.0182,0.0160,0.0215,9.6420,1.8203,0.6568,-0.0002,-0.0000,0.0000,1.0000,0.2410,0.0455,0.0164
8518,Left,2,0.1843,-0.0503,-0.8092,-0.5555,0.0131,0.0064,0.0039,0.0282,0.0685,-0.0825,-3.3955,-1.2512,9.0326,0.0002,0.0001,0.0000,1.0000,-0.0849,-0.0313,0.2258
8518,Right,2,0.1560,-0.1664,-0.8077,-0.5437,0.0030,0.0036,0.0059,0.0070,0.1081,-0.0445,-4.1411,0.9246,8.7992,0.0000,0.0000,0.0001,1.0000,-0.1035,0.0231,0.2200
8519,Pelvis,2,0.5299,-0.4300,0.4711,0.5588,-0.0168,0.0011,-0.0010,0.0239,0.0042,0.0034,9.6242,1.8123,0.6677,-0.0002,0.0000,-0.0000,1.0000,0.2406,0.0453,0.0167
8519,Left,2,0.1844,-0.0503,-0.8093,-0.5555,0.0120,0.0041,0.0044,0.0061,0.0726,-0.0853,-3.3846,-1.2332,9.0361,0.0002,0.0001,0.0001,1.0000,-0.0846,-0.0309,0.2259
8519,Right,2,0.1560,-0.1664,-0.8078,-0.5436,0.0005,0.0027,0.0079,0.0134,0.0979,-0.0200,-4.1632,0.9235,8.8159,0.0000,0.0000,0.0001,1.0000,-0.1041,0.0231,0.2204
8520,Pelvis,2,0.5298,-0.4301,0.4710,0.5589,-0.0157,-0.0015,-0.0014,0.0492,0.0011,0.0275,9.6523,1.7919,0.6739,-0.0002,-0.0000,-0.0000,1.0000,0.2413,0.0448,0.0168
8520,Left,2,0.1843,-0.0502,-0.8094,-0.5553,0.0151,0.0043,0.0056,0.0223,0.0619,-0.0824,-3.3979,-1.2445,9.0326,0.0002,0.0001,0.0001,1.0000,-0.0849,-0.0312,0.2258
8520,Right,2,0.1560,-0.1664,-0.8078,-0.5435,0.0034,0.0045,0.0086,-0.0005,0.1102,-0.0329,-4.1417,0.9326,8.8110,0.0000,0.0001,0.0001,1.0000,-0.1035,0.0233,0.2203
8521,Pelvis,2,0.5298,-0.4303,0.4709,0.5590,-0.0100,-0.0045,0.0012,0.0444,0.0051,-0.0027,9.6222,1.7905,0.6670,-0.0001,-0.0001,0.0000,1.0000,0.2406,0.0448,0.0167
8521,Left,2,0.1843,-0.0503,-0.8094,-0.5553,0.0157,0.0049,0.0066,0.0193,0.0646,-0.0692,-3.4000,-1.2430,9.0462,0.0002,0.0001,0.0001,1.0000,-0.0850,-0.0311,0.2262
8521,Right,2,0.1560,-0.1665,-0.8078,-0.5436,0.0013,0.0045,0.0055,-0.0153,0.1146,-0.0261,-4.1366,0.9470,8.8194,0.0000,0.0001,0.0001,1.0000,-0.1034,0.0237,0.2205
8522,Pelvis,2,0.5297,-0.4304,0.4708,0.5590,-0.0113,-0.0043,0.0027,0.0222,0.0101,0.0300,9.6506,1.8182,0.6623,-0.0001,-0.0001,0.0000,1.0000,0.2413,0.0455,0.0166
8522,Left,2,0.1843,-0.0503,-0.8093,-0.5554,0.0138,0.0034,0.0030,0.0214,0.0719,-0.0859,-3.3895,-1.2454,9.0320,0.0002,0.0000,0.0000,1.0000,-0.0847,-0.0312,0.2258
8522,Right,2,0.1560,-0.1666,-0.8077,-0.5436,0.0005,0.0037,0.0068,0.0097,0.1143,-0.0118,-4.1532,0.9256,8.8297,0.0000,0.0000,0.0001,1.0000,-0.1038,0.0231,0.2207
8523,Pelvis,2,0.5297,-0.4304,0.4708,0.5591,-0.0100,0.0039,0.0029,0.0371,0.0065,0.0463,9.6691,1.8066,0.6678,-0.0001,0.0000,0.0000,1.0000,0.2417,0.0452,0.0167
8523,Left,2,0.1844,-0.0502,-0.8094,-0.5553,0.0125,0.0046,0.0038,0.0145,0.0636,-0.0775,-3.3963,-1.2391,9.0392,0.0002,0.0001,0.0000,1.0000,-0.0849,-0.0310,0.2260
8523,Right,2,0.1560,-0.1665,-0.8078,-0.5435,0.0018,0.0033,0.0083,-0.0009,0.1090,-0.0329,-4.1438,0.9357,8.8096,0.0000,0.0000,0.0001,1.0000,-0.1036,0.0234,0.2202
8524,Pelvis,2,0.5296,-0.4304,0.4708,0.5591,-0.0033,0.0051,0.0036,0.0436,0.0157,0.0372,9.6620,1.7981,0.6602,-0.0000,0.0001,0.0000,1.0000,0.2415,0.0450,0.0165
8524,Left,2,0.1844,-0.0501,-0.8094,-0.5553,0.0125,0.0031,0.0038,0.0093,0.0653,-0.0643,-3.3982,-1.2384,9.0528,0.0002,0.0000,0.0000,1.0000,-0.0849,-0.0310,0.2263
8524,Right,2,0.1560,-0.1665,-0.8079,-0.5434,0.0011,0.0028,0.0067,-0.0041,0.1072,-0.0091,-4.1546,0.9415,8.8304,0.0000,0.0000,0.0001,1.0000,-0.1039,0.0235,0.2208
8525,Pelvis,2,0.5296,-0.4304,0.4708,0.5592,-0.0007,0.0059,0.0023,-0.0062,0.0219,-0.0111,9.6057,1.8383,0.6508,-0.0000,0.0001,0.0000,1.0000,0.2401,0.0460,0.0163
8525,Left,2,0.1845,-0.0502,-0.8093,-0.5554,0.0113,0.0025,0.0037,0.0214,0.0674,-0.0928,-3.3925,-1.2466,9.0232,0.0001,0.0000,0.0000,1.0000,-0.0848,-0.0312,0.2256
8525,Right,2,0.1560,-0.1666,-0.8078,-0.5435,0.0015,0.0031,0.0075,-0.0173,0.1226,-0.0458,-4.1227,0.9457,8.8044,0.0000,0.0000,0.0001,1.0000,-0.1031,0.0236,0.2201
8526,Pelvis,2,0.5296,-0.4304,0.4708,0.5592,-0.0023,0.0003,-0.0001,-0.0203,0.0311,0.0210,9.6353,1.8578,0.6431,-0.0000,0.0000,-0.0000,1.0000,0.2409,0.0464,0.0161
8526,Left,2,0.1847,-0.0502,-0.8091,-0.5556,0.0133,0.0029,0.0036,0.0115,0.0823,-0.0977,-3.3764,-1.2447,9.0243,0.0002,0.0000,0.0000,1.0000,-0.0844,-0.0312,0.2256
8526,Right,2,0.1561,-0.1667,-0.8077,-0.5436,-0.0013,0.0047,0.0064,0.0111,0.1178,-0.0193,-4.1500,0.9232,8.8233,-0.0000,0.0001,0.0001,1.0000,-0.1037,0.0231,0.2206
8527,Pelvis,2,0.5296,-0.4304,0.4707,0.5592,-0.0020,0.0057,-0.0014,0.0201,0.0396,0.0355,9.6575,1.8212,0.6360,-0.0000,0.0001,-0.0000,1.0000,0.2414,0.0455,0.0159
8527,Left,2,0.1846,-0.0502,-0.8092,-0.5556,0.0131,0.0037,0.0048,0.0160,0.0732,-0.0879,-3.3892,-1.2457,9.0299,0.0002,0.0000,0.0001,1.0000,-0.0847,-0.0312,0.2257
8527,Right,2,0.1561,-0.1667,-0.8077,-0.5436,0.0015,0.0052,0.0053,-0.0085,0.1268,-0.0247,-4.1343,0.9379,8.8232,0.0000,0.0001,0.0001,1.0000,-0.1033,0.0234,0.2206
8528,Pelvis,2,0.5295,-0.4304,0.4708,0.5593,-0.0023,0.0068,-0.0003,0.0045,0.0510,0.0458,9.6653,1.8388,0.6272,-0.0000,0.0001,-0.0000,1.0000,0.2416,0.0460,0.0157
8528,Left,2,0.1847,-0.0499,-0.8094,-0.5553,0.0097,0.0055,0.0038,0.0212,0.0720,-0.0815,-3.3915,-1.2557,9.0345,0.0001,0.0001,0.0000,1.0000,-0.0848,-0.0314,0.2259
8528,Right,2,0.1561,-0.1666,-0.8079,-0.5433,0.0026,0.0041,0.0070,0.0013,0.1153,-0.0240,-4.1465,0.9323,8.8187,0.0000,0.0001,0.0001,1.0000,-0.1037,0.0233,0.2205
8529,Pelvis,2,0.5295,-0.4302,0.4708,0.5594,-0.0024,0.0118,0.0000,0.0056,0.0275,0.0234,9.6414,1.8353,0.6513,-0.0000,0.0001,0.0000,1.0000,0.2410,0.0459,0.0162
8529,Left,2,0.1848,-0.0499,-0.8093,-0.5553,0.0110,0.0060,0.0039,0.0083,0.0734,-0.0830,-3.3868,-1.2456,9.0361,0.0001,0.0001,0.0000,1.0000,-0.0847,-0.0312,0.2259
8529,Right,2,0.1562,-0.1666,-0.8079,-0.5433,0.0009,0.0050,0.0065,-0.0070,0.1067,-0.0329,-4.1482,0.9414,8.8070,0.0000,0.0001,0.0001,1.0000,-0.1037,0.0235,0.2202
8530,Pelvis,2,0.5294,-0.4302,0.4709,0.5595,-0.0044,0.0098,0.0008,0.0171,0.0054,0.0088,9.6274,1.8219,0.6762,-0.0001,0.0001,0.0000,1.0000,0.2407,0.0456,0.0169
8530,Left,2,0.1849,-0.0499,-0.8093,-0.5554,0.0124,0.0079,0.0047,0.0091,0.0568,-0.0780,-3.4054,-1.2414,9.0349,0.0002,0.0001,0.0001,1.0000,-0.0851,-0.0311,0.2259
8530,Right,2,0.1563,-0.1667,-0.8078,-0.5434,0.0015,0.0062,0.0042,-0.0064,0.1106,-0.0165,-4.1540,0.9405,8.8225,0.0000,0.0001,0.0001,1.0000,-0.1038,0.0235,0.2206
8531,Pelvis,2,0.5294,-0.4301,0.4709,0.5595,0.0029,0.0058,-0.0005,0.0380,0.0261,-0.0099,9.6142,1.7980,0.6557,0.0000,0.0001,-0.0000,1.0000,0.2404,0.0449,0.0164
8531,Left,2,0.1851,-0.0498,-0.8092,-0.5554,0.0115,0.0069,0.0058,0.0104,0.0875,-0.0586,-3.3876,-1.2604,9.0601,0.0001,0.0001,0.0001,1.0000,-0.0847,-0.0315,0.2265
8531,Right,2,0.1565,-0.1667,-0.8078,-0.5433,0.0009,0.0069,0.0059,-0.0197,0.1190,-0.0172,-4.1439,0.9481,8.8258,0.0000,0.0001,0.0001,1.0000,-0.1036,0.0237,0.2207
8532,Pelvis,2,0.5295,-0.4300,0.4709,0.5595,0.0098,0.0036,-0.0006,0.0581,0.0378,0.0239,9.6515,1.7866,0.6473,0.0001,0.0000,-0.0000,1.0000,0.2413,0.0447,0.0162
8532,Left,2,0.1850,-0.0497,-0.8094,-0.5551,0.0111,0.0076,0.0055,-0.0007,0.0742,-0.0780,-3.3873,-1.2420,9.0417,0.0001,0.0001,0.0001,1.0000,-0.0847,-0.0311,0.2260
8532,Right,2,0.1566,-0.1666,-0.8080,-0.5431,-0.0009,0.0070,0.0050,-0.0124,0.1044,-0.0329,-4.1520,0.9436,8.8049,-0.0000,0.0001,0.0001,1.0000,-0.1038,0.0236,0.2201
8533,Pelvis,2,0.5295,-0.4298,0.4711,0.5595,0.0125,0.0060,0.0012,0.0317,0.0301,0.0390,9.6606,1.8160,0.6582,0.0002,0.0001,0.0000,1.0000,0.2415,0.0454,0.0164
8533,Left,2,0.1850,-0.0496,-0.8096,-0.5549,0.0107,0.0068,0.0051,0.0124,0.0636,-0.0535,-3.4081,-1.2532,9.0587,0.0001,0.0001,0.0001,1.0000,-0.0852,-0.0314,0.2265
8533,Right,2,0.1566,-0.1665,-0.8080,-0.5430,-0.0009,0.0061,0.0046,-0.0129,0.1153,-0.0124,-4.1520,0.9415,8.8280,-0.0000,0.0001,0.0001,1.0000,-0.1038,0.0235,0.2207
8534,Pelvis,2,0.5295,-0.4297,0.4711,0.5594,0.0103,0.0078,0.0043,0.0034,0.0402,0.0198,9.6371,1.8404,0.6465,0.0001,0.0001,0.0001,1.0000,0.2409,0.0460,0.0161
8534,Left,2,0.1851,-0.0494,-0.8097,-0.5547,0.0115,0.0069,0.0058,0.0102,0.0597,-0.0751,-3.4030,-1.2509,9.0377,0.0001,0.0001,0.0001,1.0000,-0.0851,-0.0313,0.2259
8534,Right,2,0.1568,-0.1664,-0.8082,-0.5428,-0.0017,0.0051,0.0075,-0.0027,0.1181,-0.0151,-4.1528,0.9281,8.8261,-0.0000,0.0001,0.0001,1.0000,-0.1038,0.0232,0.2207
8535,Pelvis,2,0.5296,-0.4296,0.4712,0.5594,0.0102,0.0033,0.0013,0.0338,0.0258,0.0040,9.6259,1.8094,0.6609,0.0001,0.0000,0.0000,1.0000,0.2406,0.0452,0.0165
8535,Left,2,0.1852,-0.0493,-0.8096,-0.5547,0.0116,0.0045,0.0031,0.0078,0.0613,-0.0834,-3.3986,-1.2511,9.0304,0.0001,0.0001,0.0000,1.0000,-0.0850,-0.0313,0.2258
8535,Right,2,0.1569,-0.1663,-0.8082,-0.5428,-0.0003,0.0040,0.0071,-0.0071,0.1046,-0.0117,-4.1653,0.9357,8.8230,-0.0000,0.0000,0.0001,1.0000,-0.1041,0.0234,0.2206
8536,Pelvis,2,0.5297,-0.4295,0.4712,0.5593,0.0116,0.0011,0.0030,0.0461,0.0223,-0.0015,9.6227,1.7960,0.6640,0.0001,0.0000,0.0000,1.0000,0.2406,0.0449,0.0166
8536,Left,2,0.1851,-0.0493,-0.8097,-0.5546,0.0128,0.0042,0.0050,0.0080,0.0667,-0.0785,-3.3948,-1.2535,9.0368,0.0002,0.0001,0.0001,1.0000,-0.0849,-0.0314,0.2259
8536,Right,2,0.1569,-0.1664,-0.8082,-0.5428,-0.0011,0.0043,0.0073,-0.0198,0.1185,-0.0484,-4.1336,0.9394,8.7970,-0.0000,0.0001,0.0001,1.0000,-0.1033,0.0235,0.2199
8537,Pelvis,2,0.5297,-0.4295,0.4713,0.5593,0.0099,0.0008,0.0025,0.0529,0.0114,0.0021,9.6266,1.7901,0.6758,0.0001,0.0000,0.0000,1.0000,0.2407,0.0448,0.0169
8537,Left,2,0.1852,-0.0494,-0.8096,-0.5548,0.0128,0.0042,0.0050,0.0159,0.0716,-0.0721,-3.3972,-1.2631,9.0415,0.0002,0.0001,0.0001,1.0000,-0.0849,-0.0316,0.2260
8537,Right,2,0.1569,-0.1665,-0.8080,-0.5429,-0.0009,0.0042,0.0053,-0.0052,0.1182,-0.0151,-4.1552,0.9297,8.8248,-0.0000,0.0001,0.0001,1.0000,-0.1039,0.0232,0.2206
8538,Pelvis,2,0.5297,-0.4294,0.4714,0.5592,0.0087,-0.0010,0.0072,0.0200,0.0148,0.0137,9.6321,1.8238,0.6736,0.0001,-0.0000,0.0001,1.0000,0.2408,0.0456,0.0168
8538,Left,2,0.1851,-0.0495,-0.8097,-0.5547,0.0153,0.0050,0.0044,-0.0009,0.0676,-0.1015,-3.3842,-1.2399,9.0179,0.0002,0.0001,0.0001,1.0000,-0.0846,-0.0310,0.2254
8538,Right,2,0.1569,-0.1665,-0.8080,-0.5429,-0.0017,0.0024,0.0077,-0.0025,0.1310,-0.0184,-4.1442,0.9231,8.8272,-0.0000,0.0000,0.0001,1.0000,-0.1036,0.0231,0.2207
8539,Pelvis,2,0.5297,-0.4295,0.4715,0.5591,0.0051,-0.0042,0.0086,0.0102,-0.0059,0.0403,9.6554,1.8363,0.6954,0.0001,-0.0001,0.0001,1.0000,0.2414,0.0459,0.0174
8539,Left,2,0.1851,-0.0497,-0.8096,-0.5548,0.0186,0.0087,0.0036,-0.0087,0.0747,-0.1113,-3.3739,-1.2314,9.0124,0.0002,0.0001,0.0000,1.0000,-0.0843,-0.0308,0.2253
8539,Right,2,0.1568,-0.1666,-0.8079,-0.5431,-0.0005,0.0027,0.0053,-0.0081,0.1137,-0.0076,-4.1617,0.9369,8.8292,-0.0000,0.0000,0.0001,1.0000,-0.1040,0.0234,0.2207
8540,Pelvis,2,0.5298,-0.4296,0.4715,0.5590,0.0030,-0.0092,0.0095,0.0497,0.0274,0.0553,9.6803,1.7986,0.6619,0.0000,-0.0001,0.0001,1.0000,0.2420,0.0450,0.0166
8540,Left,2,0.1853,-0.0496,-0.8096,-0.5547,-0.0019,0.0154,-0.0057,0.0045,0.0375,-0.0784,-3.4232,-1.2338,9.0287,-0.0000,0.0002,-0.0001,1.0000,-0.0855,-0.0308,0.2257
8540,Right,2,0.1567,-0.1666,-0.8080,-0.5430,-0.0020,-0.0062,0.0077,-0.0282,0.0868,-0.0104,-4.1737,0.9661,8.8170,-0.0000,-0.0001,0.0001,1.0000,-0.1044,0.0241,0.2204
8541,Pelvis,2,0.5298,-0.4296,0.4716,0.5589,0.0101,-0.0044,0.0072,0.1090,0.0219,0.0678,9.7036,1.7414,0.6673,0.0001,-0.0001,0.0001,1.0000,0.2426,0.0436,0.0167
8541,Left,2,0.1855,-0.0495,-0.8095,-0.5548,-0.0033,0.0094,-0.0055,-0.0213,0.0619,-0.0153,-3.4185,-1.2321,9.0989,-0.0000,0.0001,-0.0001,1.0000,-0.0854,-0.0308,0.2275
8541,Right,2,0.1567,-0.1665,-0.8080,-0.5430,-0.0030,-0.0019,0.0072,0.0046,0.1388,-0.0095,-4.1422,0.9161,8.8388,-0.0000,-0.0000,0.0001,1.0000,-0.1036,0.0229,0.2210
8542,Pelvis,2,0.5300,-0.4296,0.4717,0.5586,0.0251,-0.0082,0.0094,0.1984,0.0482,-0.0267,9.6299,1.6341,0.6334,0.0003,-0.0001,0.0001,1.0000,0.2407,0.0409,0.0159
8542,Left,2,0.1856,-0.0493,-0.8095,-0.5548,-0.0029,0.0059,-0.0043,0.0145,0.0513,-0.1332,-3.3972,-1.2492,8.9774,-0.0000,0.0001,-0.0001,1.0000,-0.0849,-0.0312,0.2244
8542,Right,2,0.1566,-0.1664,-0.8080,-0.5431,-0.0061,-0.0060,0.0057,-0.0051,0.1034,-0.0117,-4.1651,0.9379,8.8228,-0.0001,-0.0001,0.0001,1.0000,-0.1041,0.0235,0.2206
8543,Pelvis,2,0.5303,-0.4295,0.4719,0.5582,0.0402,-0.0175,0.0134,0.1977,0.0086,-0.0231,9.6311,1.6340,0.6692,0.0005,-0.0002,0.0002,1.0000,0.2408,0.0409,0.0168
8543,Left,2,0.1856,-0.0491,-0.8095,-0.5548,-0.0129,0.0082,-0.0087,-0.0192,0.0449,-0.0549,-3.4185,-1.2283,9.0566,-0.0002,0.0001,-0.0001,1.0000,-0.0854,-0.0307,0.2264
8543,Right,2,0.1563,-0.1663,-0.8081,-0.5431,-0.0102,-0.0135,0.0065,-0.0064,0.1197,-0.0035,-4.1507,0.9354,8.8392,-0.0001,-0.0002,0.0001,1.0000,-0.1038,0.0234,0.2210
8544,Pelvis,2,0.5307,-0.4296,0.4721,0.5577,0.0435,-0.0236,0.0183,0.1281,0.0195,0.0049,9.6474,1.7047,0.6513,0.0005,-0.0003,0.0002,1.0000,0.2412,0.0427,0.0164
8544,Left,2,0.1859,-0.0486,-0.8095,-0.5547,-0.0259,0.0094,-0.0110,-0.0002,0.0674,-0.0686,-3.3990,-1.2614,9.0448,-0.0003,0.0001,-0.0001,1.0000,-0.0850,-0.0315,0.2261
8544,Right,2,0.1562,-0.1661,-0.8082,-0.5430,-0.0112,-0.0149,0.0080,0.0097,0.1142,-0.0103,-4.1532,0.9207,8.8320,-0.0001,-0.0002,0.0001,1.0000,-0.1039,0.0230,0.2208
8545,Pelvis,2,0.5311,-0.4296,0.4722,0.5571,0.0437,-0.0299,0.0214,0.1673,0.0165,0.0586,9.7082,1.6727,0.6508,0.0005,-0.0004,0.0003,1.0000,0.2427,0.0419,0.0164
8545,Left,2,0.1863,-0.0480,-0.8095,-0.5546,-0.0415,0.0088,-0.0170,0.0145,0.0493,-0.0705,-3.4177,-1.2795,9.0330,-0.0005,0.0001,-0.0002,1.0000,-0.0854,-0.0319,0.2259
8545,Right,2,0.1560,-0.1658,-0.8083,-0.5429,-0.0114,-0.0183,0.0084,0.0036,0.1262,-0.0183,-4.1325,0.9194,8.8330,-0.0001,-0.0002,0.0001,1.0000,-0.1034,0.0230,0.2208
8546,Pelvis,2,0.5315,-0.4295,0.4725,0.5565,0.0615,-0.0156,0.0146,0.3102,0.0488,0.1307,9.8086,1.5426,0.6181,0.0008,-0.0002,0.0002,1.0000,0.2452,0.0386,0.0155
8546,Left,2,0.1866,-0.0474,-0.8095,-0.5546,-0.0394,0.0103,-0.0120,0.0439,0.0810,-0.0645,-3.4004,-1.3331,9.0385,-0.0005,0.0001,-0.0001,1.0000,-0.0850,-0.0332,0.2260
8546,Right,2,0.1558,-0.1655,-0.8085,-0.5429,-0.0139,-0.0170,0.0067,0.0427,0.1192,0.0130,-4.1604,0.8868,8.8580,-0.0002,-0.0002,0.0001,1.0000,-0.1041,0.0222,0.2214
8547,Pelvis,2,0.5321,-0.4289,0.4731,0.5559,0.0953,0.0039,0.0047,0.3881,0.0826,0.0767,9.7728,1.4543,0.5789,0.0012,0.0000,0.0001,1.0000,0.2443,0.0364,0.0145
8547,Left,2,0.1870,-0.0470,-0.8095,-0.5546,-0.0289,0.0041,-0.0081,0.0400,0.0553,-0.0430,-3.4302,-1.3343,9.0501,-0.0004,0.0001,-0.0001,1.0000,-0.0857,-0.0333,0.2263
8547,Right,2,0.1557,-0.1652,-0.8085,-0.5429,-0.0172,-0.0232,0.0095,0.0187,0.1016,0.0142,-4.1623,0.9124,8.8556,-0.0002,-0.0003,0.0001,1.0000,-0.1041,0.0228,0.2214
8548,Pelvis,2,0.5329,-0.4280,0.4740,0.5552,0.1317,0.0287,0.0001,0.3556,0.1109,-0.0120,9.6817,1.4700,0.5434,0.0016,0.0004,0.0000,1.0000,0.2420,0.0367,0.0136
8548,Left,2,0.1871,-0.0464,-0.8095,-0.5545,-0.0223,-0.0028,-0.0086,0.0043,0.0477,-0.0440,-3.4225,-1.3099,9.0554,-0.0003,-0.0000,-0.0001,1.0000,-0.0856,-0.0327,0.2264
8548,Right,2,0.1554,-0.1649,-0.8087,-0.5429,-0.0048,-0.0316,0.0053,-0.0879,0.0286,0.0622,-4.1970,1.0401,8.8783,-0.0001,-0.0004,0.0001,1.0000,-0.1050,0.0260,0.2219
8549,Pelvis,2,0.5338,-0.4268,0.4751,0.5543,0.1620,0.0383,0.0033,0.3130,0.1388,0.0491,9.7354,1.5247,0.5207,0.0020,0.0005,0.0000,1.0000,0.2434,0.0381,0.0130
8549,Left,2,0.1872,-0.0460,-0.8095,-0.5546,-0.0266,-0.0021,-0.0100,0.0033,0.0741,-0.1100,-3.3733,-1.3174,9.0018,-0.0003,-0.0000,-0.0001,1.0000,-0.0843,-0.0329,0.2251
8549,Right,2,0.1550,-0.1644,-0.8087,-0.5431,-0.0207,-0.0435,-0.0015,0.0228,0.1761,-0.1671,-4.0075,0.8608,8.7332,-0.0003,-0.0005,-0.0000,1.0000,-0.1003,0.0216,0.2183
8550,Pelvis,2,0.5347,-0.4253,0.4765,0.5533,0.1879,0.0610,0.0048,0.3288,0.1616,0.1229,9.8116,1.5238,0.5088,0.0023,0.0008,0.0001,1.0000,0.2453,0.0381,0.0126
8550,Left,2,0.1876,-0.0455,-0.8094,-0.5546,-0.0358,0.0054,-0.0088,-0.0080,0.1041,-0.1198,-3.3397,-1.3277,9.0026,-0.0004,0.0001,-0.0001,1.0000,-0.0835,-0.0331,0.2251
8550,Right,2,0.1550,-0.1641,-0.8087,-0.5432,-0.0222,-0.0205,-0.0002,-0.0253,0.1973,-0.1425,-3.9766,0.8945,8.7714,-0.0003,-0.0003,-0.0000,1.0000,-0.0995,0.0224,0.2193
8551,Pelvis,2,0.5356,-0.4232,0.4784,0.5524,0.2271,0.1096,-0.0030,0.2976,0.1788,0.1302,9.8135,1.5573,0.5028,0.0028,0.0014,-0.0000,1.0000,0.2454,0.0389,0.0123
8551,Left,2,0.1881,-0.0453,-0.8092,-0.5547,-0.0282,0.0180,-0.0049,-0.0062,0.0764,-0.0753,-3.3836,-1.3349,9.0328,-0.0004,0.0002,-0.0001,1.0000,-0.0845,-0.0333,0.2259
8551,Right,2,0.1549,-0.1641,-0.8087,-0.5432,-0.0030,-0.0027,0.0068,0.0040,0.1609,-0.0971,-4.0346,0.8819,8.7956,-0.0000,-0.0000,0.0001,1.0000,-0.1009,0.0220,0.2199
8552,Pelvis,2,0.5367,-0.4206,0.4806,0.5515,0.2570,0.1346,-0.0201,0.2584,0.1557,0.0409,9.7150,1.5850,0.5388,0.0032,0.0017,-0.0003,1.0000,0.2429,0.0395,0.0132
8552,Left,2,0.1887,-0.0449,-0.8091,-0.5547,-0.0247,0.0194,-0.0009,0.0074,0.0757,-0.0674,-3.3951,-1.3615,9.0331,-0.0003,0.0002,-0.0000,1.0000,-0.0848,-0.0340,0.2259
8552,Right,2,0.1552,-0.1639,-0.8087,-0.5432,-0.0133,0.0150,0.0000,-0.0465,0.1337,-0.0904,-4.0427,0.9361,8.7933,-0.0002,0.0002,0.0000,1.0000,-0.1010,0.0234,0.2198
8553,Pelvis,2,0.5378,-0.4179,0.4828,0.5505,0.2682,0.1388,-0.0188,0.2011,0.0960,0.0531,9.7091,1.6539,0.6181,0.0034,0.0017,-0.0002,1.0000,0.2428,0.0412,0.0152
8553,Left,2,0.1890,-0.0447,-0.8092,-0.5545,-0.0229,0.0205,0.0002,0.0363,0.0441,-0.0497,-3.4405,-1.3849,9.0313,-0.0003,0.0003,0.0000,1.0000,-0.0860,-0.0346,0.2258
8553,Right,2,0.1557,-0.1640,-0.8086,-0.5432,-0.0212,0.0385,-0.0032,-0.1156,0.1741,-0.1434,-3.9662,0.9775,8.7666,-0.0003,0.0005,-0.0000,1.0000,-0.0990,0.0245,0.2192
8554,Pelvis,2,0.5389,-0.4154,0.4849,0.5494,0.2694,0.1240,-0.0100,0.1417,0.0445,0.0702,9.7077,1.7265,0.6874,0.0034,0.0015,-0.0001,1.0000,0.2427,0.0431,0.0170
8554,Left,2,0.1894,-0.0445,-0.8091,-0.5545,-0.0189,0.0187,0.0003,0.0149,0.0772,-0.0609,-3.4052,-1.3846,9.0328,-0.0002,0.0002,0.0000,1.0000,-0.0851,-0.0346,0.2258
8554,Right,2,0.1567,-0.1639,-0.8084,-0.5432,-0.0473,0.0664,-0.0193,-0.0210,0.1468,-0.0155,-4.0898,0.9017,8.8582,-0.0006,0.0008,-0.0002,1.0000,-0.1021,0.0227,0.2215
8555,Pelvis,2,0.5403,-0.4129,0.4870,0.5481,0.2811,0.1065,-0.0076,0.1748,0.0823,0.0332,9.6785,1.6924,0.6647,0.0035,0.0013,-0.0001,1.0000,0.2420,0.0422,0.0164
8555,Left,2,0.1897,-0.0442,-0.8091,-0.5544,-0.0102,0.0143,0.0031,-0.0029,0.0803,-0.0854,-3.3899,-1.3735,9.0138,-0.0001,0.0002,0.0000,1.0000,-0.0847,-0.0343,0.2254
8555,Right,2,0.1576,-0.1637,-0.8083,-0.5432,-0.0476,0.0547,-0.0161,0.0902,0.1212,0.0458,-4.1901,0.8010,8.8890,-0.0006,0.0007,-0.0002,1.0000,-0.1046,0.0202,0.2223
8556,Pelvis,2,0.5422,-0.4104,0.4889,0.5464,0.3229,0.0671,-0.0163,0.2320,0.0786,-0.0987,9.5578,1.6192,0.6691,0.0040,0.0008,-0.0002,1.0000,0.2390,0.0404,0.0167
8556,Left,2,0.1898,-0.0441,-0.8092,-0.5542,-0.0026,0.0178,0.0055,0.0177,0.0871,-0.0725,-3.3961,-1.4005,9.0213,-0.0000,0.0002,0.0001,1.0000,-0.0849,-0.0350,0.2256
8556,Right,2,0.1582,-0.1633,-0.8082,-0.5432,-0.0573,0.0325,-0.0178,0.0508,0.1155,0.0580,-4.1947,0.8280,8.8975,-0.0007,0.0004,-0.0002,1.0000,-0.1048,0.0209,0.2225
8557,Pelvis,2,0.5444,-0.4077,0.4910,0.5444,0.3541,0.0700,-0.0257,0.2323,0.1094,-0.1506,9.5082,1.6164,0.6347,0.0044,0.0009,-0.0003,1.0000,0.2377,0.0403,0.0158
8557,Left,2,0.1899,-0.0440,-0.8093,-0.5541,0.0000,0.0112,0.0049,0.0261,0.0452,-0.0892,-3.4312,-1.3929,8.9908,0.0000,0.0001,0.0001,1.0000,-0.0857,-0.0348,0.2248
8557,Right,2,0.1591,-0.1624,-0.8081,-0.5434,-0.0912,0.0209,-0.0288,0.0469,0.1412,0.0466,-4.1726,0.8023,8.8979,-0.0011,0.0003,-0.0004,1.0000,-0.1043,0.0203,0.2225
8558,Pelvis,2,0.5468,-0.4049,0.4931,0.5422,0.3846,0.0541,-0.0221,0.2350,0.0873,0.0416,9.6928,1.6642,0.6699,0.0048,0.0007,-0.0003,1.0000,0.2423,0.0415,0.0168
8558,Left,2,0.1900,-0.0439,-0.8093,-0.5540,0.0059,0.0100,0.0043,0.0309,0.0466,-0.0612,-3.4419,-1.4043,9.0153,0.0001,0.0001,0.0001,1.0000,-0.0860,-0.0351,0.2254
8558,Right,2,0.1599,-0.1613,-0.8081,-0.5435,-0.1094,0.0116,-0.0340,0.0568,0.1367,0.0112,-4.1672,0.7668,8.8644,-0.0014,0.0001,-0.0004,1.0000,-0.1041,0.0195,0.2216
8559,Pelvis,2,0.5493,-0.4018,0.4955,0.5397,0.4115,0.0670,-0.0164,0.1902,0.0293,0.0967,9.7315,1.7347,0.7225,0.0051,0.0008,-0.0002,1.0000,0.2433,0.0432,0.0181
8559,Left,2,0.1900,-0.0439,-0.8094,-0.5540,0.0149,0.0048,0.0060,0.0330,0.0566,-0.0646,-3.4330,-1.4101,9.0142,0.0002,0.0001,0.0001,1.0000,-0.0858,-0.0353,0.2254
8559,Right,2,0.1606,-0.1602,-0.8080,-0.5437,-0.1054,-0.0008,-0.0343,0.0128,0.1018,-0.0101,-4.1719,0.7915,8.8357,-0.0013,-0.0000,-0.0004,1.0000,-0.1043,0.0201,0.2209
8560,Pelvis,2,0.5518,-0.3986,0.4981,0.5372,0.4320,0.0737,-0.0166,0.0959,-0.0146,0.0376,9.6505,1.8290,0.7487,0.0054,0.0009,-0.0002,1.0000,0.2413,0.0456,0.0187
8560,Left,2,0.1899,-0.0440,-0.8094,-0.5540,0.0216,0.0022,0.0061,0.0243,0.0660,-0.0611,-3.4231,-1.4037,9.0228,0.0003,0.0000,0.0001,1.0000,-0.0856,-0.0352,0.2256
8560,Right,2,0.1611,-0.1592,-0.8080,-0.5440,-0.0943,-0.0066,-0.0300,-0.0054,0.0977,-0.0360,-4.1564,0.7830,8.8150,-0.0012,-0.0001,-0.0004,1.0000,-0.1039,0.0199,0.2203
8561,Pelvis,2,0.5545,-0.3952,0.5007,0.5344,0.4604,0.0677,-0.0245,-0.0257,-0.0142,-0.0926,9.4987,1.9335,0.7190,0.0058,0.0008,-0.0003,1.0000,0.2375,0.0482,0.0181
8561,Left,2,0.1898,-0.0441,-0.8094,-0.5540,0.0267,-0.0024,0.0100,0.0348,0.0735,-0.0630,-3.4187,-1.4136,9.0210,0.0003,-0.0000,0.0001,1.0000,-0.0855,-0.0354,0.2255
8561,Right,2,0.1615,-0.1582,-0.8079,-0.5442,-0.0814,-0.0145,-0.0242,0.0686,0.1406,-0.0439,-4.1409,0.6770,8.8232,-0.0010,-0.0002,-0.0003,1.0000,-0.1036,0.0172,0.2205
8562,Pelvis,2,0.5577,-0.3915,0.5032,0.5315,0.4946,0.0594,-0.0531,-0.0389,0.0201,-0.1391,9.4518,1.9484,0.6698,0.0062,0.0007,-0.0007,1.0000,0.2363,0.0484,0.0169
8562,Left,2,0.1896,-0.0442,-0.8094,-0.5540,0.0346,-0.0057,0.0112,0.0118,0.0606,-0.0396,-3.4297,-1.3891,9.0457,0.0004,-0.0001,0.0001,1.0000,-0.0858,-0.0348,0.2261
8562,Right,2,0.1618,-0.1575,-0.8080,-0.5443,-0.0572,-0.0118,-0.0117,0.0260,0.1310,-0.0480,-4.1283,0.7022,8.8222,-0.0007,-0.0001,-0.0001,1.0000,-0.1032,0.0177,0.2205
8563,Pelvis,2,0.5615,-0.3875,0.5054,0.5284,0.5315,0.0311,-0.0815,-0.0162,0.0012,-0.0757,9.5125,1.9645,0.6798,0.0066,0.0004,-0.0010,1.0000,0.2379,0.0488,0.0172
8563,Left,2,0.1893,-0.0444,-0.8095,-0.5541,0.0518,-0.0125,0.0171,0.0531,0.0913,-0.0748,-3.4014,-1.4300,9.0124,0.0006,-0.0002,0.0002,1.0000,-0.0851,-0.0359,0.2253
8563,Right,2,0.1621,-0.1568,-0.8080,-0.5442,-0.0506,-0.0095,-0.0094,-0.0151,0.1072,-0.0203,-4.1432,0.7353,8.8429,-0.0006,-0.0001,-0.0001,1.0000,-0.1036,0.0185,0.2210
8564,Pelvis,2,0.5656,-0.3830,0.5077,0.5251,0.5737,0.0296,-0.1060,-0.2029,0.0007,-0.0384,9.5088,2.1825,0.6299,0.0072,0.0004,-0.0013,1.0000,0.2378,0.0541,0.0160
8564,Left,2,0.1888,-0.0448,-0.8096,-0.5540,0.0692,-0.0177,0.0260,0.0463,0.0937,-0.0615,-3.3998,-1.4170,9.0294,0.0009,-0.0002,0.0003,1.0000,-0.0850,-0.0356,0.2257
8564,Right,2,0.1624,-0.1560,-0.8081,-0.5443,-0.0507,-0.0190,-0.0120,-0.0030,0.1018,-0.0271,-4.1461,0.7101,8.8360,-0.0006,-0.0002,-0.0001,1.0000,-0.1037,0.0179,0.2209
8565,Pelvis,2,0.5700,-0.3781,0.5098,0.5218,0.5969,0.0332,-0.1399,-0.3876,-0.0443,0.0107,9.5099,2.4150,0.6171,0.0075,0.0004,-0.0017,1.0000,0.2379,0.0598,0.0158
8565,Left,2,0.1882,-0.0452,-0.8097,-0.5540,0.0665,-0.0247,0.0296,0.0377,0.0792,-0.0582,-3.4067,-1.3907,9.0343,0.0008,-0.0003,0.0004,1.0000,-0.0852,-0.0350,0.2258
8565,Right,2,0.1623,-0.1549,-0.8082,-0.5444,-0.0589,-0.0515,-0.0140,-0.0085,0.0897,0.0402,-4.1753,0.7097,8.8967,-0.0007,-0.0006,-0.0002,1.0000,-0.1045,0.0179,0.2223
8566,Pelvis,2,0.5748,-0.3727,0.5119,0.5184,0.6340,0.0347,-0.1799,-0.4685,-0.0835,0.0294,9.4988,2.5486,0.6091,0.0079,0.0004,-0.0022,1.0000,0.2376,0.0631,0.0156
8566,Left,2,0.1877,-0.0453,-0.8100,-0.5537,0.0478,-0.0219,0.0317,-0.0095,0.0425,0.0711,-3.4639,-1.3405,9.1594,0.0006,-0.0003,0.0004,1.0000,-0.0866,-0.0337,0.2289
8566,Right,2,0.1620,-0.1538,-0.8085,-0.5445,-0.0592,-0.0636,-0.0143,-0.0143,0.1577,-0.0859,-4.0480,0.6662,8.8207,-0.0007,-0.0008,-0.0002,1.0000,-0.1014,0.0168,0.2204
8567,Pelvis,2,0.5801,-0.3664,0.5141,0.5147,0.7115,0.0363,-0.2159,-0.4043,-0.1302,0.0314,9.4964,2.5506,0.6320,0.0089,0.0005,-0.0027,1.0000,0.2376,0.0630,0.0163
8567,Left,2,0.1873,-0.0451,-0.8103,-0.5534,0.0140,-0.0407,0.0340,-0.0221,0.1166,-0.0309,-3.3521,-1.3369,9.0925,0.0002,-0.0005,0.0004,1.0000,-0.0839,-0.0335,0.2273
8567,Right,2,0.1620,-0.1527,-0.8086,-0.5447,-0.0656,-0.0496,-0.0170,-0.0619,0.1437,-0.0826,-4.0314,0.6994,8.8294,-0.0008,-0.0006,-0.0002,1.0000,-0.1009,0.0177,0.2207
8568,Pelvis,2,0.5859,-0.3590,0.5169,0.5106,0.8182,0.0876,-0.2412,-0.2287,-0.1096,0.0874,9.5745,2.4540,0.6189,0.0102,0.0011,-0.0030,0.9999,0.2396,0.0605,0.0158
8568,Left,2,0.1872,-0.0451,-0.8105,-0.5532,0.0038,-0.0158,0.0446,-0.0238,0.2164,0.0916,-3.3032,-1.3885,9.2360,0.0000,-0.0002,0.0006,1.0000,-0.0826,-0.0348,0.2309
8568,Right,2,0.1623,-0.1516,-0.8085,-0.5450,-0.0794,-0.0319,-0.0221,-0.0652,0.1332,-0.0391,-4.0492,0.6903,8.8697,-0.0010,-0.0004,-0.0003,1.0000,-0.1013,0.0175,0.2217
8569,Pelvis,2,0.5918,-0.3503,0.5210,0.5056,0.9471,0.1645,-0.2175,-0.0562,0.0133,-0.0992,9.4277,2.2841,0.5062,0.0118,0.0021,-0.0027,0.9999,0.2359,0.0563,0.0128
8569,Left,2,0.1878,-0.0453,-0.8110,-0.5523,-0.0040,0.0563,0.0769,-0.1174,0.4038,0.0802,-3.1091,-1.3726,9.3003,-0.0001,0.0007,0.0010,1.0000,-0.0775,-0.0344,0.2326
8569,Right,2,0.1626,-0.1504,-0.8086,-0.5450,-0.0893,-0.0308,-0.0234,-0.0158,0.1044,-0.0276,-4.0872,0.6342,8.8686,-0.0011,-0.0004,-0.0003,1.0000,-0.1023,0.0161,0.2217
8570,Pelvis,2,0.5982,-0.3411,0.5260,0.4991,1.0840,0.1686,-0.1577,0.1494,0.4249,-0.3817,9.2324,1.9729,0.1317,0.0135,0.0021,-0.0020,0.9999,0.2309,0.0488,0.0035
8570,Left,2,0.1904,-0.0467,-0.8115,-0.5504,-0.0349,0.2365,0.1483,-0.3729,0.5461,0.0705,-2.9348,-1.1937,9.3849,-0.0004,0.0030,0.0019,1.0000,-0.0726,-0.0299,0.2349
8570,Right,2,0.1629,-0.1492,-0.8088,-0.5450,-0.0812,-0.0297,-0.0172,0.0041,0.0970,-0.0058,-4.1019,0.5968,8.8883,-0.0010,-0.0004,-0.0002,1.0000,-0.1026,0.0152,0.2222
8571,Pelvis,2,0.6041,-0.3315,0.5324,0.4917,1.1652,0.2464,-0.0798,-0.0327,0.7846,-0.2614,9.3478,2.0950,-0.2696,0.0146,0.0031,-0.0010,0.9999,0.2337,0.0522,-0.0067
8571,Left,2,0.1944,-0.0460,-0.8157,-0.5428,-0.3320,0.1914,0.6692,-5.2675,1.6257,-0.3273,-0.3056,2.8541,10.5888,-0.0041,0.0024,0.0084,1.0000,-0.0076,0.0724,0.2644
8571,Right,2,0.1633,-0.1481,-0.8089,-0.5451,-0.0824,-0.0217,-0.0154,-0.0378,0.1540,-0.0314,-4.0231,0.5918,8.8974,-0.0010,-0.0003,-0.0002,1.0000,-0.1006,0.0150,0.2224
8572,Pelvis,2,0.6089,-0.3225,0.5392,0.4841,1.1124,0.2816,0.0102,-0.7323,0.7105,0.1390,9.5795,2.8535,-0.4109,0.0139,0.0035,0.0001,0.9999,0.2394,0.0715,-0.0101
8572,Left,2,0.1993,-0.0375,-0.8274,-0.5238,-1.0999,-0.1611,1.6079,-5.1957,0.6569,2.1412,-1.9978,2.6717,12.6176,-0.0137,-0.0020,0.0201,0.9997,-0.0520,0.0701,0.3144
8572,Right,2,0.1640,-0.1468,-0.8089,-0.5452,-0.1045,-0.0009,-0.0337,-0.1152,0.1667,-0.0538,-3.9725,0.6333,8.8935,-0.0013,-0.0000,-0.0004,1.0000,-0.0993,0.0162,0.2223
8573,Pelvis,2,0.6126,-0.3144,0.5459,0.4774,0.9847,0.3098,0.0403,-1.6085,0.4310,0.5741,9.7873,3.8300,-0.4458,0.0123,0.0039,0.0005,0.9999,0.2446,0.0960,-0.0109
8573,Left,2,0.1963,-0.0273,-0.8432,-0.4998,-0.9813,-0.7954,2.0911,-4.0900,3.3201,2.1049,0.0917,0.2130,13.0285,-0.0123,-0.0099,0.0261,0.9995,-0.0012,0.0093,0.3256
8573,Right,2,0.1652,-0.1455,-0.8088,-0.5453,-0.1280,0.0245,-0.0498,-0.0700,0.1546,-0.0340,-4.0079,0.5664,8.9032,-0.0016,0.0003,-0.0006,1.0000,-0.1001,0.0146,0.2226
8574,Pelvis,2,0.6163,-0.3070,0.5512,0.4713,0.8887,0.2317,0.0143,-1.5897,0.0779,0.4755,9.6529,3.8964,-0.1420,0.0111,0.0029,0.0002,0.9999,0.2413,0.0975,-0.0032
8574,Left,2,0.1855,-0.0206,-0.8595,-0.4758,-0.4394,-1.1753,2.1714,-5.4981,2.6710,0.8677,0.9571,1.6729,12.1548,-0.0055,-0.0147,0.0271,0.9995,0.0183,0.0440,0.3039
8574,Right,2,0.1665,-0.1441,-0.8087,-0.5454,-0.1394,0.0349,-0.0541,-0.0103,0.1193,0.0182,-4.0857,0.4908,8.9290,-0.0017,0.0004,-0.0007,1.0000,-0.1020,0.0127,0.2232
8575,Pelvis,2,0.6197,-0.2994,0.5559,0.4661,0.8333,0.2433,-0.0560,-1.1894,0.1675,0.2574,9.5351,3.4526,-0.1027,0.0104,0.0030,-0.0007,0.9999,0.2384,0.0862,-0.0024
8575,Left,2,0.1733,-0.0126,-0.8760,-0.4499,-0.5113,-1.3123,2.3002,-4.8682,1.9499,-0.7928,1.0788,1.5950,10.2552,-0.0064,-0.0164,0.0287,0.9994,0.0216,0.0422,0.2565
8575,Right,2,0.1678,-0.1426,-0.8086,-0.5456,-0.1492,0.0239,-0.0578,-0.0000,0.0896,0.0582,-4.1369,0.4552,8.9511,-0.0019,0.0003,-0.0007,1.0000,-0.1033,0.0119,0.2238
8576,Pelvis,2,0.6232,-0.2915,0.5603,0.4612,0.8191,0.2398,-0.0946,-0.7775,0.3553,0.1288,9.5164,2.9979,-0.1215,0.0102,0.0030,-0.0012,0.9999,0.2380,0.0747,-0.0030
8576,Left,2,0.1582,-0.0054,-0.8935,-0.4203,-0.4047,-1.5074,2.6091,-4.0936,0.6366,-0.5726,0.0255,1.5906,10.0016,-0.0051,-0.0188,0.0326,0.9993,-0.0054,0.0409,0.2498
8576,Right,2,0.1690,-0.1407,-0.8084,-0.5460,-0.1638,-0.0057,-0.0627,0.0034,0.0736,0.0901,-4.1666,0.4167,8.9742,-0.0020,-0.0001,-0.0008,1.0000,-0.1042,0.0110,0.2243
8577,Pelvis,2,0.6258,-0.2833,0.5655,0.4565,0.8219,0.3344,-0.0678,-0.8129,0.5107,-0.2016,9.2090,2.8992,-0.2888,0.0103,0.0042,-0.0008,0.9999,0.2303,0.0724,-0.0074
8577,Left,2,0.1435,0.0009,-0.9107,-0.3874,-0.3752,-1.4556,2.8621,-2.5627,-0.2448,-1.3212,-0.8950,1.0374,8.7675,-0.0047,-0.0182,0.0358,0.9992,-0.0273,0.0260,0.2186
8577,Right,2,0.1700,-0.1384,-0.8084,-0.5462,-0.1766,-0.0244,-0.0681,0.0014,0.0954,0.0148,-4.1103,0.3614,8.9198,-0.0022,-0.0003,-0.0009,1.0000,-0.1028,0.0096,0.2229
8578,Pelvis,2,0.6285,-0.2753,0.5708,0.4510,0.8442,0.3157,-0.0130,-1.0891,0.3277,-0.3157,9.0130,3.1924,-0.2465,0.0106,0.0039,-0.0002,0.9999,0.2253,0.0798,-0.0062
8578,Left,2,0.1334,0.0063,-0.9253,-0.3548,-0.4487,-1.0586,2.7751,-0.9590,-0.5538,-1.9277,-1.7033,0.1931,7.7759,-0.0056,-0.0132,0.0347,0.9993,-0.0453,0.0044,0.1938
8578,Right,2,0.1709,-0.1363,-0.8084,-0.5466,-0.1695,-0.0310,-0.0648,0.0297,0.0937,0.0053,-4.1100,0.2898,8.9122,-0.0021,-0.0004,-0.0008,1.0000,-0.1028,0.0078,0.2227
8579,Pelvis,2,0.6305,-0.2680,0.5764,0.4454,0.8045,0.3321,0.0419,-1.3759,0.2679,-0.2985,8.9665,3.4612,-0.3240,0.0101,0.0042,0.0005,0.9999,0.2241,0.0867,-0.0082
8579,Left,2,0.1286,0.0151,-0.9364,-0.3263,-0.8051,-0.7264,2.3387,1.0117,-1.3379,0.6519,-4.0700,-0.7524,9.7567,-0.0101,-0.0091,0.0292,0.9995,-0.1034,-0.0194,0.2432
8579,Right,2,0.1715,-0.1340,-0.8084,-0.5469,-0.1650,-0.0564,-0.0597,0.0783,0.0676,0.0569,-4.1595,0.2111,8.9484,-0.0021,-0.0007,-0.0007,1.0000,-0.1041,0.0058,0.2236
8580,Pelvis,2,0.6316,-0.2610,0.5825,0.4402,0.7529,0.3991,0.0842,-1.4572,0.2050,-0.3592,8.8895,3.5241,-0.3000,0.0094,0.0050,0.0011,0.9999,0.2221,0.0884,-0.0078
8580,Left,2,0.1222,0.0252,-0.9447,-0.3032,-0.8070,-0.8462,1.8446,2.3438,-1.5572,0.6112,-5.0613,-1.3450,9.4421,-0.0101,-0.0106,0.0231,0.9996,-0.1282,-0.0342,0.2350
8580,Right,2,0.1716,-0.1316,-0.8084,-0.5474,-0.1514,-0.0969,-0.0536,0.0635,0.0767,0.0040,-4.1060,0.1782,8.9155,-0.0019,-0.0012,-0.0007,1.0000,-0.1029,0.0049,0.2228
8581,Pelvis,2,0.6324,-0.2549,0.5883,0.4348,0.6972,0.3565,0.1350,-1.5201,0.2114,-0.4370,8.8163,3.5250,-0.3239,0.0087,0.0045,0.0017,1.0000,0.2202,0.0886,-0.0083
8581,Left,2,0.1146,0.0319,-0.9516,-0.2833,-0.4886,-0.8316,1.5978,2.4778,-2.4077,-0.9592,-5.1764,-0.4639,7.9570,-0.0061,-0.0104,0.0200,0.9997,-0.1312,-0.0130,0.1976
8581,Right,2,0.1716,-0.1292,-0.8086,-0.5478,-0.1508,-0.1043,-0.0503,0.0082,0.1655,-0.0736,-3.9562,0.1553,8.8996,-0.0019,-0.0013,-0.0006,1.0000,-0.0992,0.0044,0.2224
8582,Pelvis,2,0.6330,-0.2501,0.5936,0.4294,0.6321,0.3040,0.1896,-1.6430,0.3178,-0.4810,8.7894,3.5225,-0.4684,0.0079,0.0038,0.0024,1.0000,0.2195,0.0887,-0.0118
8582,Left,2,0.1089,0.0374,-0.9572,-0.2656,-0.4287,-0.6433,1.4168,3.1954,-2.8860,-2.0992,-5.6668,-0.1862,6.7744,-0.0054,-0.0080,0.0177,0.9998,-0.1429,-0.0063,0.1682
8582,Right,2,0.1718,-0.1271,-0.8087,-0.5481,-0.1377,-0.0735,-0.0474,0.0004,0.1606,-0.1185,-3.9170,0.1263,8.8682,-0.0017,-0.0009,-0.0006,1.0000,-0.0981,0.0036,0.2216
8583,Pelvis,2,0.6337,-0.2465,0.5985,0.4237,0.5772,0.2261,0.2443,-1.8795,0.3763,-0.4557,8.8076,3.6392,-0.6394,0.0072,0.0028,0.0031,1.0000,0.2199,0.0918,-0.0159
8583,Left,2,0.1062,0.0405,-0.9617,-0.2495,-0.2983,-0.3484,1.2967,4.1782,-3.0538,-2.4531,-6.4332,-0.3463,6.2804,-0.0037,-0.0044,0.0162,0.9999,-0.1613,-0.0107,0.1563
8583,Right,2,0.1723,-0.1254,-0.8086,-0.5485,-0.1236,-0.0426,-0.0547,-0.0342,0.1721,-0.1170,-3.8822,0.1192,8.8854,-0.0015,-0.0005,-0.0007,1.0000,-0.0972,0.0034,0.2221
8584,Pelvis,2,0.6336,-0.2434,0.6035,0.4185,0.5045,0.2672,0.2652,-2.1741,0.4622,-0.2628,8.9915,3.8163,-0.8549,0.0063,0.0033,0.0033,1.0000,0.2244,0.0963,-0.0215
8584,Left,2,0.1104,0.0402,-0.9661,-0.2298,-0.2065,0.2373,1.6246,5.3012,-5.4655,-5.4887,-7.9606,1.8574,3.1400,-0.0026,0.0030,0.0203,0.9998,-0.1997,0.0426,0.0790
8584,Right,2,0.1728,-0.1241,-0.8084,-0.5488,-0.1038,-0.0154,-0.0513,0.0498,0.1549,-0.0660,-3.9383,0.0179,8.9171,-0.0013,-0.0002,-0.0006,1.0000,-0.0985,0.0008,0.2229
8585,Pelvis,2,0.6329,-0.2409,0.6083,0.4139,0.4210,0.2757,0.2732,-2.2319,0.4438,-0.2976,8.9763,3.7953,-0.8592,0.0053,0.0034,0.0034,1.0000,0.2240,0.0958,-0.0217
8585,Left,2,0.1207,0.0356,-0.9709,-0.2036,-0.0397,0.7582,2.1807,6.7448,0.2329,-0.3592,-7.7939,-4.1496,7.5485,-0.0005,0.0095,0.0273,0.9996,-0.1901,-0.1089,0.1906
8585,Right,2,0.1736,-0.1229,-0.8082,-0.5491,-0.1030,0.0042,-0.0469,-0.0344,0.1215,-0.0188,-3.9557,0.0798,8.9601,-0.0013,0.0001,-0.0006,1.0000,-0.0989,0.0023,0.2240
8586,Pelvis,2,0.6319,-0.2393,0.6129,0.4096,0.3511,0.2536,0.3035,-1.9422,-0.0297,-0.2807,8.9709,3.7516,-0.2839,0.0044,0.0032,0.0038,1.0000,0.2239,0.0947,-0.0074
8586,Left,2,0.1354,0.0333,-0.9700,-0.1992,-0.1002,1.1809,0.3936,7.5918,12.8340,-0.7329,-3.7279,-15.7378,6.5746,-0.0013,0.0148,0.0049,0.9999,-0.0888,-0.3937,0.1662
8586,Right,2,0.1746,-0.1217,-0.8081,-0.5493,-0.1070,0.0163,-0.0445,-0.0819,0.0974,0.0041,-3.9709,0.1039,8.9781,-0.0013,0.0002,-0.0006,1.0000,-0.0992,0.0030,0.2245
8587,Pelvis,2,0.6323,-0.2382,0.6161,0.4050,0.3602,0.0985,0.2675,-1.4287,-0.1354,0.4773,9.7807,3.5004,0.1717,0.0045,0.0012,0.0033,1.0000,0.2442,0.0883,0.0044
8587,Left,2,0.1518,0.0191,-0.9678,-0.1999,0.8601,1.5286,0.1131,-0.3124,-3.5007,2.6169,-4.4364,1.9928,11.9675,0.0107,0.0191,0.0014,0.9998,-0.1052,0.0464,0.3017
8587,Right,2,0.1760,-0.1207,-0.8077,-0.5496,-0.1235,0.0522,-0.0568,-0.1947,0.1951,-0.0502,-3.8349,0.1412,8.9808,-0.0015,0.0007,-0.0007,1.0000,-0.0957,0.0039,0.2246
8588,Pelvis,2,0.6327,-0.2369,0.6186,0.4012,0.3065,0.0793,0.1963,-1.5294,-0.5215,0.7516,9.9781,3.8028,0.4374,0.0038,0.0010,0.0025,1.0000,0.2492,0.0956,0.0111
8588,Left,2,0.1570,0.0157,-0.9669,-0.2007,0.2050,0.4708,-0.0213,-0.2892,-1.3036,1.3586,-3.5202,0.2435,10.6832,0.0026,0.0059,-0.0003,1.0000,-0.0864,0.0054,0.2676
8588,Right,2,0.1782,-0.1198,-0.8071,-0.5500,-0.1411,0.1127,-0.0817,-0.0711,0.2651,-0.0881,-3.8190,-0.0364,8.9475,-0.0018,0.0014,-0.0010,1.0000,-0.0952,-0.0004,0.2238
8589,Pelvis,2,0.6329,-0.2364,0.6202,0.3986,0.1877,0.0432,0.1532,-1.6381,-0.0431,1.4621,10.7656,3.7289,0.0424,0.0023,0.0005,0.0019,1.0000,0.2690,0.0937,0.0011
8589,Left,2,0.1656,0.0128,-0.9653,-0.2014,0.1009,0.7306,-0.0275,0.8749,-0.4772,1.9802,-4.5544,-0.9854,10.8791,0.0013,0.0091,-0.0003,1.0000,-0.1114,-0.0249,0.2730
8589,Right,2,0.1808,-0.1197,-0.8062,-0.5505,-0.1038,0.1785,-0.0927,-0.0819,0.3314,-0.0262,-3.8171,-0.0873,9.0175,-0.0013,0.0022,-0.0012,1.0000,-0.0949,-0.0018,0.2257
8590,Pelvis,2,0.6306,-0.2345,0.6237,0.3978,0.1213,0.3408,0.1076,-0.5701,-0.6519,1.2098,10.5345,3.1434,1.1787,0.0015,0.0043,0.0013,1.0000,0.2634,0.0789,0.0285
8590,Left,2,0.1687,0.0135,-0.9646,-0.2021,-0.0781,0.2434,-0.0674,0.6323,-0.1960,1.1128,-4.0893,-1.0761,10.0958,-0.0010,0.0030,-0.0008,1.0000,-0.1015,-0.0266,0.2527
8590,Right,2,0.1842,-0.1202,-0.8047,-0.5514,-0.0886,0.2512,-0.1406,-0.3380,0.3535,0.0716,-3.8038,0.1088,9.1356,-0.0011,0.0031,-0.0018,1.0000,-0.0944,0.0031,0.2287
8591,Pelvis,2,0.6286,-0.2331,0.6260,0.3984,0.0132,0.2748,0.0128,-0.0573,-0.8634,1.1360,10.4713,2.8307,1.7213,0.0002,0.0034,0.0002,1.0000,0.2619,0.0708,0.0421
8591,Right,2,0.1908,-0.1197,-0.8014,-0.5541,-0.2507,0.4370,-0.3918,-1.4067,0.3335,0.4179,-3.7084,1.0428,9.5873,-0.0031,0.0055,-0.0049,1.0000,-0.0913,0.0273,0.2401
8592,Pelvis,2,0.6277,-0.2308,0.6272,0.3992,0.0591,0.1981,-0.0990,0.8901,-0.2282,1.4046,10.9529,1.7871,1.8744,0.0007,0.0025,-0.0012,1.0000,0.2740,0.0443,0.0462
8592,Left,2,0.1693,0.0158,-0.9643,-0.2031,-0.0768,0.0103,-0.0546,0.0286,-0.0353,0.2943,-3.2743,-0.9535,9.5144,-0.0019,0.0003,-0.0014,1.0000,-0.1637,-0.0465,0.4759
8592,Right,2,0.2056,-0.1143,-0.7953,-0.5587,-0.8779,0.7560,-0.7801,-1.3158,1.3263,0.6835,-3.1744,0.4071,10.1700,-0.0110,0.0094,-0.0098,0.9998,-0.0768,0.0137,0.2548
8593,Pelvis,2,0.6267,-0.2280,0.6294,0.3988,0.1696,0.2478,-0.0225,1.1320,0.2695,0.4515,10.1457,1.1305,1.5798,0.0021,0.0031,-0.0003,1.0000,0.2538,0.0281,0.0388
8593,Left,2,0.1692,0.0174,-0.9642,-0.2034,-0.0989,-0.0305,-0.0393,0.0190,-0.0267,0.1204,-3.2027,-0.9831,9.3511,-0.0012,-0.0004,-0.0005,1.0000,-0.0802,-0.0242,0.2338
8593,Right,2,0.2321,-0.1031,-0.7837,-0.5668,-1.6585,1.3074,-1.4579,-3.3954,-0.3330,2.2919,-5.0269,2.3892,11.2799,-0.0207,0.0163,-0.0182,0.9995,-0.1199,0.0678,0.2826
8594,Pelvis,2,0.6259,-0.2251,0.6332,0.3958,0.3317,0.2731,0.1460,1.3679,0.9540,0.0212,9.8920,0.4517,1.1965,0.0041,0.0034,0.0018,1.0000,0.2474,0.0116,0.0291
8594,Left,2,0.1686,0.0193,-0.9642,-0.2037,-0.1225,-0.0722,-0.0456,0.0181,-0.0612,0.0573,-3.1819,-0.9771,9.2920,-0.0015,-0.0009,-0.0006,1.0000,-0.0798,-0.0240,0.2323
8594,Right,2,0.2714,-0.0831,-0.7654,-0.5776,-2.6822,1.8141,-2.1921,-5.0956,-1.8548,4.1287,-7.3762,3.3602,12.5796,-0.0335,0.0227,-0.0274,0.9988,-0.1747,0.0994,0.3154
8595,Pelvis,2,0.6259,-0.2213,0.6381,0.3900,0.5724,0.2695,0.2609,1.3246,1.0509,-0.2225,9.6667,0.3419,1.1270,0.0072,0.0034,0.0033,1.0000,0.2417,0.0091,0.0274
8595,Left,2,0.1680,0.0214,-0.9642,-0.2040,-0.1384,-0.0801,-0.0472,-0.0142,0.1309,-0.1150,-3.0033,-1.1593,9.1487,-0.0017,-0.0010,-0.0006,1.0000,-0.0753,-0.0285,0.2287
8595,Right,2,0.3206,-0.0432,-0.7459,-0.5823,-4.4898,1.5671,-2.3834,-10.3128,-1.8487,2.1286,-6.2196,7.0663,12.8108,-0.0561,0.0196,-0.0298,0.9978,-0.1436,0.1987,0.3124
8596,Pelvis,2,0.6268,-0.2172,0.6433,0.3823,0.7144,0.2082,0.3380,1.3039,1.0155,-0.1648,9.7088,0.3381,1.1993,0.0089,0.0026,0.0042,0.9999,0.2428,0.0092,0.0294
8596,Left,2,0.1680,0.0234,-0.9641,-0.2042,-0.1346,-0.0331,-0.0373,-0.0605,0.1556,-0.1619,-2.9240,-1.1964,9.1205,-0.0017,-0.0004,-0.0005,1.0000,-0.0732,-0.0295,0.2280
8596,Right,2,0.3618,-0.0060,-0.7358,-0.5725,-4.3661,1.0246,-0.9798,-8.9036,-0.3356,-2.1024,-3.5145,5.1280,10.0167,-0.0545,0.0128,-0.0122,0.9984,-0.0830,0.1427,0.2440
8597,Pelvis,2,0.6276,-0.2125,0.6493,0.3733,0.8187,0.2573,0.3951,1.2431,1.1163,-0.3104,9.5806,0.2281,1.1159,0.0102,0.0032,0.0049,0.9999,0.2396,0.0066,0.0272
8597,Left,2,0.1685,0.0252,-0.9640,-0.2042,-0.1331,0.0148,-0.0247,-0.0545,0.1004,-0.1180,-2.9614,-1.1892,9.1551,-0.0017,0.0002,-0.0003,1.0000,-0.0740,-0.0293,0.2289
8597,Right,2,0.3694,-0.0203,-0.7583,-0.5367,-0.5568,0.4733,3.5545,-18.1268,-6.4849,-3.6968,-6.6238,15.3385,11.3595,-0.0070,0.0059,0.0444,0.9990,-0.1808,0.3776,0.2824
8598,Pelvis,2,0.6290,-0.2074,0.6553,0.3632,0.9164,0.2050,0.4324,1.1425,1.0412,-0.2690,9.5940,0.2852,1.1594,0.0115,0.0026,0.0054,0.9999,0.2399,0.0081,0.0285
8598,Left,2,0.1691,0.0267,-0.9638,-0.2042,-0.1178,0.0274,-0.0145,0.0514,0.1318,-0.0627,-3.0609,-1.2987,9.1666,-0.0015,0.0003,-0.0002,1.0000,-0.0764,-0.0321,0.2292
8598,Right,2,0.3818,-0.0261,-0.7877,-0.4828,-1.8307,0.2253,4.6738,-8.6188,-2.6197,-2.4969,-4.7458,5.6671,8.9479,-0.0229,0.0028,0.0584,0.9980,-0.1262,0.1395,0.2208
8599,Pelvis,2,0.6299,-0.2028,0.6617,0.3526,0.9063,0.2432,0.4958,0.4758,0.4905,-0.0185,9.6852,1.0962,1.1792,0.0113,0.0030,0.0062,0.9999,0.2420,0.0286,0.0291
8599,Left,2,0.1696,0.0281,-0.9637,-0.2042,-0.1011,0.0186,-0.0139,0.0605,0.0935,-0.0666,-3.0869,-1.2961,9.1537,-0.0013,0.0002,-0.0002,1.0000,-0.0771,-0.0321,0.2289
8599,Right,2,0.3842,-0.0330,-0.8156,-0.4315,-1.2898,-0.3266,4.5144,-3.4348,2.0589,-0.9156,-3.2554,-1.2916,9.1066,-0.0161,-0.0041,0.0564,0.9983,-0.0805,-0.0332,0.2279
8600,Pelvis,2,0.6313,-0.1985,0.6669,0.3425,0.8593,0.1506,0.4425,0.1794,-0.0911,-0.6938,8.8995,1.4995,1.3216,0.0107,0.0019,0.0055,0.9999,0.2223,0.0384,0.0330
8600,Left,2,0.1698,0.0293,-0.9637,-0.2042,-0.0874,-0.0020,-0.0145,0.0913,0.1256,-0.0598,-3.1033,-1.3641,9.1461,-0.0011,-0.0000,-0.0002,1.0000,-0.0776,-0.0338,0.2287
8600,Right,2,0.3780,-0.0380,-0.8395,-0.3886,-0.8552,-0.8442,3.7881,-3.2574,2.9935,-0.5994,-2.9158,-2.0168,9.5858,-0.0107,-0.0105,0.0473,0.9988,-0.0730,-0.0513,0.2394
8601,Pelvis,2,0.6326,-0.1938,0.6714,0.3338,0.8056,0.1543,0.3365,0.0963,-0.3492,-0.6457,8.9008,1.6860,1.4487,0.0101,0.0019,0.0042,0.9999,0.2224,0.0427,0.0362
8601,Left,2,0.1699,0.0305,-0.9636,-0.2042,-0.0798,-0.0048,-0.0158,0.0256,0.0435,-0.0783,-3.0722,-1.2850,9.1472,-0.0010,-0.0001,-0.0002,1.0000,-0.0768,-0.0319,0.2287
8601,Right,2,0.3644,-0.0403,-0.8599,-0.3551,-0.5004,-1.3495,2.9910,-2.8451,3.4612,-0.6461,-2.6899,-2.5316,9.5110,-0.0063,-0.0169,0.0374,0.9991,-0.0689,-0.0644,0.2370
8602,Pelvis,2,0.6342,-0.1896,0.6750,0.3260,0.7205,0.0883,0.2759,0.0828,0.0881,-0.6192,9.0229,1.3493,1.1408,0.0090,0.0011,0.0034,1.0000,0.2255,0.0343,0.0286
8602,Left,2,0.1699,0.0321,-0.9635,-0.2044,-0.1113,-0.0210,-0.0331,-0.0616,-0.1379,-0.0418,-3.0778,-1.1174,9.2072,-0.0014,-0.0003,-0.0004,1.0000,-0.0770,-0.0276,0.2302
8602,Right,2,0.3453,-0.0401,-0.8773,-0.3310,-0.2385,-1.7286,2.2092,-3.6422,2.7128,-0.6517,-2.4943,-1.3789,9.8203,-0.0030,-0.0216,0.0276,0.9994,-0.0667,-0.0355,0.2442
8603,Pelvis,2,0.6361,-0.1851,0.6781,0.3182,0.7330,0.0661,0.2457,-0.0686,0.2366,-0.2823,9.3869,1.3587,0.9641,0.0092,0.0008,0.0031,1.0000,0.2346,0.0345,0.0242
8603,Left,2,0.1700,0.0343,-0.9633,-0.2047,-0.1491,-0.0255,-0.0528,0.0408,0.1394,-0.0984,-3.0282,-1.4390,9.1185,-0.0019,-0.0003,-0.0007,1.0000,-0.0758,-0.0355,0.2280
8603,Right,2,0.3221,-0.0362,-0.8918,-0.3156,-0.1440,-2.0751,1.4309,-4.1257,1.5202,-0.3187,-2.6648,-0.1390,10.1179,-0.0018,-0.0259,0.0179,0.9995,-0.0731,-0.0043,0.2511
8604,Pelvis,2,0.6382,-0.1802,0.6810,0.3105,0.7639,0.0494,0.2129,-0.2666,0.2642,-0.7252,8.9623,1.3662,0.7311,0.0095,0.0006,0.0027,1.0000,0.2240,0.0346,0.0185
8604,Left,2,0.1702,0.0362,-0.9632,-0.2049,-0.1385,-0.0088,-0.0430,0.0510,0.2141,-0.1337,-2.9893,-1.5460,9.0778,-0.0017,-0.0001,-0.0005,1.0000,-0.0748,-0.0382,0.2270
8604,Right,2,0.2953,-0.0319,-0.9043,-0.3067,0.0987,-2.3015,0.9129,-4.4452,-0.5666,-0.4651,-2.9488,1.8103,9.7733,0.0012,-0.0288,0.0114,0.9995,-0.0812,0.0441,0.2421
8605,Pelvis,2,0.6411,-0.1747,0.6834,0.3025,0.8189,-0.0130,0.1782,-0.3637,0.5055,-0.8241,8.9170,1.2040,0.4683,0.0102,-0.0002,0.0022,0.9999,0.2229,0.0305,0.0121
8605,Left,2,0.1708,0.0381,-0.9630,-0.2051,-0.1347,0.0187,-0.0353,-0.0513,0.1288,-0.1898,-2.9175,-1.4582,9.0544,-0.0017,0.0002,-0.0004,1.0000,-0.0729,-0.0360,0.2264
8605,Right,2,0.2662,-0.0304,-0.9159,-0.2987,0.3810,-2.3786,0.9073,-4.7882,-3.1587,-0.1342,-3.6592,4.2009,9.7766,0.0048,-0.0297,0.0113,0.9995,-0.0999,0.1028,0.2420
8606,Pelvis,2,0.6452,-0.1690,0.6847,0.2938,0.8805,-0.1376,0.1520,-0.6513,0.5107,-0.3437,9.3942,1.4254,0.2529,0.0110,-0.0017,0.0019,0.9999,0.2348,0.0360,0.0071
8606,Left,2,0.1715,0.0398,-0.9627,-0.2053,-0.1334,0.0319,-0.0341,0.0263,0.1000,-0.0837,-3.0328,-1.5130,9.1201,-0.0017,0.0004,-0.0004,1.0000,-0.0757,-0.0374,0.2281
8606,Right,2,0.2358,-0.0322,-0.9282,-0.2860,0.5550,-2.4032,1.3359,-4.3834,-4.8122,0.9710,-4.6280,5.4553,10.3705,0.0069,-0.0300,0.0167,0.9994,-0.1257,0.1326,0.2565
8607,Pelvis,2,0.6489,-0.1630,0.6862,0.2855,0.8700,-0.0874,0.1335,-0.8895,0.4995,-0.3853,9.3557,1.5455,0.0084,0.0109,-0.0011,0.0017,0.9999,0.2338,0.0390,0.0009
8607,Left,2,0.1722,0.0414,-0.9625,-0.2054,-0.1203,0.0359,-0.0301,0.0297,0.1412,-0.0814,-3.0253,-1.5869,9.1131,-0.0015,0.0004,-0.0004,1.0000,-0.0755,-0.0393,0.2279
8607,Right,2,0.2052,-0.0375,-0.9411,-0.2661,0.6756,-2.3293,1.9479,-3.0305,-4.9710,1.8776,-5.2602,5.1548,10.7889,0.0084,-0.0291,0.0243,0.9992,-0.1423,0.1232,0.2667
8608,Pelvis,2,0.6524,-0.1570,0.6876,0.2773,0.8586,-0.0857,0.1263,-1.2479,0.4776,-0.6537,9.0907,1.7063,-0.3487,0.0107,-0.0011,0.0016,0.9999,0.2272,0.0431,-0.0080
8608,Left,2,0.1730,0.0430,-0.9623,-0.2056,-0.1194,0.0392,-0.0294,0.0416,0.1074,-0.0935,-3.0521,-1.5915,9.0899,-0.0015,0.0005,-0.0004,1.0000,-0.0762,-0.0394,0.2273
8608,Right,2,0.1758,-0.0444,-0.9536,-0.2403,0.6704,-2.1751,2.4021,-0.7739,-3.8795,3.3150,-6.1957,3.5092,11.7209,0.0084,-0.0272,0.0300,0.9991,-0.1653,0.0804,0.2893
8609,Pelvis,2,0.6557,-0.1511,0.6887,0.2699,0.8020,-0.0770,0.0847,-1.3989,0.3564,-0.7318,8.9953,1.8482,-0.4651,0.0100,-0.0010,0.0011,0.9999,0.2248,0.0466,-0.0109
8609,Left,2,0.1737,0.0445,-0.9620,-0.2057,-0.1166,0.0380,-0.0271,0.0311,0.1391,-0.0895,-3.0383,-1.6493,9.0890,-0.0015,0.0005,-0.0003,1.0000,-0.0759,-0.0409,0.2273
8609,Right,2,0.1460,-0.0510,-0.9649,-0.2122,0.6320,-2.1912,2.5546,1.9663,-2.2062,5.4412,-7.6292,1.3769,13.4694,0.0079,-0.0274,0.0319,0.9991,-0.2008,0.0255,0.3316
8610,Pelvis,2,0.6588,-0.1451,0.6894,0.2639,0.7272,-0.0718,-0.0005,-1.4025,0.4054,-0.9095,8.8296,1.7657,-0.5648,0.0091,-0.0009,-0.0000,1.0000,0.2208,0.0443,-0.0135
8610,Left,2,0.1748,0.0461,-0.9618,-0.2057,-0.1261,0.0611,-0.0236,-0.0757,0.1999,-0.2655,-2.8757,-1.6689,8.9521,-0.0016,0.0008,-0.0003,1.0000,-0.0717,-0.0413,0.2239
8610,Right,2,0.1144,-0.0605,-0.9744,-0.1839,0.8861,-2.2680,2.5772,4.1808,0.6356,3.9992,-7.2716,-1.4631,12.3987,0.0111,-0.0283,0.0322,0.9990,-0.1891,-0.0460,0.3042
8611,Pelvis,2,0.6622,-0.1390,0.6895,0.2585,0.6922,-0.1100,-0.0603,-1.3345,0.7875,-0.2902,9.5032,1.5028,-0.7132,0.0087,-0.0014,-0.0008,1.0000,0.2376,0.0375,-0.0172
8611,Left,2,0.1767,0.0476,-0.9614,-0.2057,-0.1326,0.1302,-0.0082,-0.0685,0.2574,-0.2529,-2.8821,-1.7593,8.9476,-0.0017,0.0016,-0.0001,1.0000,-0.0717,-0.0436,0.2239
8611,Right,2,0.0825,-0.0708,-0.9813,-0.1587,0.9995,-2.2597,2.3114,5.8365,2.8965,2.6027,-7.1196,-3.5538,11.5480,0.0125,-0.0282,0.0289,0.9991,-0.1833,-0.0976,0.2824
8612,Pelvis,2,0.6648,-0.1323,0.6899,0.2541,0.6662,-0.0241,-0.1393,-1.3063,0.9428,-0.4939,9.3248,1.3389,-0.8311,0.0083,-0.0003,-0.0017,1.0000,0.2332,0.0332,-0.0204
8612,Left,2,0.1792,0.0488,-0.9609,-0.2054,-0.1280,0.1820,0.0099,-0.0405,0.2696,-0.2694,-2.9298,-1.8105,8.9044,-0.0016,0.0023,0.0001,1.0000,-0.0727,-0.0449,0.2228
8612,Right,2,0.0542,-0.0726,-0.9856,-0.1429,0.3649,-2.1223,1.4563,6.5545,2.9327,0.4439,-6.9558,-3.5398,9.7919,0.0046,-0.0265,0.0182,0.9995,-0.1786,-0.0928,0.2397
8613,Pelvis,2,0.6674,-0.1256,0.6900,0.2502,0.6374,-0.0363,-0.1600,-1.3173,0.8838,-0.3145,9.4850,1.4438,-0.8265,0.0080,-0.0005,-0.0020,1.0000,0.2372,0.0358,-0.0203
8613,Left,2,0.1823,0.0495,-0.9604,-0.2049,-0.0993,0.2350,0.0348,-0.0967,0.3166,-0.2727,-2.9081,-1.8585,8.9000,-0.0012,0.0029,0.0004,1.0000,-0.0720,-0.0462,0.2228
8613,Right,2,0.0317,-0.0763,-0.9874,-0.1347,0.4920,-1.6879,0.8132,6.5389,1.7076,-2.9587,-6.5286,-2.5293,6.6065,0.0061,-0.0211,0.0102,0.9997,-0.1660,-0.0659,0.1613
8614,Pelvis,2,0.6695,-0.1196,0.6905,0.2461,0.5956,-0.0034,-0.1044,-1.2249,0.8968,0.1389,9.9295,1.4783,-0.7477,0.0074,-0.0000,-0.0013,1.0000,0.2483,0.0368,-0.0184
8614,Left,2,0.1858,0.0496,-0.9598,-0.2042,-0.0663,0.2789,0.0622,-0.0806,0.2543,-0.2409,-3.0165,-1.8312,8.9016,-0.0008,0.0035,0.0008,1.0000,-0.0746,-0.0457,0.2228
8614,Right,2,0.0158,-0.0853,-0.9880,-0.1275,0.8610,-1.0976,0.6914,7.9512,-0.9106,-3.3218,-8.3431,-0.2258,6.0446,0.0108,-0.0137,0.0086,0.9998,-0.2106,-0.0091,0.1481
8615,Pelvis,2,0.6713,-0.1134,0.6916,0.2413,0.6509,0.0433,-0.0648,-0.9749,1.2748,0.1772,10.0369,1.0480,-0.7318,0.0081,0.0005,-0.0008,1.0000,0.2509,0.0261,-0.0182
8615,Left,2,0.1909,0.0487,-0.9591,-0.2031,-0.0220,0.4109,0.1098,-0.1479,0.3538,-0.3240,-2.9702,-1.8892,8.8200,-0.0003,0.0051,0.0014,1.0000,-0.0731,-0.0473,0.2209
8615,Right,2,0.0018,-0.0916,-0.9892,-0.1144,0.6108,-0.9509,1.1499,9.9654,-2.7857,-3.2231,-10.5901,1.4018,6.0330,0.0076,-0.0119,0.0144,0.9998,-0.2670,0.0301,0.1479
8616,Pelvis,2,0.6736,-0.1058,0.6927,0.2351,0.8137,0.0339,-0.0596,-0.9844,1.6577,0.1544,10.0831,0.7208,-0.9341,0.0102,0.0004,-0.0007,0.9999,0.2521,0.0181,-0.0233
8616,Left,2,0.1956,0.0476,-0.9585,-0.2019,0.0020,0.3925,0.1221,-0.0276,0.2229,0.0786,-3.3593,-1.8795,9.1143,0.0000,0.0049,0.0015,1.0000,-0.0828,-0.0471,0.2283
8616,Right,2,-0.0059,-0.0897,-0.9913,-0.0959,-0.1074,-0.4881,1.5358,10.0483,-1.8625,-7.8570,-10.2444,0.0547,1.8236,-0.0013,-0.0061,0.0192,0.9998,-0.2563,-0.0035,0.0440
8617,Pelvis,2,0.6761,-0.0976,0.6939,0.2278,0.9094,0.0203,-0.0405,-1.4974,1.7745,0.4125,10.3485,0.8908,-1.4360,0.0114,0.0003,-0.0005,0.9999,0.2587,0.0225,-0.0357
8617,Left,2,0.2018,0.0464,-0.9575,-0.2007,-0.0176,0.5005,0.1295,-0.3787,0.0623,-0.1402,-3.1567,-1.5610,9.0169,-0.0002,0.0063,0.0016,1.0000,-0.0774,-0.0391,0.2259
8617,Right,2,-0.0043,-0.0860,-0.9934,-0.0762,-0.3130,0.2489,1.5654,11.1932,-0.3663,-8.6255,-11.0963,-1.3375,1.3889,-0.0039,0.0031,0.0196,0.9998,-0.2766,-0.0387,0.0357
8618,Pelvis,2,0.6784,-0.0894,0.6952,0.2204,0.9112,0.0454,-0.0200,-2.0298,1.6785,0.5611,10.4675,1.2096,-1.8769,0.0114,0.0006,-0.0002,0.9999,0.2617,0.0307,-0.0467
8618,Left,2,0.2100,0.0458,-0.9560,-0.1995,-0.1010,0.6660,0.1131,-0.4808,-0.2535,0.0958,-3.4220,-1.2817,9.2263,-0.0013,0.0083,0.0014,1.0000,-0.0836,-0.0319,0.2314
8618,Right,2,0.0088,-0.0796,-0.9951,-0.0578,-0.6012,1.1301,1.3793,10.5974,-1.9583,-8.4133,-10.7849,0.7283,1.1274,-0.0075,0.0141,0.0172,0.9997,-0.2695,0.0138,0.0319
8619,Pelvis,2,0.6807,-0.0816,0.6960,0.2133,0.8722,0.0134,-0.0379,-2.1300,1.4872,0.3763,10.2487,1.3553,-1.9213,0.0109,0.0002,-0.0005,0.9999,0.2562,0.0343,-0.0477
8619,Left,2,0.2204,0.0458,-0.9539,-0.1986,-0.1764,0.8295,0.0758,-0.6944,0.2604,-0.2185,-3.0901,-1.6483,8.9630,-0.0022,0.0104,0.0009,0.9999,-0.0749,-0.0408,0.2249
8619,Right,2,0.0359,-0.0567,-0.9969,-0.0405,-1.9764,2.1586,1.1956,7.0384,3.0697,-3.7943,-7.0154,-2.9337,6.1155,-0.0247,0.0270,0.0149,0.9992,-0.1701,-0.0720,0.1593
8620,Pelvis,2,0.6849,-0.0754,0.6948,0.2059,0.8165,-0.2304,0.0300,-1.1476,0.8641,0.7174,10.4833,1.5446,-0.8139,0.0102,-0.0029,0.0004,0.9999,0.2621,0.0389,-0.0192
8620,Left,2,0.2351,0.0440,-0.9505,-0.1983,-0.1039,1.2144,0.0599,-0.2991,0.3164,0.2887,-3.8318,-1.9593,9.1495,-0.0013,0.0152,0.0007,0.9999,-0.0923,-0.0488,0.2302
8620,Right,2,0.0672,-0.0533,-0.9961,-0.0199,-0.4286,2.5837,1.4894,-2.3733,8.3767,-0.1411,1.7870,-7.1244,10.7457,-0.0054,0.0323,0.0186,0.9993,0.0566,-0.1757,0.2679
8621,Pelvis,2,0.6896,-0.0715,0.6933,0.1966,0.8020,-0.3231,0.2448,-0.9126,-0.6034,1.7902,11.2819,2.9218,-0.0990,0.0100,-0.0040,0.0031,0.9999,0.2818,0.0739,-0.0006
8621,Left,2,0.2540,0.0411,-0.9459,-0.1978,-0.0912,1.5676,0.0877,-0.7528,0.3112,-0.1952,-3.5721,-1.7258,8.7997,-0.0011,0.0196,0.0011,0.9998,-0.0849,-0.0430,0.2217
8621,Right,2,0.1122,-0.0509,-0.9922,-0.0166,-0.2649,3.6219,0.0489,3.6271,11.8306,0.9007,-5.1821,-10.8481,11.1118,-0.0033,0.0453,0.0006,0.9990,-0.1166,-0.2703,0.2842
8622,Pelvis,2,0.6922,-0.0696,0.6936,0.1871,0.6829,-0.1454,0.4146,0.0398,-1.7322,2.2539,11.5982,3.5910,1.0919,0.0085,-0.0018,0.0052,0.9999,0.2894,0.0910,0.0286
8622,Left,2,0.2791,0.0373,-0.9395,-0.1953,-0.1670,2.0864,0.2540,-1.2831,0.7864,-0.6285,-3.1654,-1.9150,8.5409,-0.0021,0.0261,0.0032,0.9997,-0.0734,-0.0477,0.2156
8622,Right,2,0.1528,-0.0512,-0.9868,-0.0150,-0.0167,3.2775,-0.0285,6.7742,-4.8317,10.6401,-12.0213,6.4812,17.3575,-0.0002,0.0410,-0.0004,0.9992,-0.2824,0.1622,0.4457
8623,Pelvis,2,0.6940,-0.0706,0.6941,0.1777,0.5005,-0.1330,0.5747,0.7001,-1.4673,2.2968,11.7476,2.9931,1.5235,0.0063,-0.0017,0.0072,1.0000,0.2931,0.0767,0.0391
8623,Left,2,0.3041,0.0272,-0.9335,-0.1880,0.1985,2.1538,0.7610,-2.1597,2.1576,-0.0959,-2.7394,-2.9322,9.3628,0.0025,0.0269,0.0095,0.9996,-0.0615,-0.0745,0.2356
8623,Right,2,0.1778,-0.0479,-0.9828,-0.0114,-0.3136,2.0355,0.1388,1.7953,5.2165,3.8626,-6.1187,-3.9899,12.8116,-0.0039,0.0254,0.0017,0.9997,-0.1446,-0.0987,0.3244
8624,Pelvis,2,0.6946,-0.0696,0.6956,0.1697,0.5192,0.0309,0.4097,0.8042,-0.0458,1.5934,11.2971,1.4088,1.0672,0.0065,0.0004,0.0051,1.0000,0.2823,0.0365,0.0268
8624,Left,2,0.3320,0.0090,-0.9280,-0.1687,0.4716,2.4496,1.8748,-2.7056,1.4232,1.4337,-4.1146,-2.1193,10.6989,0.0059,0.0306,0.0234,0.9992,-0.0933,-0.0568,0.2701
8624,Right,2,0.1959,-0.0486,-0.9794,-0.0090,0.0172,1.4810,0.1400,1.4337,-0.9808,2.5487,-5.8813,2.0440,10.8199,0.0002,0.0185,0.0017,0.9998,-0.1421,0.0508,0.2732
8625,Pelvis,2,0.6945,-0.0647,0.6981,0.1615,0.7480,0.1741,0.2157,2.3320,-0.3588,1.6489,11.3475,1.1423,2.6201,0.0094,0.0022,0.0027,1.0000,0.2838,0.0287,0.0652
8625,Right,2,0.2031,-0.0487,-0.9779,-0.0078,-0.0043,0.5858,0.0738,1.1470,0.8569,1.6436,-5.5412,0.1578,10.1277,-0.0001,0.0073,0.0009,1.0000,-0.1367,0.0038,0.2542
8626,Pelvis,2,0.6916,-0.0596,0.7035,0.1525,0.7803,0.4894,0.2975,2.2597,-2.3654,0.7394,10.1628,2.9151,3.2045,0.0098,0.0061,0.0037,0.9999,0.2543,0.0730,0.0793
8626,Left,2,0.5071,-0.0269,-0.8525,-0.1238,-0.4675,7.7869,1.7135,-6.9923,1.6995,4.1204,-5.9506,-1.2548,14.5655,-0.0116,0.1934,0.0426,0.9801,-0.1473,-0.0624,0.7676
8626,Right,2,0.2051,-0.0498,-0.9774,-0.0072,0.0846,0.1727,0.0703,0.3713,0.4189,0.5593,-4.4901,0.5373,9.3511,0.0011,0.0022,0.0009,1.0000,-0.1118,0.0131,0.2340
8627,Pelvis,2,0.6873,-0.0561,0.7097,0.1445,0.6177,0.5982,0.3553,1.5305,-3.0009,-0.1771,9.1555,3.5901,2.7353,0.0077,0.0075,0.0044,0.9999,0.2290,0.0902,0.0674
8627,Left,2,0.6047,-0.0520,-0.7878,-0.1048,0.1230,9.6085,1.4799,-8.5866,4.7535,5.1180,-10.1035,-3.5570,14.3557,0.0015,0.1198,0.0185,0.9926,-0.2056,-0.0936,0.3854
8627,Right,2,0.2060,-0.0512,-0.9772,-0.0067,0.0984,0.0703,0.0671,0.2018,0.1033,0.3439,-4.2738,0.8634,9.1759,0.0012,0.0009,0.0008,1.0000,-0.1067,0.0212,0.2295
8628,Pelvis,2,0.6835,-0.0529,0.7145,0.1396,0.4324,0.5036,0.1759,0.6321,-2.1718,0.2287,9.6677,3.0713,1.7463,0.0054,0.0063,0.0022,1.0000,0.2418,0.0771,0.0426
8628,Left,2,0.6641,-0.0695,-0.7394,-0.0862,-0.0932,6.3283,1.3746,-13.9932,4.3688,-0.3657,-6.5273,-1.3998,16.1317,-0.0012,0.0790,0.0172,0.9967,-0.1300,-0.0369,0.4145
8628,Right,2,0.2062,-0.0524,-0.9771,-0.0063,0.0985,0.0221,0.0578,0.1486,0.3528,0.1898,-4.1747,0.6290,9.0759,0.0012,0.0003,0.0007,1.0000,-0.1043,0.0154,0.2269
8629,Pelvis,2,0.6806,-0.0482,0.7179,0.1383,0.3258,0.4021,-0.1349,-0.0390,-1.7799,-0.3807,9.1171,2.8170,1.0371,0.0041,0.0050,-0.0017,1.0000,0.2282,0.0699,0.0251
8629,Left,2,0.6640,-0.0748,-0.7408,-0.0681,-0.6538,0.0705,1.3747,-29.1640,10.6421,1.9867,-8.4379,-4.2179,31.8440,-0.0082,0.0009,0.0172,0.9998,-0.2085,-0.1025,0.7971
8629,Right,2,0.2063,-0.0541,-0.9770,-0.0059,0.1283,0.0096,0.0664,0.0898,0.3073,0.0910,-4.0837,0.6964,9.0014,0.0016,0.0001,0.0008,1.0000,-0.1021,0.0170,0.2251
8630,Pelvis,2,0.6790,-0.0432,0.7194,0.1399,0.1879,0.2429,-0.3390,-0.4654,-1.7469,-0.8949,8.6032,2.8946,0.6347,0.0023,0.0030,-0.0042,1.0000,0.2154,0.0714,0.0154
8630,Left,2,0.6317,-0.0705,-0.7700,-0.0557,-0.9229,-3.3846,0.8696,-11.8624,6.0739,-7.9856,0.0019,-3.6771,12.9429,-0.0115,-0.0423,0.0109,0.9990,-0.0127,-0.0883,0.3242
8630,Right,2,0.2063,-0.0558,-0.9769,-0.0057,0.1348,0.0034,0.0600,0.0476,0.1835,-0.0217,-3.9989,0.8430,8.8993,0.0017,0.0000,0.0007,1.0000,-0.1000,0.0206,0.2225
8631,Pelvis,2,0.6780,-0.0388,0.7200,0.1431,0.0773,0.1558,-0.4118,-0.5485,-1.6843,-0.8592,8.6201,2.9440,0.5735,0.0010,0.0019,-0.0051,1.0000,0.2159,0.0725,0.0140
8631,Left,2,0.5912,-0.0670,-0.8024,-0.0468,-0.6662,-4.0741,0.7606,-5.2628,3.4087,-9.0941,0.5907,-2.4564,5.7859,-0.0083,-0.0509,0.0095,0.9986,0.0079,-0.0601,0.1457
8631,Right,2,0.2064,-0.0573,-0.9768,-0.0055,0.1193,0.0095,0.0458,-0.0009,0.1240,-0.2004,-3.8822,0.9161,8.7465,0.0015,0.0001,0.0006,1.0000,-0.0970,0.0225,0.2187
8632,Pelvis,2,0.6762,-0.0353,0.7211,0.1469,-0.0234,0.2188,-0.3887,-0.3060,-1.2214,-1.0944,8.4190,2.4922,0.7101,-0.0003,0.0027,-0.0049,1.0000,0.2108,0.0613,0.0172
8632,Left,2,0.5454,-0.0596,-0.8352,-0.0377,-0.9143,-4.4454,0.6236,-5.7585,3.2507,-5.6418,-1.8994,-2.1641,7.2724,-0.0114,-0.0555,0.0078,0.9984,-0.0571,-0.0525,0.1794
8632,Right,2,0.2067,-0.0586,-0.9766,-0.0055,0.1040,0.0236,0.0340,-0.0227,0.1275,-0.2220,-3.8567,0.9373,8.7319,0.0013,0.0003,0.0004,1.0000,-0.0964,0.0231,0.2184
8633,Pelvis,2,0.6756,-0.0325,0.7211,0.1503,-0.0310,0.0814,-0.3464,-0.1643,-0.6667,-1.4671,8.1134,1.9468,0.7090,-0.0004,0.0010,-0.0043,1.0000,0.2031,0.0478,0.0175
8633,Left,2,0.4905,-0.0447,-0.8698,-0.0296,-1.3580,-5.1583,0.2797,-6.1269,3.4216,-1.5311,-4.5168,-2.2606,9.6162,-0.0170,-0.0644,0.0035,0.9978,-0.1279,-0.0529,0.2334
8633,Right,2,0.2071,-0.0598,-0.9765,-0.0054,0.0960,0.0371,0.0332,0.0328,0.1531,-0.1600,-3.9391,0.9401,8.7635,0.0012,0.0005,0.0004,1.0000,-0.0984,0.0232,0.2192
8634,Pelvis,2,0.6753,-0.0300,0.7209,0.1529,0.0104,0.0488,-0.2833,-0.1529,0.0228,-1.1752,8.5049,1.3981,0.5854,0.0001,0.0006,-0.0035,1.0000,0.2128,0.0342,0.0145
8634,Left,2,0.4266,-0.0245,-0.9038,-0.0247,-1.5674,-5.7852,-0.1157,-4.2377,2.5029,0.0491,-5.5633,-1.7924,9.3555,-0.0196,-0.0722,-0.0014,0.9972,-0.1556,-0.0401,0.2238
8634,Right,2,0.2077,-0.0609,-0.9763,-0.0053,0.0880,0.0458,0.0345,0.0304,0.1406,-0.1165,-3.9630,0.9792,8.7961,0.0011,0.0006,0.0004,1.0000,-0.0990,0.0242,0.2200
8635,Pelvis,2,0.6762,-0.0270,0.7199,0.1540,0.1332,-0.0578,-0.2337,-0.2195,0.5179,-0.9086,8.8506,1.0454,0.4161,0.0017,-0.0007,-0.0029,1.0000,0.2213,0.0255,0.0106
8635,Left,2,0.3588,-0.0053,-0.9331,-0.0218,-1.4063,-5.9079,-0.2236,-2.7517,0.7643,1.1857,-6.0332,-0.5117,9.6283,-0.0176,-0.0738,-0.0028,0.9971,-0.1681,-0.0082,0.2289
8635,Right,2,0.2084,-0.0618,-0.9761,-0.0052,0.0808,0.0625,0.0298,-0.0020,0.1119,-0.1003,-3.9510,1.0305,8.8131,0.0010,0.0008,0.0004,1.0000,-0.0986,0.0255,0.2204
8636,Pelvis,2,0.6759,-0.0241,0.7202,0.1545,0.1418,0.0835,-0.1757,-0.7143,0.0158,-0.6782,8.9960,1.7368,0.0788,0.0018,0.0010,-0.0022,1.0000,0.2250,0.0429,0.0018
8636,Right,2,0.2094,-0.0627,-0.9758,-0.0052,0.0717,0.0864,0.0221,0.0089,0.1692,-0.0567,-3.9958,0.9959,8.8459,0.0009,0.0011,0.0003,1.0000,-0.0997,0.0247,0.2213
8637,Pelvis,2,0.6752,-0.0223,0.7208,0.1549,0.0822,0.0970,-0.1114,-1.1064,-0.4421,-0.5387,9.0539,2.3297,-0.1628,0.0010,0.0012,-0.0014,1.0000,0.2264,0.0579,-0.0043
